trial_type,trial_index,time_elapsed,internal_node_id,task_version,subject_id,interactions,success,rt,stimulus,key_press,button_pressed,offer,arcade_color_L,arcade_color_R,arcade_outcome_L,arcade_outcome_R,correct,stage_1_key,stage_1_choice,stage_1_rt,stage_2_key,stage_2_choice,stage_2_rt,stage_3_outcome,accuracy,phase,responses,num_errors,context,reward_prob_L,reward_prob_R,arcade_id_L,arcade_id_R,trial,block,response
pavlovia,0,5,0.0-0.0,voc_e2,11926,[],NA,NA,NA,NA,NA,NA,NA,NA,NA,NA,NA,NA,NA,NA,NA,NA,NA,NA,NA,NA,NA,NA,NA,NA,NA,NA,NA,NA,NA,NA
fullscreen,1,2343,0.0-1.0,voc_e2,11926,"[{""event"":""fullscreenenter"",""trial"":1,""time"":1356}]",TRUE,NA,NA,NA,NA,NA,NA,NA,NA,NA,NA,NA,NA,NA,NA,NA,NA,NA,NA,NA,NA,NA,NA,NA,NA,NA,NA,NA,NA,NA
audio-keyboard-response,2,7613,0.0-2.0,voc_e2,11926,"[{""event"":""fullscreenenter"",""trial"":1,""time"":1356}]",NA,5101,static/audio/beep_loop.wav,32,NA,NA,NA,NA,NA,NA,NA,NA,NA,NA,NA,NA,NA,NA,NA,NA,NA,NA,NA,NA,NA,NA,NA,NA,NA,NA
audio-test,3,8685,0.0-3.0,voc_e2,11926,"[{""event"":""fullscreenenter"",""trial"":1,""time"":1356}]",NA,NA,static/audio/turtle.wav,NA,3,NA,NA,NA,NA,NA,NA,NA,NA,NA,NA,NA,NA,NA,NA,NA,NA,NA,NA,NA,NA,NA,NA,NA,NA,NA
audio-test,4,10527,0.0-4.0,voc_e2,11926,"[{""event"":""fullscreenenter"",""trial"":1,""time"":1356}]",NA,NA,static/audio/shark.wav,NA,2,NA,NA,NA,NA,NA,NA,NA,NA,NA,NA,NA,NA,NA,NA,NA,NA,NA,NA,NA,NA,NA,NA,NA,NA,NA
audio-instructions,5,19334,0.0-5.0-0.0,voc_e2,11926,"[{""event"":""fullscreenenter"",""trial"":1,""time"":1356}]",NA,3022.29999999702,static/audio/instructions1.wav,NA,0,NA,NA,NA,NA,NA,NA,NA,NA,NA,NA,NA,NA,NA,NA,NA,NA,NA,NA,NA,NA,NA,NA,NA,NA,NA
audio-instructions,6,27254,0.0-5.0-1.0,voc_e2,11926,"[{""event"":""fullscreenenter"",""trial"":1,""time"":1356}]",NA,1173.199999988079,static/audio/instructions2.wav,NA,0,NA,NA,NA,NA,NA,NA,NA,NA,NA,NA,NA,NA,NA,NA,NA,NA,NA,NA,NA,NA,NA,NA,NA,NA,NA
audio-instructions,7,34238,0.0-5.0-2.0,voc_e2,11926,"[{""event"":""fullscreenenter"",""trial"":1,""time"":1356}]",NA,1176.7999999970198,static/audio/instructions3.wav,NA,0,NA,NA,NA,NA,NA,NA,NA,NA,NA,NA,NA,NA,NA,NA,NA,NA,NA,NA,NA,NA,NA,NA,NA,NA,NA
audio-instructions,8,48519,0.0-5.0-3.0,voc_e2,11926,"[{""event"":""fullscreenenter"",""trial"":1,""time"":1356}]",NA,1057.9000000059605,static/audio/instructions4.wav,NA,0,NA,NA,NA,NA,NA,NA,NA,NA,NA,NA,NA,NA,NA,NA,NA,NA,NA,NA,NA,NA,NA,NA,NA,NA,NA
audio-instructions,9,58539,0.0-5.0-4.0,voc_e2,11926,"[{""event"":""fullscreenenter"",""trial"":1,""time"":1356}]",NA,637.7999999970198,static/audio/instructions5.wav,NA,0,NA,NA,NA,NA,NA,NA,NA,NA,NA,NA,NA,NA,NA,NA,NA,NA,NA,NA,NA,NA,NA,NA,NA,NA,NA
fcp-practice,10,60543,0.0-5.0-5.0-0.0,voc_e2,11926,"[{""event"":""fullscreenenter"",""trial"":1,""time"":1356}]",NA,NA,NA,NA,NA,NA,#EDC948,#46d3c8,10,0,1,null,null,null,37,1,499.59999999403954,10,1,practice,NA,NA,NA,NA,NA,NA,NA,NA,NA,NA
fcp-practice,11,62301,0.0-5.0-5.0-1.0,voc_e2,11926,"[{""event"":""fullscreenenter"",""trial"":1,""time"":1356}]",NA,NA,NA,NA,NA,NA,#EDC948,#46d3c8,10,0,1,null,null,null,37,1,251.5,10,1,practice,NA,NA,NA,NA,NA,NA,NA,NA,NA,NA
fcp-practice,12,64052,0.0-5.0-5.0-2.0,voc_e2,11926,"[{""event"":""fullscreenenter"",""trial"":1,""time"":1356}]",NA,NA,NA,NA,NA,NA,#EDC948,#46d3c8,0,10,1,null,null,null,37,1,245.0999999940395,0,1,practice,NA,NA,NA,NA,NA,NA,NA,NA,NA,NA
fcp-practice,13,65780,0.0-5.0-5.0-3.0,voc_e2,11926,"[{""event"":""fullscreenenter"",""trial"":1,""time"":1356}]",NA,NA,NA,NA,NA,NA,#EDC948,#46d3c8,10,0,1,null,null,null,37,1,225.70000000298023,10,1,practice,NA,NA,NA,NA,NA,NA,NA,NA,NA,NA
fcp-practice,14,67489,0.0-5.0-5.0-4.0,voc_e2,11926,"[{""event"":""fullscreenenter"",""trial"":1,""time"":1356}]",NA,NA,NA,NA,NA,NA,#EDC948,#46d3c8,10,0,1,null,null,null,37,1,203.4000000059605,10,1,practice,NA,NA,NA,NA,NA,NA,NA,NA,NA,NA
audio-instructions,15,87337,0.0-5.0-6.0,voc_e2,11926,"[{""event"":""fullscreenenter"",""trial"":1,""time"":1356}]",NA,1845.0999999940395,static/audio/instructions6.wav,NA,0,NA,NA,NA,NA,NA,NA,NA,NA,NA,NA,NA,NA,NA,NA,NA,NA,NA,NA,NA,NA,NA,NA,NA,NA,NA
audio-instructions,16,108361,0.0-5.0-7.0,voc_e2,11926,"[{""event"":""fullscreenenter"",""trial"":1,""time"":1356}]",NA,1829.20000000298,static/audio/instructions7.wav,NA,0,NA,NA,NA,NA,NA,NA,NA,NA,NA,NA,NA,NA,NA,NA,NA,NA,NA,NA,NA,NA,NA,NA,NA,NA,NA
audio-instructions,17,119101,0.0-5.0-8.0,voc_e2,11926,"[{""event"":""fullscreenenter"",""trial"":1,""time"":1356}]",NA,1270.5,static/audio/instructions8.wav,NA,0,NA,NA,NA,NA,NA,NA,NA,NA,NA,NA,NA,NA,NA,NA,NA,NA,NA,NA,NA,NA,NA,NA,NA,NA,NA
fcp-comprehension,18,134559,0.0-5.0-9.0,voc_e2,11926,"[{""event"":""fullscreenenter"",""trial"":1,""time"":1356}]",NA,15457.40000000596,NA,NA,NA,NA,NA,NA,NA,NA,NA,NA,NA,NA,NA,NA,NA,NA,NA,NA,"true,true",0,NA,NA,NA,NA,NA,NA,NA,NA
audio-instructions,19,140579,0.0-6.0-0.0,voc_e2,11926,"[{""event"":""fullscreenenter"",""trial"":1,""time"":1356}]",NA,478.5,static/audio/instructions9.wav,NA,0,NA,NA,NA,NA,NA,NA,NA,NA,NA,NA,NA,NA,NA,NA,NA,NA,NA,NA,NA,NA,NA,NA,NA,NA,NA
audio-instructions,20,153652,0.0-6.0-1.0,voc_e2,11926,"[{""event"":""fullscreenenter"",""trial"":1,""time"":1356}]",NA,961.7000000029802,static/audio/instructions10.wav,NA,0,NA,NA,NA,NA,NA,NA,NA,NA,NA,NA,NA,NA,NA,NA,NA,NA,NA,NA,NA,NA,NA,NA,NA,NA,NA
fcp-trial,21,160062,0.0-6.0-2.0,voc_e2,11926,"[{""event"":""fullscreenenter"",""trial"":1,""time"":1356}]",NA,NA,NA,NA,NA,0,#EDC948,#46d3c8,10,10,1,38,1,3717.2999999970198,39,0,1177.7000000029802,10,0,practice,NA,NA,NA,NA,NA,NA,NA,NA,NA,NA
audio-instructions,22,173910,0.0-6.0-3.0,voc_e2,11926,"[{""event"":""fullscreenenter"",""trial"":1,""time"":1356}]",NA,2839.20000000298,static/audio/instructions11.wav,NA,0,NA,NA,NA,NA,NA,NA,NA,NA,NA,NA,NA,NA,NA,NA,NA,NA,NA,NA,NA,NA,NA,NA,NA,NA,NA
fcp-trial,23,176995,0.0-6.0-4.0,voc_e2,11926,"[{""event"":""fullscreenenter"",""trial"":1,""time"":1356}]",NA,NA,NA,NA,NA,6,#EDC948,#46d3c8,10,10,1,40,0,977.2000000029802,39,0,602.5999999940395,10,0,practice,NA,NA,NA,NA,NA,NA,NA,NA,NA,NA
audio-instructions,24,197518,0.0-6.0-5.0,voc_e2,11926,"[{""event"":""fullscreenenter"",""trial"":1,""time"":1356}]",NA,1837.79999999702,static/audio/instructions12.wav,NA,0,NA,NA,NA,NA,NA,NA,NA,NA,NA,NA,NA,NA,NA,NA,NA,NA,NA,NA,NA,NA,NA,NA,NA,NA,NA
audio-instructions,25,205743,0.0-6.0-6.0,voc_e2,11926,"[{""event"":""fullscreenenter"",""trial"":1,""time"":1356}]",NA,632.2999999970198,static/audio/instructions13.wav,NA,0,NA,NA,NA,NA,NA,NA,NA,NA,NA,NA,NA,NA,NA,NA,NA,NA,NA,NA,NA,NA,NA,NA,NA,NA,NA
audio-instructions,26,214642,0.0-6.0-7.0,voc_e2,11926,"[{""event"":""fullscreenenter"",""trial"":1,""time"":1356}]",NA,451.1000000089407,static/audio/instructions14.wav,NA,0,NA,NA,NA,NA,NA,NA,NA,NA,NA,NA,NA,NA,NA,NA,NA,NA,NA,NA,NA,NA,NA,NA,NA,NA,NA
audio-instructions,27,222561,0.0-7.0-0.0,voc_e2,11926,"[{""event"":""fullscreenenter"",""trial"":1,""time"":1356}]",NA,1000,static/audio/instructions15.wav,NA,0,NA,NA,NA,NA,NA,NA,NA,NA,NA,NA,NA,NA,NA,NA,NA,NA,NA,NA,NA,NA,NA,NA,NA,NA,NA
audio-instructions,28,229646,0.0-7.0-1.0,voc_e2,11926,"[{""event"":""fullscreenenter"",""trial"":1,""time"":1356}]",NA,255.1000000089407,static/audio/instructions16.wav,NA,0,NA,NA,NA,NA,NA,NA,NA,NA,NA,NA,NA,NA,NA,NA,NA,NA,NA,NA,NA,NA,NA,NA,NA,NA,NA
audio-instructions,29,237627,0.0-7.0-2.0,voc_e2,11926,"[{""event"":""fullscreenenter"",""trial"":1,""time"":1356}]",NA,306.29999999701977,static/audio/instructions17.wav,NA,0,NA,NA,NA,NA,NA,NA,NA,NA,NA,NA,NA,NA,NA,NA,NA,NA,NA,NA,NA,NA,NA,NA,NA,NA,NA
audio-instructions,30,245675,0.0-7.0-3.0,voc_e2,11926,"[{""event"":""fullscreenenter"",""trial"":1,""time"":1356}]",NA,283.79999999701977,static/audio/instructions18.wav,NA,0,NA,NA,NA,NA,NA,NA,NA,NA,NA,NA,NA,NA,NA,NA,NA,NA,NA,NA,NA,NA,NA,NA,NA,NA,NA
audio-instructions,31,252901,0.0-7.0-4.0,voc_e2,11926,"[{""event"":""fullscreenenter"",""trial"":1,""time"":1356}]",NA,490.09999999403954,static/audio/instructions19.wav,NA,0,NA,NA,NA,NA,NA,NA,NA,NA,NA,NA,NA,NA,NA,NA,NA,NA,NA,NA,NA,NA,NA,NA,NA,NA,NA
fcp-comprehension,32,259787,0.0-7.0-5.0,voc_e2,11926,"[{""event"":""fullscreenenter"",""trial"":1,""time"":1356}]",NA,6885.800000011921,NA,NA,NA,NA,NA,NA,NA,NA,NA,NA,NA,NA,NA,NA,NA,NA,NA,NA,"false,false,false,true",0,NA,NA,NA,NA,NA,NA,NA,NA
audio-instructions,33,269961,0.0-8.0,voc_e2,11926,"[{""event"":""fullscreenenter"",""trial"":1,""time"":1356}]",NA,960.2999999970198,static/audio/ready.wav,NA,0,NA,NA,NA,NA,NA,NA,NA,NA,NA,NA,NA,NA,NA,NA,NA,NA,NA,NA,NA,NA,NA,NA,NA,NA,NA
fcp-trial,34,274164,0.0-9.0-0.0,voc_e2,11926,"[{""event"":""fullscreenenter"",""trial"":1,""time"":1356}]",NA,NA,NA,NA,NA,5,#1CD855,#FA92F8,0,10,1,40,0,2045.2000000029802,37,1,650.3000000119209,0,1,experiment,NA,NA,2,0.5,0.5,4,5,1,1,NA
fcp-trial,35,277867,0.0-10.0-0.0,voc_e2,11926,"[{""event"":""fullscreenenter"",""trial"":1,""time"":1356}]",NA,NA,NA,NA,NA,6,#741CD8,#D8271C,10,10,0,38,1,1918.2999999970198,37,1,273.3999999910593,10,0,experiment,NA,NA,1,0.3,0.7,3,2,2,1,NA
fcp-trial,36,281661,0.0-11.0-0.0,voc_e2,11926,"[{""event"":""fullscreenenter"",""trial"":1,""time"":1356}]",NA,NA,NA,NA,NA,2,#D89F1C,#3386FF,10,0,1,38,1,1622.2000000029802,39,0,663.4000000059605,0,0,experiment,NA,NA,0,0.9,0.1,0,1,3,1,NA
fcp-trial,37,285964,0.0-12.0-0.0,voc_e2,11926,"[{""event"":""fullscreenenter"",""trial"":1,""time"":1356}]",NA,NA,NA,NA,NA,3,#1CD855,#FA92F8,0,10,1,40,0,2407.2000000029802,37,1,392.699999988079,0,1,experiment,NA,NA,2,0.5,0.5,4,5,4,1,NA
fcp-trial,38,289466,0.0-13.0-0.0,voc_e2,11926,"[{""event"":""fullscreenenter"",""trial"":1,""time"":1356}]",NA,NA,NA,NA,NA,0,#741CD8,#D8271C,0,10,0,38,1,1363.2999999970198,39,0,630.4000000059605,10,1,experiment,NA,NA,1,0.3,0.7,3,2,5,1,NA
fcp-trial,39,292636,0.0-14.0-0.0,voc_e2,11926,"[{""event"":""fullscreenenter"",""trial"":1,""time"":1356}]",NA,NA,NA,NA,NA,1,#FA92F8,#1CD855,10,10,0,38,1,956.5,37,1,706,10,0,experiment,NA,NA,2,0.5,0.5,5,4,6,1,NA
fcp-trial,40,295897,0.0-15.0-0.0,voc_e2,11926,"[{""event"":""fullscreenenter"",""trial"":1,""time"":1356}]",NA,NA,NA,NA,NA,5,#D89F1C,#3386FF,10,0,1,40,0,1331.9000000059605,37,1,423.29999999701977,10,1,experiment,NA,NA,0,0.9,0.1,0,1,7,1,NA
fcp-trial,41,299450,0.0-16.0-0.0,voc_e2,11926,"[{""event"":""fullscreenenter"",""trial"":1,""time"":1356}]",NA,NA,NA,NA,NA,5,#D8271C,#741CD8,0,0,1,40,0,1632.0999999940395,37,1,417.3999999910593,0,1,experiment,NA,NA,1,0.7,0.3,2,3,8,1,NA
fcp-trial,42,302875,0.0-17.0-0.0,voc_e2,11926,"[{""event"":""fullscreenenter"",""trial"":1,""time"":1356}]",NA,NA,NA,NA,NA,4,#3386FF,#D89F1C,10,10,0,38,1,1377.5999999940395,39,0,545.5,10,1,experiment,NA,NA,0,0.1,0.9,1,0,9,1,NA
fcp-trial,43,306404,0.0-18.0-0.0,voc_e2,11926,"[{""event"":""fullscreenenter"",""trial"":1,""time"":1356}]",NA,NA,NA,NA,NA,4,#D8271C,#741CD8,10,0,1,40,0,1600.199999988079,37,1,426.90000000596046,10,1,experiment,NA,NA,1,0.7,0.3,2,3,10,1,NA
fcp-trial,44,309840,0.0-19.0-0.0,voc_e2,11926,"[{""event"":""fullscreenenter"",""trial"":1,""time"":1356}]",NA,NA,NA,NA,NA,6,#1CD855,#FA92F8,10,10,1,40,0,1429.2000000029802,37,1,504,10,1,experiment,NA,NA,2,0.5,0.5,4,5,11,1,NA
fcp-trial,45,313214,0.0-20.0-0.0,voc_e2,11926,"[{""event"":""fullscreenenter"",""trial"":1,""time"":1356}]",NA,NA,NA,NA,NA,1,#D89F1C,#3386FF,10,0,1,38,1,915.2000000029802,39,0,956.7999999970198,0,0,experiment,NA,NA,0,0.9,0.1,0,1,12,1,NA
fcp-trial,46,316376,0.0-21.0-0.0,voc_e2,11926,"[{""event"":""fullscreenenter"",""trial"":1,""time"":1356}]",NA,NA,NA,NA,NA,6,#3386FF,#D89F1C,0,10,0,40,0,1165.7999999970198,39,0,492.5,10,1,experiment,NA,NA,0,0.1,0.9,1,0,13,1,NA
fcp-trial,47,319614,0.0-22.0-0.0,voc_e2,11926,"[{""event"":""fullscreenenter"",""trial"":1,""time"":1356}]",NA,NA,NA,NA,NA,3,#D8271C,#741CD8,0,0,1,38,1,958.8999999910593,37,1,776.7000000029802,0,1,experiment,NA,NA,1,0.7,0.3,2,3,14,1,NA
fcp-trial,48,322610,0.0-23.0-0.0,voc_e2,11926,"[{""event"":""fullscreenenter"",""trial"":1,""time"":1356}]",NA,NA,NA,NA,NA,0,#FA92F8,#1CD855,0,0,0,38,1,1127.7999999970198,39,0,365.59999999403954,0,1,experiment,NA,NA,2,0.5,0.5,5,4,15,1,NA
fcp-trial,49,326026,0.0-24.0-0.0,voc_e2,11926,"[{""event"":""fullscreenenter"",""trial"":1,""time"":1356}]",NA,NA,NA,NA,NA,4,#FA92F8,#1CD855,0,10,0,40,0,1487.0999999940395,37,1,425.800000011921,0,0,experiment,NA,NA,2,0.5,0.5,5,4,16,1,NA
fcp-trial,50,328945,0.0-25.0-0.0,voc_e2,11926,"[{""event"":""fullscreenenter"",""trial"":1,""time"":1356}]",NA,NA,NA,NA,NA,2,#1CD855,#FA92F8,0,10,1,40,0,1047.9000000059605,39,0,368.29999999701977,10,0,experiment,NA,NA,2,0.5,0.5,4,5,17,1,NA
fcp-trial,51,332962,0.0-26.0-0.0,voc_e2,11926,"[{""event"":""fullscreenenter"",""trial"":1,""time"":1356}]",NA,NA,NA,NA,NA,0,#3386FF,#D89F1C,0,10,0,40,0,2106.3999999910593,37,1,408.20000000298023,0,0,experiment,NA,NA,0,0.1,0.9,1,0,18,1,NA
fcp-trial,52,337551,0.0-27.0-0.0,voc_e2,11926,"[{""event"":""fullscreenenter"",""trial"":1,""time"":1356}]",NA,NA,NA,NA,NA,1,#741CD8,#D8271C,10,0,0,38,1,2713.8999999910593,39,0,372.5,0,1,experiment,NA,NA,1,0.3,0.7,3,2,19,1,NA
fcp-trial,53,340859,0.0-28.0-0.0,voc_e2,11926,"[{""event"":""fullscreenenter"",""trial"":1,""time"":1356}]",NA,NA,NA,NA,NA,2,#D8271C,#741CD8,10,10,1,40,0,1332.2000000029802,39,0,472.20000000298023,10,0,experiment,NA,NA,1,0.7,0.3,2,3,20,1,NA
fcp-trial,54,344762,0.0-29.0-0.0,voc_e2,11926,"[{""event"":""fullscreenenter"",""trial"":1,""time"":1356}]",NA,NA,NA,NA,NA,3,#3386FF,#D89F1C,0,10,0,40,0,1976.7000000029802,39,0,424.6000000089407,10,1,experiment,NA,NA,0,0.1,0.9,1,0,21,1,NA
fcp-trial,55,347605,0.0-30.0-0.0,voc_e2,11926,"[{""event"":""fullscreenenter"",""trial"":1,""time"":1356}]",NA,NA,NA,NA,NA,5,#741CD8,#D8271C,0,10,0,40,0,953.3000000119209,39,0,387.6000000089407,10,1,experiment,NA,NA,1,0.3,0.7,3,2,22,1,NA
fcp-trial,56,350922,0.0-31.0-0.0,voc_e2,11926,"[{""event"":""fullscreenenter"",""trial"":1,""time"":1356}]",NA,NA,NA,NA,NA,1,#D89F1C,#3386FF,10,10,1,38,1,821.7999999970198,39,0,992.7999999970198,10,0,experiment,NA,NA,0,0.9,0.1,0,1,23,1,NA
fcp-trial,57,353924,0.0-32.0-0.0,voc_e2,11926,"[{""event"":""fullscreenenter"",""trial"":1,""time"":1356}]",NA,NA,NA,NA,NA,4,#D8271C,#741CD8,10,0,1,40,0,1138.2000000029802,37,1,360.3999999910593,10,1,experiment,NA,NA,1,0.7,0.3,2,3,24,1,NA
fcp-trial,58,357619,0.0-33.0-0.0,voc_e2,11926,"[{""event"":""fullscreenenter"",""trial"":1,""time"":1356}]",NA,NA,NA,NA,NA,0,#3386FF,#D89F1C,0,10,0,38,1,1918.3999999910593,39,0,274.5,10,1,experiment,NA,NA,0,0.1,0.9,1,0,25,1,NA
fcp-trial,59,360450,0.0-34.0-0.0,voc_e2,11926,"[{""event"":""fullscreenenter"",""trial"":1,""time"":1356}]",NA,NA,NA,NA,NA,6,#741CD8,#D8271C,10,10,0,40,0,911.1000000089407,37,1,416.6000000089407,10,0,experiment,NA,NA,1,0.3,0.7,3,2,26,1,NA
fcp-trial,60,363201,0.0-35.0-0.0,voc_e2,11926,"[{""event"":""fullscreenenter"",""trial"":1,""time"":1356}]",NA,NA,NA,NA,NA,5,#1CD855,#FA92F8,10,10,1,40,0,860.7000000029802,37,1,388,10,1,experiment,NA,NA,2,0.5,0.5,4,5,27,1,NA
fcp-trial,61,366524,0.0-36.0-0.0,voc_e2,11926,"[{""event"":""fullscreenenter"",""trial"":1,""time"":1356}]",NA,NA,NA,NA,NA,0,#1CD855,#FA92F8,10,10,1,38,1,1384.2000000029802,37,1,435.79999999701977,10,1,experiment,NA,NA,2,0.5,0.5,4,5,28,1,NA
fcp-trial,62,370386,0.0-37.0-0.0,voc_e2,11926,"[{""event"":""fullscreenenter"",""trial"":1,""time"":1356}]",NA,NA,NA,NA,NA,2,#741CD8,#D8271C,0,10,0,40,0,1991.7999999970198,37,1,368.3999999910593,0,0,experiment,NA,NA,1,0.3,0.7,3,2,29,1,NA
fcp-trial,63,374268,0.0-38.0-0.0,voc_e2,11926,"[{""event"":""fullscreenenter"",""trial"":1,""time"":1356}]",NA,NA,NA,NA,NA,3,#3386FF,#D89F1C,0,10,0,40,0,1858.199999988079,39,0,522,10,1,experiment,NA,NA,0,0.1,0.9,1,0,30,1,NA
fcp-trial,64,377080,0.0-39.0-0.0,voc_e2,11926,"[{""event"":""fullscreenenter"",""trial"":1,""time"":1356}]",NA,NA,NA,NA,NA,3,#D8271C,#741CD8,10,10,1,40,0,985.2999999970198,37,1,322.70000000298023,10,1,experiment,NA,NA,1,0.7,0.3,2,3,31,1,NA
fcp-trial,65,379498,0.0-40.0-0.0,voc_e2,11926,"[{""event"":""fullscreenenter"",""trial"":1,""time"":1356}]",NA,NA,NA,NA,NA,6,#1CD855,#FA92F8,0,0,1,40,0,572.4000000059605,39,0,342.40000000596046,0,0,experiment,NA,NA,2,0.5,0.5,4,5,32,1,NA
fcp-trial,66,382428,0.0-41.0-0.0,voc_e2,11926,"[{""event"":""fullscreenenter"",""trial"":1,""time"":1356}]",NA,NA,NA,NA,NA,2,#3386FF,#D89F1C,10,0,0,38,1,540,39,0,887.2999999970198,0,1,experiment,NA,NA,0,0.1,0.9,1,0,33,1,NA
fcp-trial,67,385354,0.0-42.0-0.0,voc_e2,11926,"[{""event"":""fullscreenenter"",""trial"":1,""time"":1356}]",NA,NA,NA,NA,NA,1,#1CD855,#FA92F8,0,10,1,40,0,1016.7000000029802,39,0,407.70000000298023,10,0,experiment,NA,NA,2,0.5,0.5,4,5,34,1,NA
fcp-trial,68,388525,0.0-43.0-0.0,voc_e2,11926,"[{""event"":""fullscreenenter"",""trial"":1,""time"":1356}]",NA,NA,NA,NA,NA,0,#741CD8,#D8271C,0,0,0,38,1,1394.1000000089407,39,0,273.3999999910593,0,1,experiment,NA,NA,1,0.3,0.7,3,2,35,1,NA
fcp-trial,69,391433,0.0-44.0-0.0,voc_e2,11926,"[{""event"":""fullscreenenter"",""trial"":1,""time"":1356}]",NA,NA,NA,NA,NA,5,#3386FF,#D89F1C,0,10,0,40,0,703.5999999940395,39,0,702.4000000059605,10,1,experiment,NA,NA,0,0.1,0.9,1,0,36,1,NA
fcp-trial,70,393975,0.0-45.0-0.0,voc_e2,11926,"[{""event"":""fullscreenenter"",""trial"":1,""time"":1356}]",NA,NA,NA,NA,NA,6,#D89F1C,#3386FF,10,0,1,40,0,719.2999999970198,37,1,320,10,1,experiment,NA,NA,0,0.9,0.1,0,1,37,1,NA
fcp-trial,71,396418,0.0-46.0-0.0,voc_e2,11926,"[{""event"":""fullscreenenter"",""trial"":1,""time"":1356}]",NA,NA,NA,NA,NA,4,#D89F1C,#3386FF,10,0,1,40,0,597,37,1,343.5,10,1,experiment,NA,NA,0,0.9,0.1,0,1,38,1,NA
fcp-trial,72,398951,0.0-47.0-0.0,voc_e2,11926,"[{""event"":""fullscreenenter"",""trial"":1,""time"":1356}]",NA,NA,NA,NA,NA,2,#FA92F8,#1CD855,10,0,0,40,0,714.5999999940395,39,0,316.90000000596046,0,1,experiment,NA,NA,2,0.5,0.5,5,4,39,1,NA
fcp-trial,73,401831,0.0-48.0-0.0,voc_e2,11926,"[{""event"":""fullscreenenter"",""trial"":1,""time"":1356}]",NA,NA,NA,NA,NA,1,#741CD8,#D8271C,0,10,0,38,1,661.3000000119209,39,0,716.9000000059605,10,1,experiment,NA,NA,1,0.3,0.7,3,2,40,1,NA
fcp-trial,74,404234,0.0-49.0-0.0,voc_e2,11926,"[{""event"":""fullscreenenter"",""trial"":1,""time"":1356}]",NA,NA,NA,NA,NA,4,#FA92F8,#1CD855,0,0,0,40,0,571.2999999970198,37,1,329,0,0,experiment,NA,NA,2,0.5,0.5,5,4,41,1,NA
fcp-trial,75,406714,0.0-50.0-0.0,voc_e2,11926,"[{""event"":""fullscreenenter"",""trial"":1,""time"":1356}]",NA,NA,NA,NA,NA,3,#1CD855,#FA92F8,10,0,1,40,0,665,37,1,311.5,10,1,experiment,NA,NA,2,0.5,0.5,4,5,42,1,NA
fcp-trial,76,409798,0.0-51.0-0.0,voc_e2,11926,"[{""event"":""fullscreenenter"",""trial"":1,""time"":1356}]",NA,NA,NA,NA,NA,2,#1CD855,#FA92F8,10,10,1,40,0,1091.300000011921,39,0,490.70000000298023,10,0,experiment,NA,NA,2,0.5,0.5,4,5,43,1,NA
fcp-trial,77,412377,0.0-52.0-0.0,voc_e2,11926,"[{""event"":""fullscreenenter"",""trial"":1,""time"":1356}]",NA,NA,NA,NA,NA,4,#D89F1C,#3386FF,10,0,1,40,0,595.4000000059605,39,0,481.70000000298023,0,0,experiment,NA,NA,0,0.9,0.1,0,1,44,1,NA
fcp-trial,78,415668,0.0-53.0-0.0,voc_e2,11926,"[{""event"":""fullscreenenter"",""trial"":1,""time"":1356}]",NA,NA,NA,NA,NA,0,#741CD8,#D8271C,0,0,0,38,1,1181.2999999970198,39,0,607.5999999940395,0,1,experiment,NA,NA,1,0.3,0.7,3,2,45,1,NA
fcp-trial,79,418362,0.0-54.0-0.0,voc_e2,11926,"[{""event"":""fullscreenenter"",""trial"":1,""time"":1356}]",NA,NA,NA,NA,NA,4,#1CD855,#FA92F8,0,10,1,40,0,878.0999999940395,37,1,313.70000000298023,0,1,experiment,NA,NA,2,0.5,0.5,4,5,46,2,NA
fcp-trial,80,420802,0.0-55.0-0.0,voc_e2,11926,"[{""event"":""fullscreenenter"",""trial"":1,""time"":1356}]",NA,NA,NA,NA,NA,5,#1CD855,#FA92F8,10,10,1,40,0,566.8999999910593,39,0,371,10,0,experiment,NA,NA,2,0.5,0.5,4,5,47,2,NA
fcp-trial,81,423654,0.0-56.0-0.0,voc_e2,11926,"[{""event"":""fullscreenenter"",""trial"":1,""time"":1356}]",NA,NA,NA,NA,NA,5,#3386FF,#D89F1C,0,10,0,40,0,883.7999999970198,37,1,465.70000000298023,0,0,experiment,NA,NA,0,0.1,0.9,1,0,48,2,NA
fcp-trial,82,426798,0.0-57.0-0.0,voc_e2,11926,"[{""event"":""fullscreenenter"",""trial"":1,""time"":1356}]",NA,NA,NA,NA,NA,3,#741CD8,#D8271C,0,10,0,38,1,1076.5,39,0,564,10,1,experiment,NA,NA,1,0.3,0.7,3,2,49,2,NA
fcp-trial,83,429473,0.0-58.0-0.0,voc_e2,11926,"[{""event"":""fullscreenenter"",""trial"":1,""time"":1356}]",NA,NA,NA,NA,NA,6,#3386FF,#D89F1C,0,10,0,40,0,734.5999999940395,37,1,438.90000000596046,0,0,experiment,NA,NA,0,0.1,0.9,1,0,50,2,NA
fcp-trial,84,433247,0.0-59.0-0.0,voc_e2,11926,"[{""event"":""fullscreenenter"",""trial"":1,""time"":1356}]",NA,NA,NA,NA,NA,6,#1CD855,#FA92F8,0,10,1,40,0,1832.5999999940395,39,0,438.5,10,0,experiment,NA,NA,2,0.5,0.5,4,5,51,2,NA
fcp-trial,85,435673,0.0-60.0-0.0,voc_e2,11926,"[{""event"":""fullscreenenter"",""trial"":1,""time"":1356}]",NA,NA,NA,NA,NA,5,#D8271C,#741CD8,10,0,1,40,0,599.7999999970198,37,1,323.40000000596046,10,1,experiment,NA,NA,1,0.7,0.3,2,3,52,2,NA
fcp-trial,86,438731,0.0-61.0-0.0,voc_e2,11926,"[{""event"":""fullscreenenter"",""trial"":1,""time"":1356}]",NA,NA,NA,NA,NA,0,#3386FF,#D89F1C,0,10,0,38,1,1170,39,0,385.40000000596046,10,1,experiment,NA,NA,0,0.1,0.9,1,0,53,2,NA
fcp-trial,87,442416,0.0-62.0-0.0,voc_e2,11926,"[{""event"":""fullscreenenter"",""trial"":1,""time"":1356}]",NA,NA,NA,NA,NA,0,#FA92F8,#1CD855,10,10,0,40,0,1717.7999999970198,37,1,463.59999999403954,10,0,experiment,NA,NA,2,0.5,0.5,5,4,54,2,NA
fcp-trial,88,444837,0.0-63.0-0.0,voc_e2,11926,"[{""event"":""fullscreenenter"",""trial"":1,""time"":1356}]",NA,NA,NA,NA,NA,6,#D8271C,#741CD8,10,0,1,40,0,569,37,1,349.09999999403954,10,1,experiment,NA,NA,1,0.7,0.3,2,3,55,2,NA
fcp-trial,89,447859,0.0-64.0-0.0,voc_e2,11926,"[{""event"":""fullscreenenter"",""trial"":1,""time"":1356}]",NA,NA,NA,NA,NA,1,#D8271C,#741CD8,10,0,1,40,0,1002.6000000089407,39,0,516.5,0,0,experiment,NA,NA,1,0.7,0.3,2,3,56,2,NA
fcp-trial,90,450398,0.0-65.0-0.0,voc_e2,11926,"[{""event"":""fullscreenenter"",""trial"":1,""time"":1356}]",NA,NA,NA,NA,NA,3,#3386FF,#D89F1C,0,0,0,40,0,670.0999999940395,37,1,366.3999999910593,0,0,experiment,NA,NA,0,0.1,0.9,1,0,57,2,NA
fcp-trial,91,453087,0.0-66.0-0.0,voc_e2,11926,"[{""event"":""fullscreenenter"",""trial"":1,""time"":1356}]",NA,NA,NA,NA,NA,2,#741CD8,#D8271C,0,0,0,38,1,878.7000000029802,39,0,307.09999999403954,0,1,experiment,NA,NA,1,0.3,0.7,3,2,58,2,NA
fcp-trial,92,455684,0.0-67.0-0.0,voc_e2,11926,"[{""event"":""fullscreenenter"",""trial"":1,""time"":1356}]",NA,NA,NA,NA,NA,3,#FA92F8,#1CD855,10,10,0,40,0,783.9000000059605,37,1,310.09999999403954,10,0,experiment,NA,NA,2,0.5,0.5,5,4,59,2,NA
fcp-trial,93,458488,0.0-68.0-0.0,voc_e2,11926,"[{""event"":""fullscreenenter"",""trial"":1,""time"":1356}]",NA,NA,NA,NA,NA,1,#3386FF,#D89F1C,0,0,0,40,0,913.0999999940395,37,1,388.70000000298023,0,0,experiment,NA,NA,0,0.1,0.9,1,0,60,2,NA
fcp-trial,94,461099,0.0-69.0-0.0,voc_e2,11926,"[{""event"":""fullscreenenter"",""trial"":1,""time"":1356}]",NA,NA,NA,NA,NA,2,#D89F1C,#3386FF,10,0,1,40,0,796.7999999970198,37,1,310.5,10,1,experiment,NA,NA,0,0.9,0.1,0,1,61,2,NA
fcp-trial,95,464034,0.0-70.0-0.0,voc_e2,11926,"[{""event"":""fullscreenenter"",""trial"":1,""time"":1356}]",NA,NA,NA,NA,NA,1,#1CD855,#FA92F8,10,0,1,38,1,619.1000000089407,37,1,814.5,10,1,experiment,NA,NA,2,0.5,0.5,4,5,62,2,NA
fcp-trial,96,466495,0.0-71.0-0.0,voc_e2,11926,"[{""event"":""fullscreenenter"",""trial"":1,""time"":1356}]",NA,NA,NA,NA,NA,4,#741CD8,#D8271C,0,10,0,40,0,602.6000000089407,39,0,356.40000000596046,10,1,experiment,NA,NA,1,0.3,0.7,3,2,63,2,NA
fcp-trial,97,469228,0.0-72.0-0.0,voc_e2,11926,"[{""event"":""fullscreenenter"",""trial"":1,""time"":1356}]",NA,NA,NA,NA,NA,1,#D89F1C,#3386FF,10,0,1,38,1,784.2999999970198,37,1,445.70000000298023,10,1,experiment,NA,NA,0,0.9,0.1,0,1,64,2,NA
fcp-trial,98,471574,0.0-73.0-0.0,voc_e2,11926,"[{""event"":""fullscreenenter"",""trial"":1,""time"":1356}]",NA,NA,NA,NA,NA,2,#FA92F8,#1CD855,0,10,0,40,0,485.5,37,1,358,0,0,experiment,NA,NA,2,0.5,0.5,5,4,65,2,NA
fcp-trial,99,474005,0.0-74.0-0.0,voc_e2,11926,"[{""event"":""fullscreenenter"",""trial"":1,""time"":1356}]",NA,NA,NA,NA,NA,2,#D8271C,#741CD8,0,0,1,40,0,484.20000000298023,39,0,443.20000000298023,0,0,experiment,NA,NA,1,0.7,0.3,2,3,66,2,NA
fcp-trial,100,476579,0.0-75.0-0.0,voc_e2,11926,"[{""event"":""fullscreenenter"",""trial"":1,""time"":1356}]",NA,NA,NA,NA,NA,4,#D89F1C,#3386FF,10,0,1,40,0,678.5,39,0,392.70000000298023,0,0,experiment,NA,NA,0,0.9,0.1,0,1,67,2,NA
fcp-trial,101,479493,0.0-76.0-0.0,voc_e2,11926,"[{""event"":""fullscreenenter"",""trial"":1,""time"":1356}]",NA,NA,NA,NA,NA,4,#1CD855,#FA92F8,10,10,1,38,1,836.2999999970198,37,1,575.3000000119209,10,1,experiment,NA,NA,2,0.5,0.5,4,5,68,2,NA
fcp-trial,102,482106,0.0-77.0-0.0,voc_e2,11926,"[{""event"":""fullscreenenter"",""trial"":1,""time"":1356}]",NA,NA,NA,NA,NA,1,#D8271C,#741CD8,10,0,1,38,1,815.1999999880791,37,1,295,10,1,experiment,NA,NA,1,0.7,0.3,2,3,69,2,NA
fcp-trial,103,485099,0.0-78.0-0.0,voc_e2,11926,"[{""event"":""fullscreenenter"",""trial"":1,""time"":1356}]",NA,NA,NA,NA,NA,0,#FA92F8,#1CD855,10,0,0,40,0,1196,39,0,294.5,0,1,experiment,NA,NA,2,0.5,0.5,5,4,70,2,NA
fcp-trial,104,487499,0.0-79.0-0.0,voc_e2,11926,"[{""event"":""fullscreenenter"",""trial"":1,""time"":1356}]",NA,NA,NA,NA,NA,5,#D89F1C,#3386FF,10,0,1,40,0,518.2000000029802,39,0,379.1000000089407,0,0,experiment,NA,NA,0,0.9,0.1,0,1,71,2,NA
fcp-trial,105,489838,0.0-80.0-0.0,voc_e2,11926,"[{""event"":""fullscreenenter"",""trial"":1,""time"":1356}]",NA,NA,NA,NA,NA,6,#FA92F8,#1CD855,10,0,0,40,0,494.5,37,1,342.29999999701977,10,0,experiment,NA,NA,2,0.5,0.5,5,4,72,2,NA
fcp-trial,106,492391,0.0-81.0-0.0,voc_e2,11926,"[{""event"":""fullscreenenter"",""trial"":1,""time"":1356}]",NA,NA,NA,NA,NA,0,#D8271C,#741CD8,10,0,1,38,1,665.5,37,1,384.70000000298023,10,1,experiment,NA,NA,1,0.7,0.3,2,3,73,2,NA
fcp-trial,107,494842,0.0-82.0-0.0,voc_e2,11926,"[{""event"":""fullscreenenter"",""trial"":1,""time"":1356}]",NA,NA,NA,NA,NA,6,#D8271C,#741CD8,10,0,1,40,0,609.1000000089407,37,1,339.90000000596046,10,1,experiment,NA,NA,1,0.7,0.3,2,3,74,2,NA
fcp-trial,108,497441,0.0-83.0-0.0,voc_e2,11926,"[{""event"":""fullscreenenter"",""trial"":1,""time"":1356}]",NA,NA,NA,NA,NA,5,#1CD855,#FA92F8,10,0,1,40,0,703.0999999940395,37,1,393.8999999910593,10,1,experiment,NA,NA,2,0.5,0.5,4,5,75,2,NA
fcp-trial,109,499849,0.0-84.0-0.0,voc_e2,11926,"[{""event"":""fullscreenenter"",""trial"":1,""time"":1356}]",NA,NA,NA,NA,NA,3,#3386FF,#D89F1C,0,10,0,40,0,577.2999999970198,39,0,327.20000000298023,10,1,experiment,NA,NA,0,0.1,0.9,1,0,76,2,NA
fcp-trial,110,502175,0.0-85.0-0.0,voc_e2,11926,"[{""event"":""fullscreenenter"",""trial"":1,""time"":1356}]",NA,NA,NA,NA,NA,3,#D8271C,#741CD8,10,10,1,40,0,469.80000001192093,37,1,353.20000000298023,10,1,experiment,NA,NA,1,0.7,0.3,2,3,77,2,NA
fcp-trial,111,504452,0.0-86.0-0.0,voc_e2,11926,"[{""event"":""fullscreenenter"",""trial"":1,""time"":1356}]",NA,NA,NA,NA,NA,6,#D89F1C,#3386FF,10,0,1,40,0,399.09999999403954,39,0,375.59999999403954,0,0,experiment,NA,NA,0,0.9,0.1,0,1,78,2,NA
fcp-trial,112,507108,0.0-87.0-0.0,voc_e2,11926,"[{""event"":""fullscreenenter"",""trial"":1,""time"":1356}]",NA,NA,NA,NA,NA,0,#D89F1C,#3386FF,10,0,1,38,1,896.8999999910593,37,1,255,10,1,experiment,NA,NA,0,0.9,0.1,0,1,79,2,NA
fcp-trial,113,509815,0.0-88.0-0.0,voc_e2,11926,"[{""event"":""fullscreenenter"",""trial"":1,""time"":1356}]",NA,NA,NA,NA,NA,1,#1CD855,#FA92F8,10,0,1,40,0,888.9000000059605,37,1,316,10,1,experiment,NA,NA,2,0.5,0.5,4,5,80,2,NA
fcp-trial,114,512369,0.0-89.0-0.0,voc_e2,11926,"[{""event"":""fullscreenenter"",""trial"":1,""time"":1356}]",NA,NA,NA,NA,NA,3,#FA92F8,#1CD855,0,10,0,40,0,707.5,37,1,343.79999999701977,0,0,experiment,NA,NA,2,0.5,0.5,5,4,81,2,NA
fcp-trial,115,514901,0.0-90.0-0.0,voc_e2,11926,"[{""event"":""fullscreenenter"",""trial"":1,""time"":1356}]",NA,NA,NA,NA,NA,4,#D8271C,#741CD8,0,10,1,40,0,626.7000000029802,37,1,401.90000000596046,0,1,experiment,NA,NA,1,0.7,0.3,2,3,82,2,NA
fcp-trial,116,517423,0.0-91.0-0.0,voc_e2,11926,"[{""event"":""fullscreenenter"",""trial"":1,""time"":1356}]",NA,NA,NA,NA,NA,5,#741CD8,#D8271C,0,10,0,40,0,564.5,37,1,453.800000011921,0,0,experiment,NA,NA,1,0.3,0.7,3,2,83,2,NA
fcp-trial,117,519975,0.0-92.0-0.0,voc_e2,11926,"[{""event"":""fullscreenenter"",""trial"":1,""time"":1356}]",NA,NA,NA,NA,NA,2,#D89F1C,#3386FF,10,0,1,38,1,750.8999999910593,37,1,299.80000001192093,10,1,experiment,NA,NA,0,0.9,0.1,0,1,84,2,NA
fcp-trial,118,522274,0.0-93.0-0.0,voc_e2,11926,"[{""event"":""fullscreenenter"",""trial"":1,""time"":1356}]",NA,NA,NA,NA,NA,4,#D8271C,#741CD8,10,10,1,40,0,508.1000000089407,37,1,287.69999998807907,10,1,experiment,NA,NA,1,0.7,0.3,2,3,85,2,NA
fcp-trial,119,524758,0.0-94.0-0.0,voc_e2,11926,"[{""event"":""fullscreenenter"",""trial"":1,""time"":1356}]",NA,NA,NA,NA,NA,6,#D89F1C,#3386FF,10,0,1,40,0,705.0999999940395,37,1,276.5,10,1,experiment,NA,NA,0,0.9,0.1,0,1,86,2,NA
fcp-trial,120,527135,0.0-95.0-0.0,voc_e2,11926,"[{""event"":""fullscreenenter"",""trial"":1,""time"":1356}]",NA,NA,NA,NA,NA,4,#3386FF,#D89F1C,0,10,0,40,0,588.5,39,0,286,10,1,experiment,NA,NA,0,0.1,0.9,1,0,87,2,NA
fcp-trial,121,529983,0.0-96.0-0.0,voc_e2,11926,"[{""event"":""fullscreenenter"",""trial"":1,""time"":1356}]",NA,NA,NA,NA,NA,0,#741CD8,#D8271C,0,10,0,38,1,771.7999999970198,39,0,572.7999999970198,10,1,experiment,NA,NA,1,0.3,0.7,3,2,88,2,NA
fcp-trial,122,532949,0.0-97.0-0.0,voc_e2,11926,"[{""event"":""fullscreenenter"",""trial"":1,""time"":1356}]",NA,NA,NA,NA,NA,2,#D8271C,#741CD8,10,10,1,40,0,694.9000000059605,39,0,768.7999999970198,10,0,experiment,NA,NA,1,0.7,0.3,2,3,89,2,NA
fcp-trial,123,535898,0.0-98.0-0.0,voc_e2,11926,"[{""event"":""fullscreenenter"",""trial"":1,""time"":1356}]",NA,NA,NA,NA,NA,0,#FA92F8,#1CD855,10,0,0,40,0,1076.2999999970198,39,0,370.09999999403954,0,1,experiment,NA,NA,2,0.5,0.5,5,4,90,2,NA
fcp-trial,124,539111,0.0-99.0-0.0,voc_e2,11926,"[{""event"":""fullscreenenter"",""trial"":1,""time"":1356}]",NA,NA,NA,NA,NA,0,#3386FF,#D89F1C,0,10,0,38,1,1441.7999999970198,39,0,267.90000000596046,10,1,experiment,NA,NA,0,0.1,0.9,1,0,91,3,NA
fcp-trial,125,541940,0.0-100.0-0.0,voc_e2,11926,"[{""event"":""fullscreenenter"",""trial"":1,""time"":1356}]",NA,NA,NA,NA,NA,1,#3386FF,#D89F1C,0,10,0,38,1,1054.5,39,0,271.09999999403954,10,1,experiment,NA,NA,0,0.1,0.9,1,0,92,3,NA
fcp-trial,126,544666,0.0-101.0-0.0,voc_e2,11926,"[{""event"":""fullscreenenter"",""trial"":1,""time"":1356}]",NA,NA,NA,NA,NA,6,#D8271C,#741CD8,10,10,1,40,0,922.5,37,1,301.29999999701977,10,1,experiment,NA,NA,1,0.7,0.3,2,3,93,3,NA
fcp-trial,127,547124,0.0-102.0-0.0,voc_e2,11926,"[{""event"":""fullscreenenter"",""trial"":1,""time"":1356}]",NA,NA,NA,NA,NA,6,#1CD855,#FA92F8,10,10,1,40,0,581.1999999880791,39,0,374.70000000298023,10,0,experiment,NA,NA,2,0.5,0.5,4,5,94,3,NA
fcp-trial,128,549542,0.0-103.0-0.0,voc_e2,11926,"[{""event"":""fullscreenenter"",""trial"":1,""time"":1356}]",NA,NA,NA,NA,NA,1,#D8271C,#741CD8,10,0,1,38,1,562.3999999910593,37,1,353.70000000298023,10,1,experiment,NA,NA,1,0.7,0.3,2,3,95,3,NA
fcp-trial,129,552079,0.0-104.0-0.0,voc_e2,11926,"[{""event"":""fullscreenenter"",""trial"":1,""time"":1356}]",NA,NA,NA,NA,NA,4,#1CD855,#FA92F8,10,10,1,40,0,634.2999999970198,37,1,399.70000000298023,10,1,experiment,NA,NA,2,0.5,0.5,4,5,96,3,NA
fcp-trial,130,554684,0.0-105.0-0.0,voc_e2,11926,"[{""event"":""fullscreenenter"",""trial"":1,""time"":1356}]",NA,NA,NA,NA,NA,2,#3386FF,#D89F1C,0,10,0,40,0,632.7999999970198,37,1,469.70000000298023,0,0,experiment,NA,NA,0,0.1,0.9,1,0,97,3,NA
fcp-trial,131,557582,0.0-106.0-0.0,voc_e2,11926,"[{""event"":""fullscreenenter"",""trial"":1,""time"":1356}]",NA,NA,NA,NA,NA,3,#3386FF,#D89F1C,10,10,0,38,1,1057.699999988079,39,0,337.09999999403954,10,1,experiment,NA,NA,0,0.1,0.9,1,0,98,3,NA
fcp-trial,132,560343,0.0-107.0-0.0,voc_e2,11926,"[{""event"":""fullscreenenter"",""trial"":1,""time"":1356}]",NA,NA,NA,NA,NA,3,#FA92F8,#1CD855,10,10,0,40,0,975,37,1,282.79999999701977,10,0,experiment,NA,NA,2,0.5,0.5,5,4,99,3,NA
fcp-trial,133,562674,0.0-108.0-0.0,voc_e2,11926,"[{""event"":""fullscreenenter"",""trial"":1,""time"":1356}]",NA,NA,NA,NA,NA,5,#741CD8,#D8271C,10,0,0,40,0,507.40000000596046,39,0,320.20000000298023,0,1,experiment,NA,NA,1,0.3,0.7,3,2,100,3,NA
fcp-trial,134,565115,0.0-109.0-0.0,voc_e2,11926,"[{""event"":""fullscreenenter"",""trial"":1,""time"":1356}]",NA,NA,NA,NA,NA,5,#FA92F8,#1CD855,10,0,0,40,0,565.7000000029802,39,0,372.79999999701977,0,1,experiment,NA,NA,2,0.5,0.5,5,4,101,3,NA
fcp-trial,135,567612,0.0-110.0-0.0,voc_e2,11926,"[{""event"":""fullscreenenter"",""trial"":1,""time"":1356}]",NA,NA,NA,NA,NA,5,#D89F1C,#3386FF,10,0,1,40,0,523.9000000059605,39,0,470.59999999403954,0,0,experiment,NA,NA,0,0.9,0.1,0,1,102,3,NA
fcp-trial,136,570486,0.0-111.0-0.0,voc_e2,11926,"[{""event"":""fullscreenenter"",""trial"":1,""time"":1356}]",NA,NA,NA,NA,NA,1,#1CD855,#FA92F8,10,10,1,40,0,1011.5,39,0,359.70000000298023,10,0,experiment,NA,NA,2,0.5,0.5,4,5,103,3,NA
fcp-trial,137,573168,0.0-112.0-0.0,voc_e2,11926,"[{""event"":""fullscreenenter"",""trial"":1,""time"":1356}]",NA,NA,NA,NA,NA,2,#1CD855,#FA92F8,0,10,1,38,1,889,37,1,289.20000000298023,0,1,experiment,NA,NA,2,0.5,0.5,4,5,104,3,NA
fcp-trial,138,575923,0.0-113.0-0.0,voc_e2,11926,"[{""event"":""fullscreenenter"",""trial"":1,""time"":1356}]",NA,NA,NA,NA,NA,3,#D8271C,#741CD8,0,0,1,40,0,760.7000000029802,37,1,491.20000000298023,0,1,experiment,NA,NA,1,0.7,0.3,2,3,105,3,NA
audio-instructions,139,602693,0.0-114.0,voc_e2,11926,"[{""event"":""fullscreenenter"",""trial"":1,""time"":1356}]",NA,22286.60000000894,static/audio/pause.wav,NA,0,NA,NA,NA,NA,NA,NA,NA,NA,NA,NA,NA,NA,NA,NA,NA,NA,NA,NA,NA,NA,NA,NA,NA,NA,NA
fcp-trial,140,605540,0.0-115.0-0.0,voc_e2,11926,"[{""event"":""fullscreenenter"",""trial"":1,""time"":1356}]",NA,NA,NA,NA,NA,4,#D8271C,#741CD8,10,0,1,40,0,964.9000000059605,37,1,379.699999988079,10,1,experiment,NA,NA,1,0.7,0.3,2,3,106,3,NA
fcp-trial,141,608074,0.0-116.0-0.0,voc_e2,11926,"[{""event"":""fullscreenenter"",""trial"":1,""time"":1356}]",NA,NA,NA,NA,NA,3,#1CD855,#FA92F8,10,0,1,40,0,688.5,37,1,333.8999999910593,10,1,experiment,NA,NA,2,0.5,0.5,4,5,107,3,NA
fcp-trial,142,610531,0.0-117.0-0.0,voc_e2,11926,"[{""event"":""fullscreenenter"",""trial"":1,""time"":1356}]",NA,NA,NA,NA,NA,6,#FA92F8,#1CD855,0,10,0,40,0,629.2999999970198,39,0,322.29999999701977,10,1,experiment,NA,NA,2,0.5,0.5,5,4,108,3,NA
fcp-trial,143,613048,0.0-118.0-0.0,voc_e2,11926,"[{""event"":""fullscreenenter"",""trial"":1,""time"":1356}]",NA,NA,NA,NA,NA,5,#D8271C,#741CD8,0,0,1,40,0,594.7000000029802,39,0,419,0,0,experiment,NA,NA,1,0.7,0.3,2,3,109,3,NA
fcp-trial,144,615918,0.0-119.0-0.0,voc_e2,11926,"[{""event"":""fullscreenenter"",""trial"":1,""time"":1356}]",NA,NA,NA,NA,NA,4,#D89F1C,#3386FF,10,0,1,38,1,1084.7999999970198,37,1,283.70000000298023,10,1,experiment,NA,NA,0,0.9,0.1,0,1,110,3,NA
fcp-trial,145,618359,0.0-120.0-0.0,voc_e2,11926,"[{""event"":""fullscreenenter"",""trial"":1,""time"":1356}]",NA,NA,NA,NA,NA,5,#FA92F8,#1CD855,0,0,0,40,0,637.5,37,1,301.40000000596046,0,0,experiment,NA,NA,2,0.5,0.5,5,4,111,3,NA
fcp-trial,146,620937,0.0-121.0-0.0,voc_e2,11926,"[{""event"":""fullscreenenter"",""trial"":1,""time"":1356}]",NA,NA,NA,NA,NA,2,#D8271C,#741CD8,10,10,1,38,1,694.5999999940395,37,1,381.59999999403954,10,1,experiment,NA,NA,1,0.7,0.3,2,3,112,3,NA
fcp-trial,147,623755,0.0-122.0-0.0,voc_e2,11926,"[{""event"":""fullscreenenter"",""trial"":1,""time"":1356}]",NA,NA,NA,NA,NA,1,#1CD855,#FA92F8,0,10,1,40,0,992.5,37,1,322,0,1,experiment,NA,NA,2,0.5,0.5,4,5,113,3,NA
fcp-trial,148,626172,0.0-123.0-0.0,voc_e2,11926,"[{""event"":""fullscreenenter"",""trial"":1,""time"":1356}]",NA,NA,NA,NA,NA,6,#3386FF,#D89F1C,0,10,0,40,0,584.6999999880791,39,0,330.20000000298023,10,1,experiment,NA,NA,0,0.1,0.9,1,0,114,3,NA
fcp-trial,149,628837,0.0-124.0-0.0,voc_e2,11926,"[{""event"":""fullscreenenter"",""trial"":1,""time"":1356}]",NA,NA,NA,NA,NA,1,#741CD8,#D8271C,0,10,0,38,1,828.6000000089407,39,0,334.70000000298023,10,1,experiment,NA,NA,1,0.3,0.7,3,2,115,3,NA
fcp-trial,150,632054,0.0-125.0-0.0,voc_e2,11926,"[{""event"":""fullscreenenter"",""trial"":1,""time"":1356}]",NA,NA,NA,NA,NA,2,#3386FF,#D89F1C,0,10,0,38,1,1423,39,0,290.79999999701977,10,1,experiment,NA,NA,0,0.1,0.9,1,0,116,3,NA
fcp-trial,151,634340,0.0-126.0-0.0,voc_e2,11926,"[{""event"":""fullscreenenter"",""trial"":1,""time"":1356}]",NA,NA,NA,NA,NA,5,#D89F1C,#3386FF,10,0,1,40,0,468.5,37,1,315.1000000089407,10,1,experiment,NA,NA,0,0.9,0.1,0,1,117,3,NA
fcp-trial,152,637072,0.0-127.0-0.0,voc_e2,11926,"[{""event"":""fullscreenenter"",""trial"":1,""time"":1356}]",NA,NA,NA,NA,NA,2,#1CD855,#FA92F8,0,0,1,38,1,683.0999999940395,37,1,545.7000000029802,0,1,experiment,NA,NA,2,0.5,0.5,4,5,118,3,NA
fcp-trial,153,639881,0.0-128.0-0.0,voc_e2,11926,"[{""event"":""fullscreenenter"",""trial"":1,""time"":1356}]",NA,NA,NA,NA,NA,6,#741CD8,#D8271C,0,10,0,40,0,963.6000000089407,39,0,343.40000000596046,10,1,experiment,NA,NA,1,0.3,0.7,3,2,119,3,NA
fcp-trial,154,642497,0.0-129.0-0.0,voc_e2,11926,"[{""event"":""fullscreenenter"",""trial"":1,""time"":1356}]",NA,NA,NA,NA,NA,0,#741CD8,#D8271C,10,10,0,38,1,840.6000000089407,39,0,272.6000000089407,10,1,experiment,NA,NA,1,0.3,0.7,3,2,120,3,NA
fcp-trial,155,645444,0.0-130.0-0.0,voc_e2,11926,"[{""event"":""fullscreenenter"",""trial"":1,""time"":1356}]",NA,NA,NA,NA,NA,0,#3386FF,#D89F1C,10,0,0,38,1,1158.9000000059605,39,0,285,0,1,experiment,NA,NA,0,0.1,0.9,1,0,121,3,NA
fcp-trial,156,648234,0.0-131.0-0.0,voc_e2,11926,"[{""event"":""fullscreenenter"",""trial"":1,""time"":1356}]",NA,NA,NA,NA,NA,0,#FA92F8,#1CD855,10,0,0,40,0,773.7999999970198,39,0,512.9000000059605,0,1,experiment,NA,NA,2,0.5,0.5,5,4,122,3,NA
fcp-trial,157,650920,0.0-132.0-0.0,voc_e2,11926,"[{""event"":""fullscreenenter"",""trial"":1,""time"":1356}]",NA,NA,NA,NA,NA,3,#D8271C,#741CD8,10,0,1,40,0,820.7000000029802,37,1,362.29999999701977,10,1,experiment,NA,NA,1,0.7,0.3,2,3,123,3,NA
fcp-trial,158,653459,0.0-133.0-0.0,voc_e2,11926,"[{""event"":""fullscreenenter"",""trial"":1,""time"":1356}]",NA,NA,NA,NA,NA,1,#3386FF,#D89F1C,0,10,0,38,1,759.7000000029802,39,0,277.6000000089407,10,1,experiment,NA,NA,0,0.1,0.9,1,0,124,3,NA
fcp-trial,159,655931,0.0-134.0-0.0,voc_e2,11926,"[{""event"":""fullscreenenter"",""trial"":1,""time"":1356}]",NA,NA,NA,NA,NA,4,#1CD855,#FA92F8,0,10,1,40,0,635.0999999940395,39,0,333.5,10,0,experiment,NA,NA,2,0.5,0.5,4,5,125,3,NA
fcp-trial,160,658636,0.0-135.0-0.0,voc_e2,11926,"[{""event"":""fullscreenenter"",""trial"":1,""time"":1356}]",NA,NA,NA,NA,NA,3,#D89F1C,#3386FF,10,0,1,38,1,900.8000000119209,37,1,301.70000000298023,10,1,experiment,NA,NA,0,0.9,0.1,0,1,126,3,NA
fcp-trial,161,661179,0.0-136.0-0.0,voc_e2,11926,"[{""event"":""fullscreenenter"",""trial"":1,""time"":1356}]",NA,NA,NA,NA,NA,0,#D8271C,#741CD8,10,0,1,38,1,778.7000000029802,37,1,260.40000000596046,10,1,experiment,NA,NA,1,0.7,0.3,2,3,127,3,NA
fcp-trial,162,663554,0.0-137.0-0.0,voc_e2,11926,"[{""event"":""fullscreenenter"",""trial"":1,""time"":1356}]",NA,NA,NA,NA,NA,6,#741CD8,#D8271C,10,10,0,40,0,597.7999999970198,39,0,275.70000000298023,10,1,experiment,NA,NA,1,0.3,0.7,3,2,128,3,NA
fcp-trial,163,665918,0.0-138.0-0.0,voc_e2,11926,"[{""event"":""fullscreenenter"",""trial"":1,""time"":1356}]",NA,NA,NA,NA,NA,0,#D89F1C,#3386FF,10,0,1,38,1,559.2999999970198,37,1,301.29999999701977,10,1,experiment,NA,NA,0,0.9,0.1,0,1,129,3,NA
fcp-trial,164,668437,0.0-139.0-0.0,voc_e2,11926,"[{""event"":""fullscreenenter"",""trial"":1,""time"":1356}]",NA,NA,NA,NA,NA,5,#D89F1C,#3386FF,10,0,1,40,0,588.7000000029802,39,0,428.59999999403954,0,0,experiment,NA,NA,0,0.9,0.1,0,1,130,3,NA
fcp-trial,165,670872,0.0-140.0-0.0,voc_e2,11926,"[{""event"":""fullscreenenter"",""trial"":1,""time"":1356}]",NA,NA,NA,NA,NA,1,#D89F1C,#3386FF,10,0,1,38,1,623.3999999910593,37,1,309,10,1,experiment,NA,NA,0,0.9,0.1,0,1,131,3,NA
fcp-trial,166,673424,0.0-141.0-0.0,voc_e2,11926,"[{""event"":""fullscreenenter"",""trial"":1,""time"":1356}]",NA,NA,NA,NA,NA,5,#FA92F8,#1CD855,10,10,0,40,0,720.4000000059605,39,0,328.20000000298023,10,1,experiment,NA,NA,2,0.5,0.5,5,4,132,3,NA
fcp-trial,167,675770,0.0-142.0-0.0,voc_e2,11926,"[{""event"":""fullscreenenter"",""trial"":1,""time"":1356}]",NA,NA,NA,NA,NA,5,#741CD8,#D8271C,0,10,0,40,0,473.70000000298023,39,0,370,10,1,experiment,NA,NA,1,0.3,0.7,3,2,133,3,NA
fcp-trial,168,678274,0.0-143.0-0.0,voc_e2,11926,"[{""event"":""fullscreenenter"",""trial"":1,""time"":1356}]",NA,NA,NA,NA,NA,1,#FA92F8,#1CD855,10,10,0,38,1,606.0999999940395,37,1,395.6000000089407,10,0,experiment,NA,NA,2,0.5,0.5,5,4,134,3,NA
fcp-trial,169,680909,0.0-144.0-0.0,voc_e2,11926,"[{""event"":""fullscreenenter"",""trial"":1,""time"":1356}]",NA,NA,NA,NA,NA,3,#3386FF,#D89F1C,0,10,0,40,0,664.3000000119209,37,1,467.90000000596046,0,0,experiment,NA,NA,0,0.1,0.9,1,0,135,3,NA
fcp-trial,170,683379,0.0-145.0-0.0,voc_e2,11926,"[{""event"":""fullscreenenter"",""trial"":1,""time"":1356}]",NA,NA,NA,NA,NA,3,#1CD855,#FA92F8,0,10,1,40,0,606.6000000089407,39,0,359.29999999701977,10,0,experiment,NA,NA,2,0.5,0.5,4,5,136,4,NA
fcp-trial,171,685923,0.0-146.0-0.0,voc_e2,11926,"[{""event"":""fullscreenenter"",""trial"":1,""time"":1356}]",NA,NA,NA,NA,NA,1,#741CD8,#D8271C,0,0,0,38,1,709.4000000059605,39,0,332.90000000596046,0,1,experiment,NA,NA,1,0.3,0.7,3,2,137,4,NA
fcp-trial,172,688784,0.0-147.0-0.0,voc_e2,11926,"[{""event"":""fullscreenenter"",""trial"":1,""time"":1356}]",NA,NA,NA,NA,NA,0,#1CD855,#FA92F8,10,10,1,40,0,740.9000000059605,39,0,617.4000000059605,10,0,experiment,NA,NA,2,0.5,0.5,4,5,138,4,NA
fcp-trial,173,691064,0.0-148.0-0.0,voc_e2,11926,"[{""event"":""fullscreenenter"",""trial"":1,""time"":1356}]",NA,NA,NA,NA,NA,4,#D89F1C,#3386FF,10,0,1,40,0,500.90000000596046,37,1,276.90000000596046,10,1,experiment,NA,NA,0,0.9,0.1,0,1,139,4,NA
fcp-trial,174,693375,0.0-149.0-0.0,voc_e2,11926,"[{""event"":""fullscreenenter"",""trial"":1,""time"":1356}]",NA,NA,NA,NA,NA,2,#1CD855,#FA92F8,0,10,1,40,0,499.69999998807907,37,1,307.90000000596046,0,1,experiment,NA,NA,2,0.5,0.5,4,5,140,4,NA
fcp-trial,175,695817,0.0-150.0-0.0,voc_e2,11926,"[{""event"":""fullscreenenter"",""trial"":1,""time"":1356}]",NA,NA,NA,NA,NA,2,#741CD8,#D8271C,0,10,0,38,1,662.1999999880791,39,0,276.29999999701977,10,1,experiment,NA,NA,1,0.3,0.7,3,2,141,4,NA
fcp-trial,176,698109,0.0-151.0-0.0,voc_e2,11926,"[{""event"":""fullscreenenter"",""trial"":1,""time"":1356}]",NA,NA,NA,NA,NA,4,#FA92F8,#1CD855,0,0,0,40,0,487.29999999701977,39,0,301.6000000089407,0,1,experiment,NA,NA,2,0.5,0.5,5,4,142,4,NA
fcp-trial,177,700598,0.0-152.0-0.0,voc_e2,11926,"[{""event"":""fullscreenenter"",""trial"":1,""time"":1356}]",NA,NA,NA,NA,NA,4,#D8271C,#741CD8,10,0,1,40,0,617.0999999940395,39,0,369.20000000298023,0,0,experiment,NA,NA,1,0.7,0.3,2,3,143,4,NA
fcp-trial,178,702968,0.0-153.0-0.0,voc_e2,11926,"[{""event"":""fullscreenenter"",""trial"":1,""time"":1356}]",NA,NA,NA,NA,NA,6,#3386FF,#D89F1C,0,10,0,40,0,537.2999999970198,39,0,329.5,10,1,experiment,NA,NA,0,0.1,0.9,1,0,144,4,NA
fcp-trial,179,705499,0.0-154.0-0.0,voc_e2,11926,"[{""event"":""fullscreenenter"",""trial"":1,""time"":1356}]",NA,NA,NA,NA,NA,3,#741CD8,#D8271C,0,10,0,38,1,753.2000000029802,39,0,274.70000000298023,10,1,experiment,NA,NA,1,0.3,0.7,3,2,145,4,NA
fcp-trial,180,707834,0.0-155.0-0.0,voc_e2,11926,"[{""event"":""fullscreenenter"",""trial"":1,""time"":1356}]",NA,NA,NA,NA,NA,6,#FA92F8,#1CD855,10,10,0,40,0,503.29999999701977,39,0,329.90000000596046,10,1,experiment,NA,NA,2,0.5,0.5,5,4,146,4,NA
fcp-trial,181,710399,0.0-156.0-0.0,voc_e2,11926,"[{""event"":""fullscreenenter"",""trial"":1,""time"":1356}]",NA,NA,NA,NA,NA,2,#D89F1C,#3386FF,10,10,1,40,0,755.7999999970198,37,1,306.59999999403954,10,1,experiment,NA,NA,0,0.9,0.1,0,1,147,4,NA
fcp-trial,182,712932,0.0-157.0-0.0,voc_e2,11926,"[{""event"":""fullscreenenter"",""trial"":1,""time"":1356}]",NA,NA,NA,NA,NA,2,#3386FF,#D89F1C,0,0,0,40,0,641.2999999970198,39,0,388.1000000089407,0,1,experiment,NA,NA,0,0.1,0.9,1,0,148,4,NA
fcp-trial,183,715319,0.0-158.0-0.0,voc_e2,11926,"[{""event"":""fullscreenenter"",""trial"":1,""time"":1356}]",NA,NA,NA,NA,NA,3,#D89F1C,#3386FF,0,0,1,40,0,456.90000000596046,39,0,427.79999999701977,0,0,experiment,NA,NA,0,0.9,0.1,0,1,149,4,NA
fcp-trial,184,717850,0.0-159.0-0.0,voc_e2,11926,"[{""event"":""fullscreenenter"",""trial"":1,""time"":1356}]",NA,NA,NA,NA,NA,1,#FA92F8,#1CD855,10,0,0,40,0,736.0999999940395,39,0,291.80000001192093,0,1,experiment,NA,NA,2,0.5,0.5,5,4,150,4,NA
fcp-trial,185,720830,0.0-160.0-0.0,voc_e2,11926,"[{""event"":""fullscreenenter"",""trial"":1,""time"":1356}]",NA,NA,NA,NA,NA,0,#FA92F8,#1CD855,10,0,0,40,0,1195.2999999970198,39,0,282.5,0,1,experiment,NA,NA,2,0.5,0.5,5,4,151,4,NA
fcp-trial,186,723335,0.0-161.0-0.0,voc_e2,11926,"[{""event"":""fullscreenenter"",""trial"":1,""time"":1356}]",NA,NA,NA,NA,NA,5,#741CD8,#D8271C,10,10,0,40,0,703.9000000059605,39,0,297,10,1,experiment,NA,NA,1,0.3,0.7,3,2,152,4,NA
fcp-trial,187,725925,0.0-162.0-0.0,voc_e2,11926,"[{""event"":""fullscreenenter"",""trial"":1,""time"":1356}]",NA,NA,NA,NA,NA,2,#FA92F8,#1CD855,0,10,0,40,0,754.7999999970198,39,0,330.90000000596046,10,1,experiment,NA,NA,2,0.5,0.5,5,4,153,4,NA
fcp-trial,188,728286,0.0-163.0-0.0,voc_e2,11926,"[{""event"":""fullscreenenter"",""trial"":1,""time"":1356}]",NA,NA,NA,NA,NA,5,#3386FF,#D89F1C,0,10,0,38,1,562.5,39,0,296.5,10,1,experiment,NA,NA,0,0.1,0.9,1,0,154,4,NA
fcp-trial,189,730908,0.0-164.0-0.0,voc_e2,11926,"[{""event"":""fullscreenenter"",""trial"":1,""time"":1356}]",NA,NA,NA,NA,NA,3,#741CD8,#D8271C,0,10,0,40,0,754.3000000119209,39,0,365.5,10,1,experiment,NA,NA,1,0.3,0.7,3,2,155,4,NA
fcp-trial,190,733486,0.0-165.0-0.0,voc_e2,11926,"[{""event"":""fullscreenenter"",""trial"":1,""time"":1356}]",NA,NA,NA,NA,NA,0,#D8271C,#741CD8,0,0,1,40,0,710.6000000089407,37,1,363.8999999910593,0,1,experiment,NA,NA,1,0.7,0.3,2,3,156,4,NA
fcp-trial,191,735896,0.0-166.0-0.0,voc_e2,11926,"[{""event"":""fullscreenenter"",""trial"":1,""time"":1356}]",NA,NA,NA,NA,NA,3,#FA92F8,#1CD855,0,10,0,40,0,595.6000000089407,37,1,312.29999999701977,0,0,experiment,NA,NA,2,0.5,0.5,5,4,157,4,NA
fcp-trial,192,738448,0.0-167.0-0.0,voc_e2,11926,"[{""event"":""fullscreenenter"",""trial"":1,""time"":1356}]",NA,NA,NA,NA,NA,2,#741CD8,#D8271C,10,0,0,40,0,717,37,1,332.09999999403954,10,0,experiment,NA,NA,1,0.3,0.7,3,2,158,4,NA
fcp-trial,193,740854,0.0-168.0-0.0,voc_e2,11926,"[{""event"":""fullscreenenter"",""trial"":1,""time"":1356}]",NA,NA,NA,NA,NA,6,#3386FF,#D89F1C,0,10,0,40,0,529.9000000059605,37,1,373.5,0,0,experiment,NA,NA,0,0.1,0.9,1,0,159,4,NA
fcp-trial,194,743278,0.0-169.0-0.0,voc_e2,11926,"[{""event"":""fullscreenenter"",""trial"":1,""time"":1356}]",NA,NA,NA,NA,NA,4,#1CD855,#FA92F8,0,10,1,40,0,571,37,1,350.20000000298023,0,1,experiment,NA,NA,2,0.5,0.5,4,5,160,4,NA
fcp-trial,195,746416,0.0-170.0-0.0,voc_e2,11926,"[{""event"":""fullscreenenter"",""trial"":1,""time"":1356}]",NA,NA,NA,NA,NA,1,#D89F1C,#3386FF,10,0,1,40,0,1284.5999999940395,39,0,349.59999999403954,0,0,experiment,NA,NA,0,0.9,0.1,0,1,161,4,NA
fcp-trial,196,749026,0.0-171.0-0.0,voc_e2,11926,"[{""event"":""fullscreenenter"",""trial"":1,""time"":1356}]",NA,NA,NA,NA,NA,5,#FA92F8,#1CD855,0,0,0,40,0,805.3000000119209,37,1,302.30000001192093,0,0,experiment,NA,NA,2,0.5,0.5,5,4,162,4,NA
fcp-trial,197,751430,0.0-172.0-0.0,voc_e2,11926,"[{""event"":""fullscreenenter"",""trial"":1,""time"":1356}]",NA,NA,NA,NA,NA,6,#D8271C,#741CD8,10,0,1,40,0,587.7999999970198,37,1,311.70000000298023,10,1,experiment,NA,NA,1,0.7,0.3,2,3,163,4,NA
fcp-trial,198,753902,0.0-173.0-0.0,voc_e2,11926,"[{""event"":""fullscreenenter"",""trial"":1,""time"":1356}]",NA,NA,NA,NA,NA,1,#D8271C,#741CD8,10,0,1,38,1,687.2000000029802,37,1,278.70000000298023,10,1,experiment,NA,NA,1,0.7,0.3,2,3,164,4,NA
fcp-trial,199,756305,0.0-174.0-0.0,voc_e2,11926,"[{""event"":""fullscreenenter"",""trial"":1,""time"":1356}]",NA,NA,NA,NA,NA,0,#D89F1C,#3386FF,10,0,1,38,1,644.2000000029802,37,1,255.19999998807907,10,1,experiment,NA,NA,0,0.9,0.1,0,1,165,4,NA
fcp-trial,200,758837,0.0-175.0-0.0,voc_e2,11926,"[{""event"":""fullscreenenter"",""trial"":1,""time"":1356}]",NA,NA,NA,NA,NA,4,#D8271C,#741CD8,10,0,1,40,0,685.1000000089407,37,1,344.59999999403954,10,1,experiment,NA,NA,1,0.7,0.3,2,3,166,4,NA
fcp-trial,201,761183,0.0-176.0-0.0,voc_e2,11926,"[{""event"":""fullscreenenter"",""trial"":1,""time"":1356}]",NA,NA,NA,NA,NA,6,#FA92F8,#1CD855,0,0,0,40,0,526.7999999970198,37,1,316.1000000089407,0,0,experiment,NA,NA,2,0.5,0.5,5,4,167,4,NA
fcp-trial,202,763600,0.0-177.0-0.0,voc_e2,11926,"[{""event"":""fullscreenenter"",""trial"":1,""time"":1356}]",NA,NA,NA,NA,NA,4,#3386FF,#D89F1C,10,10,0,40,0,489.8999999910593,37,1,424.20000000298023,10,0,experiment,NA,NA,0,0.1,0.9,1,0,168,4,NA
fcp-trial,203,765866,0.0-178.0-0.0,voc_e2,11926,"[{""event"":""fullscreenenter"",""trial"":1,""time"":1356}]",NA,NA,NA,NA,NA,6,#D8271C,#741CD8,10,0,1,40,0,493.1000000089407,37,1,270.5,10,1,experiment,NA,NA,1,0.7,0.3,2,3,169,4,NA
fcp-trial,204,768339,0.0-179.0-0.0,voc_e2,11926,"[{""event"":""fullscreenenter"",""trial"":1,""time"":1356}]",NA,NA,NA,NA,NA,3,#FA92F8,#1CD855,0,0,0,40,0,647.2000000029802,37,1,322.8999999910593,0,0,experiment,NA,NA,2,0.5,0.5,5,4,170,4,NA
fcp-trial,205,770556,0.0-180.0-0.0,voc_e2,11926,"[{""event"":""fullscreenenter"",""trial"":1,""time"":1356}]",NA,NA,NA,NA,NA,5,#3386FF,#D89F1C,0,10,0,40,0,407.40000000596046,39,0,307.09999999403954,10,1,experiment,NA,NA,0,0.1,0.9,1,0,171,4,NA
fcp-trial,206,772857,0.0-181.0-0.0,voc_e2,11926,"[{""event"":""fullscreenenter"",""trial"":1,""time"":1356}]",NA,NA,NA,NA,NA,2,#741CD8,#D8271C,10,10,0,40,0,448.40000000596046,39,0,349.59999999403954,10,1,experiment,NA,NA,1,0.3,0.7,3,2,172,4,NA
fcp-trial,207,775038,0.0-182.0-0.0,voc_e2,11926,"[{""event"":""fullscreenenter"",""trial"":1,""time"":1356}]",NA,NA,NA,NA,NA,2,#FA92F8,#1CD855,0,0,0,40,0,377.5,37,1,300.29999999701977,0,0,experiment,NA,NA,2,0.5,0.5,5,4,173,4,NA
fcp-trial,208,777624,0.0-183.0-0.0,voc_e2,11926,"[{""event"":""fullscreenenter"",""trial"":1,""time"":1356}]",NA,NA,NA,NA,NA,2,#D89F1C,#3386FF,10,0,1,38,1,793,37,1,289.69999998807907,10,1,experiment,NA,NA,0,0.9,0.1,0,1,174,4,NA
fcp-trial,209,780072,0.0-184.0-0.0,voc_e2,11926,"[{""event"":""fullscreenenter"",""trial"":1,""time"":1356}]",NA,NA,NA,NA,NA,4,#D8271C,#741CD8,0,0,1,40,0,549.3999999910593,39,0,396.90000000596046,0,0,experiment,NA,NA,1,0.7,0.3,2,3,175,4,NA
fcp-trial,210,782682,0.0-185.0-0.0,voc_e2,11926,"[{""event"":""fullscreenenter"",""trial"":1,""time"":1356}]",NA,NA,NA,NA,NA,0,#741CD8,#D8271C,0,10,0,38,1,770,39,0,337.19999998807907,10,1,experiment,NA,NA,1,0.3,0.7,3,2,176,4,NA
fcp-trial,211,785216,0.0-186.0-0.0,voc_e2,11926,"[{""event"":""fullscreenenter"",""trial"":1,""time"":1356}]",NA,NA,NA,NA,NA,1,#D89F1C,#3386FF,10,0,1,38,1,748,37,1,283.70000000298023,10,1,experiment,NA,NA,0,0.9,0.1,0,1,177,4,NA
fcp-trial,212,787743,0.0-187.0-0.0,voc_e2,11926,"[{""event"":""fullscreenenter"",""trial"":1,""time"":1356}]",NA,NA,NA,NA,NA,5,#FA92F8,#1CD855,10,10,0,38,1,625.8999999910593,39,0,398.40000000596046,10,1,experiment,NA,NA,2,0.5,0.5,5,4,178,4,NA
fcp-trial,213,790285,0.0-188.0-0.0,voc_e2,11926,"[{""event"":""fullscreenenter"",""trial"":1,""time"":1356}]",NA,NA,NA,NA,NA,4,#1CD855,#FA92F8,10,0,1,40,0,595.8999999910593,39,0,443.79999999701977,0,0,experiment,NA,NA,2,0.5,0.5,4,5,179,4,NA
fcp-trial,214,792765,0.0-189.0-0.0,voc_e2,11926,"[{""event"":""fullscreenenter"",""trial"":1,""time"":1356}]",NA,NA,NA,NA,NA,1,#741CD8,#D8271C,10,10,0,38,1,666.5999999940395,39,0,310.5,10,1,experiment,NA,NA,1,0.3,0.7,3,2,180,4,NA
fcp-trial,215,795409,0.0-190.0-0.0,voc_e2,11926,"[{""event"":""fullscreenenter"",""trial"":1,""time"":1356}]",NA,NA,NA,NA,NA,3,#3386FF,#D89F1C,0,10,0,38,1,778.7999999970198,39,0,362.3999999910593,10,1,experiment,NA,NA,0,0.1,0.9,1,0,181,5,NA
fcp-trial,216,797830,0.0-191.0-0.0,voc_e2,11926,"[{""event"":""fullscreenenter"",""trial"":1,""time"":1356}]",NA,NA,NA,NA,NA,5,#D8271C,#741CD8,10,0,1,40,0,476,39,0,442.5,0,0,experiment,NA,NA,1,0.7,0.3,2,3,182,5,NA
fcp-trial,217,800360,0.0-192.0-0.0,voc_e2,11926,"[{""event"":""fullscreenenter"",""trial"":1,""time"":1356}]",NA,NA,NA,NA,NA,6,#1CD855,#FA92F8,0,0,1,40,0,676.7999999970198,37,1,349.90000000596046,0,1,experiment,NA,NA,2,0.5,0.5,4,5,183,5,NA
fcp-trial,218,802843,0.0-193.0-0.0,voc_e2,11926,"[{""event"":""fullscreenenter"",""trial"":1,""time"":1356}]",NA,NA,NA,NA,NA,6,#D89F1C,#3386FF,10,0,1,40,0,656.5,37,1,323.80000001192093,10,1,experiment,NA,NA,0,0.9,0.1,0,1,184,5,NA
fcp-trial,219,805458,0.0-194.0-0.0,voc_e2,11926,"[{""event"":""fullscreenenter"",""trial"":1,""time"":1356}]",NA,NA,NA,NA,NA,0,#D89F1C,#3386FF,10,0,1,38,1,820.1000000089407,37,1,291.90000000596046,10,1,experiment,NA,NA,0,0.9,0.1,0,1,185,5,NA
fcp-trial,220,807853,0.0-195.0-0.0,voc_e2,11926,"[{""event"":""fullscreenenter"",""trial"":1,""time"":1356}]",NA,NA,NA,NA,NA,4,#D89F1C,#3386FF,10,0,1,40,0,576.6000000089407,37,1,315,10,1,experiment,NA,NA,0,0.9,0.1,0,1,186,5,NA
fcp-trial,221,810479,0.0-196.0-0.0,voc_e2,11926,"[{""event"":""fullscreenenter"",""trial"":1,""time"":1356}]",NA,NA,NA,NA,NA,3,#D8271C,#741CD8,0,0,1,40,0,618.4000000059605,39,0,505.29999999701977,0,0,experiment,NA,NA,1,0.7,0.3,2,3,187,5,NA
fcp-trial,222,813126,0.0-197.0-0.0,voc_e2,11926,"[{""event"":""fullscreenenter"",""trial"":1,""time"":1356}]",NA,NA,NA,NA,NA,1,#1CD855,#FA92F8,0,0,1,38,1,574.0999999940395,37,1,570.5999999940395,0,1,experiment,NA,NA,2,0.5,0.5,4,5,188,5,NA
fcp-trial,223,815749,0.0-198.0-0.0,voc_e2,11926,"[{""event"":""fullscreenenter"",""trial"":1,""time"":1356}]",NA,NA,NA,NA,NA,0,#1CD855,#FA92F8,0,0,1,38,1,719.9000000059605,37,1,400.59999999403954,0,1,experiment,NA,NA,2,0.5,0.5,4,5,189,5,NA
fcp-trial,224,818207,0.0-199.0-0.0,voc_e2,11926,"[{""event"":""fullscreenenter"",""trial"":1,""time"":1356}]",NA,NA,NA,NA,NA,4,#D89F1C,#3386FF,0,10,1,40,0,641.1000000089407,37,1,314.20000000298023,0,1,experiment,NA,NA,0,0.9,0.1,0,1,190,5,NA
fcp-trial,225,820644,0.0-200.0-0.0,voc_e2,11926,"[{""event"":""fullscreenenter"",""trial"":1,""time"":1356}]",NA,NA,NA,NA,NA,5,#1CD855,#FA92F8,0,0,1,40,0,570.3000000119209,37,1,363.90000000596046,0,1,experiment,NA,NA,2,0.5,0.5,4,5,191,5,NA
fcp-trial,226,823523,0.0-201.0-0.0,voc_e2,11926,"[{""event"":""fullscreenenter"",""trial"":1,""time"":1356}]",NA,NA,NA,NA,NA,0,#D89F1C,#3386FF,10,0,1,38,1,1063.800000011921,37,1,312.29999999701977,10,1,experiment,NA,NA,0,0.9,0.1,0,1,192,5,NA
fcp-trial,227,826000,0.0-202.0-0.0,voc_e2,11926,"[{""event"":""fullscreenenter"",""trial"":1,""time"":1356}]",NA,NA,NA,NA,NA,5,#D89F1C,#3386FF,10,0,1,40,0,534,39,0,440,0,0,experiment,NA,NA,0,0.9,0.1,0,1,193,5,NA
fcp-trial,228,828674,0.0-203.0-0.0,voc_e2,11926,"[{""event"":""fullscreenenter"",""trial"":1,""time"":1356}]",NA,NA,NA,NA,NA,6,#D8271C,#741CD8,10,0,1,40,0,605,39,0,566.2000000029802,0,0,experiment,NA,NA,1,0.7,0.3,2,3,194,5,NA
fcp-trial,229,833388,0.0-204.0-0.0,voc_e2,11926,"[{""event"":""fullscreenenter"",""trial"":1,""time"":1356}]",NA,NA,NA,NA,NA,3,#D89F1C,#3386FF,10,0,1,40,0,2771.1000000089407,39,0,440.29999999701977,0,0,experiment,NA,NA,0,0.9,0.1,0,1,195,5,NA
fcp-trial,230,835838,0.0-205.0-0.0,voc_e2,11926,"[{""event"":""fullscreenenter"",""trial"":1,""time"":1356}]",NA,NA,NA,NA,NA,6,#FA92F8,#1CD855,0,10,0,40,0,668.2999999970198,39,0,280.09999999403954,10,1,experiment,NA,NA,2,0.5,0.5,5,4,196,5,NA
fcp-trial,231,838264,0.0-206.0-0.0,voc_e2,11926,"[{""event"":""fullscreenenter"",""trial"":1,""time"":1356}]",NA,NA,NA,NA,NA,2,#D8271C,#741CD8,0,0,1,38,1,655.5,37,1,267.09999999403954,0,1,experiment,NA,NA,1,0.7,0.3,2,3,197,5,NA
fcp-trial,232,840809,0.0-207.0-0.0,voc_e2,11926,"[{""event"":""fullscreenenter"",""trial"":1,""time"":1356}]",NA,NA,NA,NA,NA,3,#D8271C,#741CD8,0,0,1,40,0,589.7999999970198,37,1,452.5,0,1,experiment,NA,NA,1,0.7,0.3,2,3,198,5,NA
fcp-trial,233,843343,0.0-208.0-0.0,voc_e2,11926,"[{""event"":""fullscreenenter"",""trial"":1,""time"":1356}]",NA,NA,NA,NA,NA,1,#D89F1C,#3386FF,10,0,1,38,1,735.4000000059605,37,1,295.20000000298023,10,1,experiment,NA,NA,0,0.9,0.1,0,1,199,5,NA
fcp-trial,234,845979,0.0-209.0-0.0,voc_e2,11926,"[{""event"":""fullscreenenter"",""trial"":1,""time"":1356}]",NA,NA,NA,NA,NA,1,#1CD855,#FA92F8,10,0,1,38,1,789.8999999910593,37,1,343.29999999701977,10,1,experiment,NA,NA,2,0.5,0.5,4,5,200,5,NA
fcp-trial,235,848807,0.0-210.0-0.0,voc_e2,11926,"[{""event"":""fullscreenenter"",""trial"":1,""time"":1356}]",NA,NA,NA,NA,NA,0,#1CD855,#FA92F8,0,10,1,40,0,1011.7000000029802,37,1,313.1000000089407,0,1,experiment,NA,NA,2,0.5,0.5,4,5,201,5,NA
fcp-trial,236,851415,0.0-211.0-0.0,voc_e2,11926,"[{""event"":""fullscreenenter"",""trial"":1,""time"":1356}]",NA,NA,NA,NA,NA,2,#D89F1C,#3386FF,10,0,1,38,1,813.4000000059605,37,1,292.09999999403954,10,1,experiment,NA,NA,0,0.9,0.1,0,1,202,5,NA
fcp-trial,237,853857,0.0-212.0-0.0,voc_e2,11926,"[{""event"":""fullscreenenter"",""trial"":1,""time"":1356}]",NA,NA,NA,NA,NA,5,#D8271C,#741CD8,10,0,1,40,0,564.2000000029802,39,0,374.1000000089407,0,0,experiment,NA,NA,1,0.7,0.3,2,3,203,5,NA
fcp-trial,238,856478,0.0-213.0-0.0,voc_e2,11926,"[{""event"":""fullscreenenter"",""trial"":1,""time"":1356}]",NA,NA,NA,NA,NA,2,#FA92F8,#1CD855,10,10,0,40,0,791,39,0,328.5,10,1,experiment,NA,NA,2,0.5,0.5,5,4,204,5,NA
fcp-trial,239,859025,0.0-214.0-0.0,voc_e2,11926,"[{""event"":""fullscreenenter"",""trial"":1,""time"":1356}]",NA,NA,NA,NA,NA,4,#FA92F8,#1CD855,10,0,0,40,0,765.2999999970198,39,0,278.5,0,1,experiment,NA,NA,2,0.5,0.5,5,4,205,5,NA
fcp-trial,240,861351,0.0-215.0-0.0,voc_e2,11926,"[{""event"":""fullscreenenter"",""trial"":1,""time"":1356}]",NA,NA,NA,NA,NA,6,#3386FF,#D89F1C,0,10,0,40,0,519.2999999970198,39,0,303.09999999403954,10,1,experiment,NA,NA,0,0.1,0.9,1,0,206,5,NA
fcp-trial,241,863881,0.0-216.0-0.0,voc_e2,11926,"[{""event"":""fullscreenenter"",""trial"":1,""time"":1356}]",NA,NA,NA,NA,NA,3,#1CD855,#FA92F8,0,0,1,40,0,695.4000000059605,39,0,330.8999999910593,0,0,experiment,NA,NA,2,0.5,0.5,4,5,207,5,NA
fcp-trial,242,866338,0.0-217.0-0.0,voc_e2,11926,"[{""event"":""fullscreenenter"",""trial"":1,""time"":1356}]",NA,NA,NA,NA,NA,0,#D8271C,#741CD8,10,10,1,38,1,687.2999999970198,37,1,266.29999999701977,10,1,experiment,NA,NA,1,0.7,0.3,2,3,208,5,NA
fcp-trial,243,869069,0.0-218.0-0.0,voc_e2,11926,"[{""event"":""fullscreenenter"",""trial"":1,""time"":1356}]",NA,NA,NA,NA,NA,4,#741CD8,#D8271C,0,0,0,40,0,757.0999999940395,37,1,471.70000000298023,0,0,experiment,NA,NA,1,0.3,0.7,3,2,209,5,NA
fcp-trial,244,871576,0.0-219.0-0.0,voc_e2,11926,"[{""event"":""fullscreenenter"",""trial"":1,""time"":1356}]",NA,NA,NA,NA,NA,1,#741CD8,#D8271C,0,0,0,38,1,697.2999999970198,39,0,305.80000001192093,0,1,experiment,NA,NA,1,0.3,0.7,3,2,210,5,NA
audio-instructions,245,907013,0.0-220.0,voc_e2,11926,"[{""event"":""fullscreenenter"",""trial"":1,""time"":1356}]",NA,30948.90000000596,static/audio/pause.wav,NA,0,NA,NA,NA,NA,NA,NA,NA,NA,NA,NA,NA,NA,NA,NA,NA,NA,NA,NA,NA,NA,NA,NA,NA,NA,NA
fcp-trial,246,910017,0.0-221.0-0.0,voc_e2,11926,"[{""event"":""fullscreenenter"",""trial"":1,""time"":1356}]",NA,NA,NA,NA,NA,4,#D8271C,#741CD8,10,0,1,40,0,1070.7000000029802,39,0,427.29999999701977,0,0,experiment,NA,NA,1,0.7,0.3,2,3,211,5,NA
fcp-trial,247,912404,0.0-222.0-0.0,voc_e2,11926,"[{""event"":""fullscreenenter"",""trial"":1,""time"":1356}]",NA,NA,NA,NA,NA,5,#1CD855,#FA92F8,0,0,1,40,0,608.5,37,1,275.79999999701977,0,1,experiment,NA,NA,2,0.5,0.5,4,5,212,5,NA
fcp-trial,248,914938,0.0-223.0-0.0,voc_e2,11926,"[{""event"":""fullscreenenter"",""trial"":1,""time"":1356}]",NA,NA,NA,NA,NA,3,#FA92F8,#1CD855,10,0,0,40,0,741.3000000119209,39,0,290.70000000298023,0,1,experiment,NA,NA,2,0.5,0.5,5,4,213,5,NA
fcp-trial,249,917224,0.0-224.0-0.0,voc_e2,11926,"[{""event"":""fullscreenenter"",""trial"":1,""time"":1356}]",NA,NA,NA,NA,NA,3,#D8271C,#741CD8,10,0,1,38,1,523.6000000089407,37,1,260.5,10,1,experiment,NA,NA,1,0.7,0.3,2,3,214,5,NA
fcp-trial,250,919511,0.0-225.0-0.0,voc_e2,11926,"[{""event"":""fullscreenenter"",""trial"":1,""time"":1356}]",NA,NA,NA,NA,NA,5,#3386FF,#D89F1C,0,10,0,40,0,502.40000000596046,39,0,281.5,10,1,experiment,NA,NA,0,0.1,0.9,1,0,215,5,NA
fcp-trial,251,922035,0.0-226.0-0.0,voc_e2,11926,"[{""event"":""fullscreenenter"",""trial"":1,""time"":1356}]",NA,NA,NA,NA,NA,1,#1CD855,#FA92F8,10,0,1,40,0,726.3999999910593,37,1,294.70000000298023,10,1,experiment,NA,NA,2,0.5,0.5,4,5,216,5,NA
fcp-trial,252,924916,0.0-227.0-0.0,voc_e2,11926,"[{""event"":""fullscreenenter"",""trial"":1,""time"":1356}]",NA,NA,NA,NA,NA,1,#D89F1C,#3386FF,10,0,1,38,1,642.3000000119209,37,1,735.7999999970198,10,1,experiment,NA,NA,0,0.9,0.1,0,1,217,5,NA
fcp-trial,253,927539,0.0-228.0-0.0,voc_e2,11926,"[{""event"":""fullscreenenter"",""trial"":1,""time"":1356}]",NA,NA,NA,NA,NA,6,#D8271C,#741CD8,10,0,1,40,0,802.2999999970198,37,1,318.29999999701977,10,1,experiment,NA,NA,1,0.7,0.3,2,3,218,5,NA
fcp-trial,254,929952,0.0-229.0-0.0,voc_e2,11926,"[{""event"":""fullscreenenter"",""trial"":1,""time"":1356}]",NA,NA,NA,NA,NA,0,#1CD855,#FA92F8,0,0,1,40,0,599.1000000089407,37,1,310.70000000298023,0,1,experiment,NA,NA,2,0.5,0.5,4,5,219,5,NA
fcp-trial,255,932337,0.0-230.0-0.0,voc_e2,11926,"[{""event"":""fullscreenenter"",""trial"":1,""time"":1356}]",NA,NA,NA,NA,NA,4,#3386FF,#D89F1C,10,10,0,38,1,604.0999999940395,39,0,279.09999999403954,10,1,experiment,NA,NA,0,0.1,0.9,1,0,220,5,NA
fcp-trial,256,934752,0.0-231.0-0.0,voc_e2,11926,"[{""event"":""fullscreenenter"",""trial"":1,""time"":1356}]",NA,NA,NA,NA,NA,6,#FA92F8,#1CD855,10,0,0,40,0,563.6000000089407,37,1,348.5,10,0,experiment,NA,NA,2,0.5,0.5,5,4,221,5,NA
fcp-trial,257,937267,0.0-232.0-0.0,voc_e2,11926,"[{""event"":""fullscreenenter"",""trial"":1,""time"":1356}]",NA,NA,NA,NA,NA,2,#FA92F8,#1CD855,10,0,0,40,0,751,39,0,261.70000000298023,0,1,experiment,NA,NA,2,0.5,0.5,5,4,222,5,NA
fcp-trial,258,939523,0.0-233.0-0.0,voc_e2,11926,"[{""event"":""fullscreenenter"",""trial"":1,""time"":1356}]",NA,NA,NA,NA,NA,5,#D8271C,#741CD8,10,0,1,40,0,489.6000000089407,37,1,264.59999999403954,10,1,experiment,NA,NA,1,0.7,0.3,2,3,223,5,NA
fcp-trial,259,942297,0.0-234.0-0.0,voc_e2,11926,"[{""event"":""fullscreenenter"",""trial"":1,""time"":1356}]",NA,NA,NA,NA,NA,0,#741CD8,#D8271C,10,10,0,40,0,787.2000000029802,37,1,483.70000000298023,10,0,experiment,NA,NA,1,0.3,0.7,3,2,224,5,NA
fcp-trial,260,945631,0.0-235.0-0.0,voc_e2,11926,"[{""event"":""fullscreenenter"",""trial"":1,""time"":1356}]",NA,NA,NA,NA,NA,2,#D89F1C,#3386FF,10,0,1,38,1,1087.1000000089407,37,1,743.3999999910593,10,1,experiment,NA,NA,0,0.9,0.1,0,1,225,5,NA
fcp-trial,261,948200,0.0-236.0-0.0,voc_e2,11926,"[{""event"":""fullscreenenter"",""trial"":1,""time"":1356}]",NA,NA,NA,NA,NA,3,#3386FF,#D89F1C,0,10,0,38,1,789.6000000089407,39,0,276.5,10,1,experiment,NA,NA,0,0.1,0.9,1,0,226,6,NA
fcp-trial,262,950716,0.0-237.0-0.0,voc_e2,11926,"[{""event"":""fullscreenenter"",""trial"":1,""time"":1356}]",NA,NA,NA,NA,NA,4,#1CD855,#FA92F8,10,10,1,40,0,589.1999999880791,39,0,424.59999999403954,10,0,experiment,NA,NA,2,0.5,0.5,4,5,227,6,NA
fcp-trial,263,953164,0.0-238.0-0.0,voc_e2,11926,"[{""event"":""fullscreenenter"",""trial"":1,""time"":1356}]",NA,NA,NA,NA,NA,0,#3386FF,#D89F1C,0,10,0,38,1,655.5,39,0,290.29999999701977,10,1,experiment,NA,NA,0,0.1,0.9,1,0,228,6,NA
fcp-trial,264,955713,0.0-239.0-0.0,voc_e2,11926,"[{""event"":""fullscreenenter"",""trial"":1,""time"":1356}]",NA,NA,NA,NA,NA,2,#D8271C,#741CD8,10,0,1,40,0,637.1999999880791,39,0,409.5,0,0,experiment,NA,NA,1,0.7,0.3,2,3,229,6,NA
fcp-trial,265,958398,0.0-240.0-0.0,voc_e2,11926,"[{""event"":""fullscreenenter"",""trial"":1,""time"":1356}]",NA,NA,NA,NA,NA,1,#741CD8,#D8271C,0,0,0,38,1,887.4000000059605,39,0,294.6000000089407,0,1,experiment,NA,NA,1,0.3,0.7,3,2,230,6,NA
fcp-trial,266,960931,0.0-241.0-0.0,voc_e2,11926,"[{""event"":""fullscreenenter"",""trial"":1,""time"":1356}]",NA,NA,NA,NA,NA,6,#D89F1C,#3386FF,10,0,1,40,0,596.2999999970198,39,0,433.79999999701977,0,0,experiment,NA,NA,0,0.9,0.1,0,1,231,6,NA
fcp-trial,267,963541,0.0-242.0-0.0,voc_e2,11926,"[{""event"":""fullscreenenter"",""trial"":1,""time"":1356}]",NA,NA,NA,NA,NA,4,#3386FF,#D89F1C,0,10,0,40,0,708.0999999940395,39,0,395.29999999701977,10,1,experiment,NA,NA,0,0.1,0.9,1,0,232,6,NA
fcp-trial,268,966086,0.0-243.0-0.0,voc_e2,11926,"[{""event"":""fullscreenenter"",""trial"":1,""time"":1356}]",NA,NA,NA,NA,NA,1,#741CD8,#D8271C,0,0,0,38,1,714.3999999910593,39,0,328.40000000596046,0,1,experiment,NA,NA,1,0.3,0.7,3,2,233,6,NA
fcp-trial,269,969094,0.0-244.0-0.0,voc_e2,11926,"[{""event"":""fullscreenenter"",""trial"":1,""time"":1356}]",NA,NA,NA,NA,NA,2,#D8271C,#741CD8,0,10,1,38,1,1157,37,1,348.70000000298023,0,1,experiment,NA,NA,1,0.7,0.3,2,3,234,6,NA
fcp-trial,270,971467,0.0-245.0-0.0,voc_e2,11926,"[{""event"":""fullscreenenter"",""trial"":1,""time"":1356}]",NA,NA,NA,NA,NA,5,#D8271C,#741CD8,10,10,1,40,0,563.4000000059605,37,1,307.5,10,1,experiment,NA,NA,1,0.7,0.3,2,3,235,6,NA
fcp-trial,271,973824,0.0-246.0-0.0,voc_e2,11926,"[{""event"":""fullscreenenter"",""trial"":1,""time"":1356}]",NA,NA,NA,NA,NA,3,#FA92F8,#1CD855,10,0,0,40,0,515.9000000059605,37,1,336.90000000596046,10,0,experiment,NA,NA,2,0.5,0.5,5,4,236,6,NA
fcp-trial,272,976072,0.0-247.0-0.0,voc_e2,11926,"[{""event"":""fullscreenenter"",""trial"":1,""time"":1356}]",NA,NA,NA,NA,NA,5,#D89F1C,#3386FF,10,0,1,40,0,436,37,1,309.6000000089407,10,1,experiment,NA,NA,0,0.9,0.1,0,1,237,6,NA
fcp-trial,273,978504,0.0-248.0-0.0,voc_e2,11926,"[{""event"":""fullscreenenter"",""trial"":1,""time"":1356}]",NA,NA,NA,NA,NA,1,#D89F1C,#3386FF,10,0,1,38,1,640.3000000119209,37,1,289.59999999403954,10,1,experiment,NA,NA,0,0.9,0.1,0,1,238,6,NA
fcp-trial,274,980846,0.0-249.0-0.0,voc_e2,11926,"[{""event"":""fullscreenenter"",""trial"":1,""time"":1356}]",NA,NA,NA,NA,NA,4,#FA92F8,#1CD855,0,10,0,40,0,499.90000000596046,39,0,339.69999998807907,10,1,experiment,NA,NA,2,0.5,0.5,5,4,239,6,NA
fcp-trial,275,983223,0.0-250.0-0.0,voc_e2,11926,"[{""event"":""fullscreenenter"",""trial"":1,""time"":1356}]",NA,NA,NA,NA,NA,4,#D8271C,#741CD8,10,10,1,40,0,436,39,0,438.800000011921,10,0,experiment,NA,NA,1,0.7,0.3,2,3,240,6,NA
fcp-trial,276,985419,0.0-251.0-0.0,voc_e2,11926,"[{""event"":""fullscreenenter"",""trial"":1,""time"":1356}]",NA,NA,NA,NA,NA,5,#FA92F8,#1CD855,10,0,0,40,0,405.40000000596046,37,1,285.6000000089407,10,0,experiment,NA,NA,2,0.5,0.5,5,4,241,6,NA
fcp-trial,277,987752,0.0-252.0-0.0,voc_e2,11926,"[{""event"":""fullscreenenter"",""trial"":1,""time"":1356}]",NA,NA,NA,NA,NA,1,#FA92F8,#1CD855,10,10,0,38,1,500.40000000596046,37,1,329.1000000089407,10,0,experiment,NA,NA,2,0.5,0.5,5,4,242,6,NA
fcp-trial,278,990410,0.0-253.0-0.0,voc_e2,11926,"[{""event"":""fullscreenenter"",""trial"":1,""time"":1356}]",NA,NA,NA,NA,NA,6,#3386FF,#D89F1C,0,10,0,40,0,834.4000000059605,37,1,319.79999999701977,0,0,experiment,NA,NA,0,0.1,0.9,1,0,243,6,NA
fcp-trial,279,992922,0.0-254.0-0.0,voc_e2,11926,"[{""event"":""fullscreenenter"",""trial"":1,""time"":1356}]",NA,NA,NA,NA,NA,6,#741CD8,#D8271C,0,10,0,40,0,657.2999999970198,37,1,351.90000000596046,0,0,experiment,NA,NA,1,0.3,0.7,3,2,244,6,NA
fcp-trial,280,995505,0.0-255.0-0.0,voc_e2,11926,"[{""event"":""fullscreenenter"",""trial"":1,""time"":1356}]",NA,NA,NA,NA,NA,0,#3386FF,#D89F1C,0,10,0,38,1,738,39,0,341.6000000089407,10,1,experiment,NA,NA,0,0.1,0.9,1,0,245,6,NA
fcp-trial,281,998083,0.0-256.0-0.0,voc_e2,11926,"[{""event"":""fullscreenenter"",""trial"":1,""time"":1356}]",NA,NA,NA,NA,NA,6,#FA92F8,#1CD855,0,10,0,40,0,775.4000000059605,37,1,300.5,0,0,experiment,NA,NA,2,0.5,0.5,5,4,246,6,NA
fcp-trial,282,1000448,0.0-257.0-0.0,voc_e2,11926,"[{""event"":""fullscreenenter"",""trial"":1,""time"":1356}]",NA,NA,NA,NA,NA,0,#741CD8,#D8271C,10,0,0,38,1,569.5999999940395,39,0,292.40000000596046,0,1,experiment,NA,NA,1,0.3,0.7,3,2,247,6,NA
fcp-trial,283,1003314,0.0-258.0-0.0,voc_e2,11926,"[{""event"":""fullscreenenter"",""trial"":1,""time"":1356}]",NA,NA,NA,NA,NA,3,#D89F1C,#3386FF,10,0,1,38,1,779.5,37,1,584.4000000059605,10,1,experiment,NA,NA,0,0.9,0.1,0,1,248,6,NA
fcp-trial,284,1005736,0.0-259.0-0.0,voc_e2,11926,"[{""event"":""fullscreenenter"",""trial"":1,""time"":1356}]",NA,NA,NA,NA,NA,0,#FA92F8,#1CD855,10,10,0,40,0,629.3999999910593,37,1,289.5,10,0,experiment,NA,NA,2,0.5,0.5,5,4,249,6,NA
fcp-trial,285,1008144,0.0-260.0-0.0,voc_e2,11926,"[{""event"":""fullscreenenter"",""trial"":1,""time"":1356}]",NA,NA,NA,NA,NA,2,#1CD855,#FA92F8,10,10,1,40,0,598.2999999970198,37,1,307.3999999910593,10,1,experiment,NA,NA,2,0.5,0.5,4,5,250,6,NA
fcp-trial,286,1010635,0.0-261.0-0.0,voc_e2,11926,"[{""event"":""fullscreenenter"",""trial"":1,""time"":1356}]",NA,NA,NA,NA,NA,3,#D8271C,#741CD8,0,10,1,38,1,641.6999999880791,37,1,347.19999998807907,0,1,experiment,NA,NA,1,0.7,0.3,2,3,251,6,NA
fcp-trial,287,1013146,0.0-262.0-0.0,voc_e2,11926,"[{""event"":""fullscreenenter"",""trial"":1,""time"":1356}]",NA,NA,NA,NA,NA,2,#D89F1C,#3386FF,10,0,1,40,0,600.3999999910593,39,0,406.90000000596046,0,0,experiment,NA,NA,0,0.9,0.1,0,1,252,6,NA
fcp-trial,288,1015914,0.0-263.0-0.0,voc_e2,11926,"[{""event"":""fullscreenenter"",""trial"":1,""time"":1356}]",NA,NA,NA,NA,NA,4,#D8271C,#741CD8,10,10,1,38,1,928.7000000029802,37,1,335.90000000596046,10,1,experiment,NA,NA,1,0.7,0.3,2,3,253,6,NA
fcp-trial,289,1018497,0.0-264.0-0.0,voc_e2,11926,"[{""event"":""fullscreenenter"",""trial"":1,""time"":1356}]",NA,NA,NA,NA,NA,4,#1CD855,#FA92F8,10,10,1,40,0,714.9000000059605,39,0,366.29999999701977,10,0,experiment,NA,NA,2,0.5,0.5,4,5,254,6,NA
fcp-trial,290,1021142,0.0-265.0-0.0,voc_e2,11926,"[{""event"":""fullscreenenter"",""trial"":1,""time"":1356}]",NA,NA,NA,NA,NA,2,#741CD8,#D8271C,10,10,0,38,1,811,39,0,330,10,1,experiment,NA,NA,1,0.3,0.7,3,2,255,6,NA
fcp-trial,291,1023870,0.0-266.0-0.0,voc_e2,11926,"[{""event"":""fullscreenenter"",""trial"":1,""time"":1356}]",NA,NA,NA,NA,NA,0,#741CD8,#D8271C,0,0,0,38,1,961.1999999880791,39,0,263.79999999701977,0,1,experiment,NA,NA,1,0.3,0.7,3,2,256,6,NA
fcp-trial,292,1026648,0.0-267.0-0.0,voc_e2,11926,"[{""event"":""fullscreenenter"",""trial"":1,""time"":1356}]",NA,NA,NA,NA,NA,2,#D89F1C,#3386FF,10,0,1,38,1,975.7000000029802,37,1,299.29999999701977,10,1,experiment,NA,NA,0,0.9,0.1,0,1,257,6,NA
fcp-trial,293,1029483,0.0-268.0-0.0,voc_e2,11926,"[{""event"":""fullscreenenter"",""trial"":1,""time"":1356}]",NA,NA,NA,NA,NA,6,#1CD855,#FA92F8,10,0,1,40,0,986,37,1,345.5,10,1,experiment,NA,NA,2,0.5,0.5,4,5,258,6,NA
fcp-trial,294,1032386,0.0-269.0-0.0,voc_e2,11926,"[{""event"":""fullscreenenter"",""trial"":1,""time"":1356}]",NA,NA,NA,NA,NA,6,#3386FF,#D89F1C,0,10,0,40,0,981,37,1,420.09999999403954,0,0,experiment,NA,NA,0,0.1,0.9,1,0,259,6,NA
fcp-trial,295,1035073,0.0-270.0-0.0,voc_e2,11926,"[{""event"":""fullscreenenter"",""trial"":1,""time"":1356}]",NA,NA,NA,NA,NA,1,#1CD855,#FA92F8,0,10,1,40,0,811.6999999880791,39,0,370.90000000596046,10,0,experiment,NA,NA,2,0.5,0.5,4,5,260,6,NA
fcp-trial,296,1037542,0.0-271.0-0.0,voc_e2,11926,"[{""event"":""fullscreenenter"",""trial"":1,""time"":1356}]",NA,NA,NA,NA,NA,3,#741CD8,#D8271C,0,10,0,38,1,610.8000000119209,39,0,354.80000001192093,10,1,experiment,NA,NA,1,0.3,0.7,3,2,261,6,NA
fcp-trial,297,1040025,0.0-272.0-0.0,voc_e2,11926,"[{""event"":""fullscreenenter"",""trial"":1,""time"":1356}]",NA,NA,NA,NA,NA,5,#741CD8,#D8271C,10,0,0,40,0,652.5999999940395,39,0,327,0,1,experiment,NA,NA,1,0.3,0.7,3,2,262,6,NA
fcp-trial,298,1042824,0.0-273.0-0.0,voc_e2,11926,"[{""event"":""fullscreenenter"",""trial"":1,""time"":1356}]",NA,NA,NA,NA,NA,0,#D89F1C,#3386FF,10,0,1,38,1,981.7999999970198,37,1,313.90000000596046,10,1,experiment,NA,NA,0,0.9,0.1,0,1,263,6,NA
fcp-trial,299,1045250,0.0-274.0-0.0,voc_e2,11926,"[{""event"":""fullscreenenter"",""trial"":1,""time"":1356}]",NA,NA,NA,NA,NA,3,#1CD855,#FA92F8,10,10,1,40,0,534,39,0,388.09999999403954,10,0,experiment,NA,NA,2,0.5,0.5,4,5,264,6,NA
fcp-trial,300,1047868,0.0-275.0-0.0,voc_e2,11926,"[{""event"":""fullscreenenter"",""trial"":1,""time"":1356}]",NA,NA,NA,NA,NA,0,#1CD855,#FA92F8,0,10,1,40,0,824,37,1,291.30000001192093,0,1,experiment,NA,NA,2,0.5,0.5,4,5,265,6,NA
fcp-trial,301,1050318,0.0-276.0-0.0,voc_e2,11926,"[{""event"":""fullscreenenter"",""trial"":1,""time"":1356}]",NA,NA,NA,NA,NA,5,#FA92F8,#1CD855,10,10,0,40,0,624.9000000059605,39,0,322.20000000298023,10,1,experiment,NA,NA,2,0.5,0.5,5,4,266,6,NA
fcp-trial,302,1052762,0.0-277.0-0.0,voc_e2,11926,"[{""event"":""fullscreenenter"",""trial"":1,""time"":1356}]",NA,NA,NA,NA,NA,1,#D8271C,#741CD8,10,10,1,38,1,548.5,37,1,392.70000000298023,10,1,experiment,NA,NA,1,0.7,0.3,2,3,267,6,NA
fcp-trial,303,1055231,0.0-278.0-0.0,voc_e2,11926,"[{""event"":""fullscreenenter"",""trial"":1,""time"":1356}]",NA,NA,NA,NA,NA,5,#3386FF,#D89F1C,0,10,0,40,0,588.1000000089407,37,1,378.5,0,0,experiment,NA,NA,0,0.1,0.9,1,0,268,6,NA
fcp-trial,304,1057921,0.0-279.0-0.0,voc_e2,11926,"[{""event"":""fullscreenenter"",""trial"":1,""time"":1356}]",NA,NA,NA,NA,NA,4,#D89F1C,#3386FF,10,0,1,38,1,867.0999999940395,37,1,320.20000000298023,10,1,experiment,NA,NA,0,0.9,0.1,0,1,269,6,NA
fcp-trial,305,1060350,0.0-280.0-0.0,voc_e2,11926,"[{""event"":""fullscreenenter"",""trial"":1,""time"":1356}]",NA,NA,NA,NA,NA,2,#FA92F8,#1CD855,0,0,0,40,0,605.5,37,1,320.1000000089407,0,0,experiment,NA,NA,2,0.5,0.5,5,4,270,6,NA
fcp-trial,306,1062708,0.0-281.0-0.0,voc_e2,11926,"[{""event"":""fullscreenenter"",""trial"":1,""time"":1356}]",NA,NA,NA,NA,NA,3,#D89F1C,#3386FF,10,0,1,40,0,481.40000000596046,37,1,373.40000000596046,10,1,experiment,NA,NA,0,0.9,0.1,0,1,271,7,NA
fcp-trial,307,1065160,0.0-282.0-0.0,voc_e2,11926,"[{""event"":""fullscreenenter"",""trial"":1,""time"":1356}]",NA,NA,NA,NA,NA,6,#D8271C,#741CD8,10,0,1,38,1,676.7000000029802,37,1,272.6000000089407,10,1,experiment,NA,NA,1,0.7,0.3,2,3,272,7,NA
fcp-trial,308,1068008,0.0-283.0-0.0,voc_e2,11926,"[{""event"":""fullscreenenter"",""trial"":1,""time"":1356}]",NA,NA,NA,NA,NA,1,#3386FF,#D89F1C,0,10,0,38,1,1063.7000000029802,39,0,280.69999998807907,10,1,experiment,NA,NA,0,0.1,0.9,1,0,273,7,NA
fcp-trial,309,1070527,0.0-284.0-0.0,voc_e2,11926,"[{""event"":""fullscreenenter"",""trial"":1,""time"":1356}]",NA,NA,NA,NA,NA,5,#3386FF,#D89F1C,0,10,0,40,0,629.2000000029802,39,0,387.3999999910593,10,1,experiment,NA,NA,0,0.1,0.9,1,0,274,7,NA
fcp-trial,310,1072927,0.0-285.0-0.0,voc_e2,11926,"[{""event"":""fullscreenenter"",""trial"":1,""time"":1356}]",NA,NA,NA,NA,NA,6,#D8271C,#741CD8,0,0,1,40,0,478.29999999701977,39,0,417.8999999910593,0,0,experiment,NA,NA,1,0.7,0.3,2,3,275,7,NA
fcp-trial,311,1075794,0.0-286.0-0.0,voc_e2,11926,"[{""event"":""fullscreenenter"",""trial"":1,""time"":1356}]",NA,NA,NA,NA,NA,2,#741CD8,#D8271C,0,10,0,38,1,699.6000000089407,39,0,664.7000000029802,10,1,experiment,NA,NA,1,0.3,0.7,3,2,276,7,NA
fcp-trial,312,1078546,0.0-287.0-0.0,voc_e2,11926,"[{""event"":""fullscreenenter"",""trial"":1,""time"":1356}]",NA,NA,NA,NA,NA,0,#D89F1C,#3386FF,10,0,1,38,1,641.0999999940395,37,1,608.8999999910593,10,1,experiment,NA,NA,0,0.9,0.1,0,1,277,7,NA
fcp-trial,313,1081018,0.0-288.0-0.0,voc_e2,11926,"[{""event"":""fullscreenenter"",""trial"":1,""time"":1356}]",NA,NA,NA,NA,NA,1,#741CD8,#D8271C,0,0,0,38,1,644.3999999910593,39,0,324.6000000089407,0,1,experiment,NA,NA,1,0.3,0.7,3,2,278,7,NA
fcp-trial,314,1083398,0.0-289.0-0.0,voc_e2,11926,"[{""event"":""fullscreenenter"",""trial"":1,""time"":1356}]",NA,NA,NA,NA,NA,4,#3386FF,#D89F1C,0,10,0,40,0,562.5,37,1,314.3999999910593,0,0,experiment,NA,NA,0,0.1,0.9,1,0,279,7,NA
fcp-trial,315,1086041,0.0-290.0-0.0,voc_e2,11926,"[{""event"":""fullscreenenter"",""trial"":1,""time"":1356}]",NA,NA,NA,NA,NA,2,#1CD855,#FA92F8,10,0,1,40,0,814.7999999970198,39,0,326.29999999701977,0,0,experiment,NA,NA,2,0.5,0.5,4,5,280,7,NA
fcp-trial,316,1088331,0.0-291.0-0.0,voc_e2,11926,"[{""event"":""fullscreenenter"",""trial"":1,""time"":1356}]",NA,NA,NA,NA,NA,3,#1CD855,#FA92F8,0,0,1,40,0,438.1000000089407,37,1,348.40000000596046,0,1,experiment,NA,NA,2,0.5,0.5,4,5,281,7,NA
fcp-trial,317,1091294,0.0-292.0-0.0,voc_e2,11926,"[{""event"":""fullscreenenter"",""trial"":1,""time"":1356}]",NA,NA,NA,NA,NA,1,#FA92F8,#1CD855,0,0,0,38,1,1045.7000000029802,37,1,414.29999999701977,0,0,experiment,NA,NA,2,0.5,0.5,5,4,282,7,NA
fcp-trial,318,1094162,0.0-293.0-0.0,voc_e2,11926,"[{""event"":""fullscreenenter"",""trial"":1,""time"":1356}]",NA,NA,NA,NA,NA,0,#741CD8,#D8271C,10,10,0,38,1,1011.4000000059605,39,0,354.20000000298023,10,1,experiment,NA,NA,1,0.3,0.7,3,2,283,7,NA
fcp-trial,319,1096463,0.0-294.0-0.0,voc_e2,11926,"[{""event"":""fullscreenenter"",""trial"":1,""time"":1356}]",NA,NA,NA,NA,NA,6,#D89F1C,#3386FF,10,10,1,40,0,503.29999999701977,37,1,294,10,1,experiment,NA,NA,0,0.9,0.1,0,1,284,7,NA
fcp-trial,320,1099000,0.0-295.0-0.0,voc_e2,11926,"[{""event"":""fullscreenenter"",""trial"":1,""time"":1356}]",NA,NA,NA,NA,NA,1,#D89F1C,#3386FF,10,0,1,38,1,769,37,1,265.59999999403954,10,1,experiment,NA,NA,0,0.9,0.1,0,1,285,7,NA
fcp-trial,321,1101689,0.0-296.0-0.0,voc_e2,11926,"[{""event"":""fullscreenenter"",""trial"":1,""time"":1356}]",NA,NA,NA,NA,NA,5,#D8271C,#741CD8,10,0,1,40,0,844,37,1,341.59999999403954,10,1,experiment,NA,NA,1,0.7,0.3,2,3,286,7,NA
fcp-trial,322,1103974,0.0-297.0-0.0,voc_e2,11926,"[{""event"":""fullscreenenter"",""trial"":1,""time"":1356}]",NA,NA,NA,NA,NA,5,#FA92F8,#1CD855,0,10,0,40,0,405.3999999910593,39,0,377,10,1,experiment,NA,NA,2,0.5,0.5,5,4,287,7,NA
fcp-trial,323,1106587,0.0-298.0-0.0,voc_e2,11926,"[{""event"":""fullscreenenter"",""trial"":1,""time"":1356}]",NA,NA,NA,NA,NA,2,#3386FF,#D89F1C,0,10,0,38,1,778.5,39,0,331.5,10,1,experiment,NA,NA,0,0.1,0.9,1,0,288,7,NA
fcp-trial,324,1108823,0.0-299.0-0.0,voc_e2,11926,"[{""event"":""fullscreenenter"",""trial"":1,""time"":1356}]",NA,NA,NA,NA,NA,3,#D8271C,#741CD8,0,0,1,40,0,465.20000000298023,37,1,268.20000000298023,0,1,experiment,NA,NA,1,0.7,0.3,2,3,289,7,NA
fcp-trial,325,1111226,0.0-300.0-0.0,voc_e2,11926,"[{""event"":""fullscreenenter"",""trial"":1,""time"":1356}]",NA,NA,NA,NA,NA,4,#1CD855,#FA92F8,10,10,1,40,0,641.5,39,0,257.6000000089407,10,0,experiment,NA,NA,2,0.5,0.5,4,5,290,7,NA
fcp-trial,326,1113622,0.0-301.0-0.0,voc_e2,11926,"[{""event"":""fullscreenenter"",""trial"":1,""time"":1356}]",NA,NA,NA,NA,NA,4,#D8271C,#741CD8,10,10,1,40,0,472.59999999403954,39,0,420.199999988079,10,0,experiment,NA,NA,1,0.7,0.3,2,3,291,7,NA
fcp-trial,327,1115924,0.0-302.0-0.0,voc_e2,11926,"[{""event"":""fullscreenenter"",""trial"":1,""time"":1356}]",NA,NA,NA,NA,NA,3,#D89F1C,#3386FF,10,0,1,38,1,514.2999999970198,37,1,284.79999999701977,10,1,experiment,NA,NA,0,0.9,0.1,0,1,292,7,NA
fcp-trial,328,1118256,0.0-303.0-0.0,voc_e2,11926,"[{""event"":""fullscreenenter"",""trial"":1,""time"":1356}]",NA,NA,NA,NA,NA,6,#1CD855,#FA92F8,10,0,1,40,0,510.79999999701977,37,1,319.29999999701977,10,1,experiment,NA,NA,2,0.5,0.5,4,5,293,7,NA
fcp-trial,329,1120727,0.0-304.0-0.0,voc_e2,11926,"[{""event"":""fullscreenenter"",""trial"":1,""time"":1356}]",NA,NA,NA,NA,NA,0,#FA92F8,#1CD855,0,0,0,40,0,663.1000000089407,37,1,305.20000000298023,0,0,experiment,NA,NA,2,0.5,0.5,5,4,294,7,NA
fcp-trial,330,1123017,0.0-305.0-0.0,voc_e2,11926,"[{""event"":""fullscreenenter"",""trial"":1,""time"":1356}]",NA,NA,NA,NA,NA,2,#FA92F8,#1CD855,10,10,0,40,0,479.1000000089407,39,0,308.5,10,1,experiment,NA,NA,2,0.5,0.5,5,4,295,7,NA
fcp-trial,331,1125231,0.0-306.0-0.0,voc_e2,11926,"[{""event"":""fullscreenenter"",""trial"":1,""time"":1356}]",NA,NA,NA,NA,NA,5,#3386FF,#D89F1C,0,0,0,40,0,413.90000000596046,39,0,297,0,1,experiment,NA,NA,0,0.1,0.9,1,0,296,7,NA
fcp-trial,332,1127825,0.0-307.0-0.0,voc_e2,11926,"[{""event"":""fullscreenenter"",""trial"":1,""time"":1356}]",NA,NA,NA,NA,NA,1,#D89F1C,#3386FF,10,0,1,38,1,707.5999999940395,37,1,382.90000000596046,10,1,experiment,NA,NA,0,0.9,0.1,0,1,297,7,NA
fcp-trial,333,1130135,0.0-308.0-0.0,voc_e2,11926,"[{""event"":""fullscreenenter"",""trial"":1,""time"":1356}]",NA,NA,NA,NA,NA,4,#1CD855,#FA92F8,0,10,1,40,0,493.5,37,1,313.79999999701977,0,1,experiment,NA,NA,2,0.5,0.5,4,5,298,7,NA
fcp-trial,334,1132474,0.0-309.0-0.0,voc_e2,11926,"[{""event"":""fullscreenenter"",""trial"":1,""time"":1356}]",NA,NA,NA,NA,NA,0,#D8271C,#741CD8,10,10,1,38,1,560.5999999940395,37,1,276.5,10,1,experiment,NA,NA,1,0.7,0.3,2,3,299,7,NA
fcp-trial,335,1134845,0.0-310.0-0.0,voc_e2,11926,"[{""event"":""fullscreenenter"",""trial"":1,""time"":1356}]",NA,NA,NA,NA,NA,4,#D8271C,#741CD8,10,0,1,40,0,421.30000001192093,39,0,445.90000000596046,0,0,experiment,NA,NA,1,0.7,0.3,2,3,300,7,NA
fcp-trial,336,1137295,0.0-311.0-0.0,voc_e2,11926,"[{""event"":""fullscreenenter"",""trial"":1,""time"":1356}]",NA,NA,NA,NA,NA,6,#FA92F8,#1CD855,0,10,0,40,0,623.5,39,0,323.80000001192093,10,1,experiment,NA,NA,2,0.5,0.5,5,4,301,7,NA
fcp-trial,337,1139606,0.0-312.0-0.0,voc_e2,11926,"[{""event"":""fullscreenenter"",""trial"":1,""time"":1356}]",NA,NA,NA,NA,NA,2,#3386FF,#D89F1C,0,10,0,38,1,519.5,39,0,284.1000000089407,10,1,experiment,NA,NA,0,0.1,0.9,1,0,302,7,NA
fcp-trial,338,1142210,0.0-313.0-0.0,voc_e2,11926,"[{""event"":""fullscreenenter"",""trial"":1,""time"":1356}]",NA,NA,NA,NA,NA,1,#D8271C,#741CD8,10,10,1,38,1,751.1000000089407,37,1,350.40000000596046,10,1,experiment,NA,NA,1,0.7,0.3,2,3,303,7,NA
fcp-trial,339,1144976,0.0-314.0-0.0,voc_e2,11926,"[{""event"":""fullscreenenter"",""trial"":1,""time"":1356}]",NA,NA,NA,NA,NA,2,#741CD8,#D8271C,10,10,0,38,1,980.0999999940395,39,0,283,10,1,experiment,NA,NA,1,0.3,0.7,3,2,304,7,NA
fcp-trial,340,1147621,0.0-315.0-0.0,voc_e2,11926,"[{""event"":""fullscreenenter"",""trial"":1,""time"":1356}]",NA,NA,NA,NA,NA,6,#D8271C,#741CD8,0,10,1,40,0,682.2999999970198,39,0,460.8999999910593,10,0,experiment,NA,NA,1,0.7,0.3,2,3,305,7,NA
fcp-trial,341,1150292,0.0-316.0-0.0,voc_e2,11926,"[{""event"":""fullscreenenter"",""trial"":1,""time"":1356}]",NA,NA,NA,NA,NA,3,#FA92F8,#1CD855,0,10,0,40,0,859,39,0,309.70000000298023,10,1,experiment,NA,NA,2,0.5,0.5,5,4,306,7,NA
fcp-trial,342,1152821,0.0-317.0-0.0,voc_e2,11926,"[{""event"":""fullscreenenter"",""trial"":1,""time"":1356}]",NA,NA,NA,NA,NA,3,#3386FF,#D89F1C,0,10,0,38,1,689.5999999940395,39,0,337,10,1,experiment,NA,NA,0,0.1,0.9,1,0,307,7,NA
fcp-trial,343,1155215,0.0-318.0-0.0,voc_e2,11926,"[{""event"":""fullscreenenter"",""trial"":1,""time"":1356}]",NA,NA,NA,NA,NA,1,#1CD855,#FA92F8,0,10,1,40,0,624.2000000029802,37,1,267,0,1,experiment,NA,NA,2,0.5,0.5,4,5,308,7,NA
fcp-trial,344,1157705,0.0-319.0-0.0,voc_e2,11926,"[{""event"":""fullscreenenter"",""trial"":1,""time"":1356}]",NA,NA,NA,NA,NA,5,#D8271C,#741CD8,10,0,1,38,1,631.7999999970198,37,1,354.80000001192093,10,1,experiment,NA,NA,1,0.7,0.3,2,3,309,7,NA
fcp-trial,345,1160204,0.0-320.0-0.0,voc_e2,11926,"[{""event"":""fullscreenenter"",""trial"":1,""time"":1356}]",NA,NA,NA,NA,NA,0,#3386FF,#D89F1C,0,10,0,38,1,652.2000000029802,39,0,343.90000000596046,10,1,experiment,NA,NA,0,0.1,0.9,1,0,310,7,NA
fcp-trial,346,1162589,0.0-321.0-0.0,voc_e2,11926,"[{""event"":""fullscreenenter"",""trial"":1,""time"":1356}]",NA,NA,NA,NA,NA,5,#FA92F8,#1CD855,10,0,0,40,0,594.7999999970198,37,1,287.1000000089407,10,0,experiment,NA,NA,2,0.5,0.5,5,4,311,7,NA
fcp-trial,347,1164912,0.0-322.0-0.0,voc_e2,11926,"[{""event"":""fullscreenenter"",""trial"":1,""time"":1356}]",NA,NA,NA,NA,NA,3,#741CD8,#D8271C,0,10,0,40,0,483.1000000089407,39,0,336.69999998807907,10,1,experiment,NA,NA,1,0.3,0.7,3,2,312,7,NA
fcp-trial,348,1167242,0.0-323.0-0.0,voc_e2,11926,"[{""event"":""fullscreenenter"",""trial"":1,""time"":1356}]",NA,NA,NA,NA,NA,4,#D89F1C,#3386FF,10,10,1,38,1,544.5999999940395,37,1,281.79999999701977,10,1,experiment,NA,NA,0,0.9,0.1,0,1,313,7,NA
fcp-trial,349,1169606,0.0-324.0-0.0,voc_e2,11926,"[{""event"":""fullscreenenter"",""trial"":1,""time"":1356}]",NA,NA,NA,NA,NA,0,#1CD855,#FA92F8,0,0,1,40,0,558.1000000089407,37,1,303.79999999701977,0,1,experiment,NA,NA,2,0.5,0.5,4,5,314,7,NA
fcp-trial,350,1172133,0.0-325.0-0.0,voc_e2,11926,"[{""event"":""fullscreenenter"",""trial"":1,""time"":1356}]",NA,NA,NA,NA,NA,6,#3386FF,#D89F1C,0,10,0,40,0,718.5,37,1,306.59999999403954,0,0,experiment,NA,NA,0,0.1,0.9,1,0,315,7,NA
audio-instructions,351,1180420,0.0-326.0,voc_e2,11926,"[{""event"":""fullscreenenter"",""trial"":1,""time"":1356}]",NA,2594.199999988079,static/audio/finished.wav,NA,0,NA,NA,NA,NA,NA,NA,NA,NA,NA,NA,NA,NA,NA,NA,NA,NA,NA,NA,NA,NA,NA,NA,NA,NA,NA
audio-instructions,352,1191887,0.0-327.0-0.0,voc_e2,11926,"[{""event"":""fullscreenenter"",""trial"":1,""time"":1356}]",NA,631.4000000059605,static/audio/explicit1.wav,NA,0,NA,NA,NA,NA,NA,NA,NA,NA,NA,NA,NA,NA,NA,NA,NA,NA,NA,NA,NA,NA,NA,NA,NA,NA,NA
audio-instructions,353,1200085,0.0-327.0-1.0,voc_e2,11926,"[{""event"":""fullscreenenter"",""trial"":1,""time"":1356}]",NA,598.8999999910593,static/audio/explicit2.wav,NA,0,NA,NA,NA,NA,NA,NA,NA,NA,NA,NA,NA,NA,NA,NA,NA,NA,NA,NA,NA,NA,NA,NA,NA,NA,NA
image-slider-response,354,1208082,0.0-328.0,voc_e2,11926,"[{""event"":""fullscreenenter"",""trial"":1,""time"":1356}]",NA,7996.09999999404,static/img/machines/machine4.png,NA,NA,NA,NA,NA,NA,NA,NA,NA,NA,NA,NA,NA,NA,NA,NA,explicit,NA,NA,NA,NA,NA,NA,NA,NA,NA,8
image-slider-response,355,1212068,0.0-329.0,voc_e2,11926,"[{""event"":""fullscreenenter"",""trial"":1,""time"":1356}]",NA,3984.599999994039,static/img/machines/machine5.png,NA,NA,NA,NA,NA,NA,NA,NA,NA,NA,NA,NA,NA,NA,NA,NA,explicit,NA,NA,NA,NA,NA,NA,NA,NA,NA,3
image-slider-response,356,1215055,0.0-330.0,voc_e2,11926,"[{""event"":""fullscreenenter"",""trial"":1,""time"":1356}]",NA,2986.5999999940395,static/img/machines/machine2.png,NA,NA,NA,NA,NA,NA,NA,NA,NA,NA,NA,NA,NA,NA,NA,NA,explicit,NA,NA,NA,NA,NA,NA,NA,NA,NA,2
image-slider-response,357,1218384,0.0-331.0,voc_e2,11926,"[{""event"":""fullscreenenter"",""trial"":1,""time"":1356}]",NA,3328.5,static/img/machines/machine6.png,NA,NA,NA,NA,NA,NA,NA,NA,NA,NA,NA,NA,NA,NA,NA,NA,explicit,NA,NA,NA,NA,NA,NA,NA,NA,NA,3
image-slider-response,358,1223030,0.0-332.0,voc_e2,11926,"[{""event"":""fullscreenenter"",""trial"":1,""time"":1356}]",NA,4645.29999999702,static/img/machines/machine3.png,NA,NA,NA,NA,NA,NA,NA,NA,NA,NA,NA,NA,NA,NA,NA,NA,explicit,NA,NA,NA,NA,NA,NA,NA,NA,NA,2
image-slider-response,359,1225071,0.0-333.0,voc_e2,11926,"[{""event"":""fullscreenenter"",""trial"":1,""time"":1356}]",NA,2040.0999999940395,static/img/machines/machine1.png,NA,NA,NA,NA,NA,NA,NA,NA,NA,NA,NA,NA,NA,NA,NA,NA,explicit,NA,NA,NA,NA,NA,NA,NA,NA,NA,7
