trial_type,trial_index,time_elapsed,internal_node_id,task_version,subject_id,interactions,success,rt,stimulus,key_press,button_pressed,offer,arcade_color_L,arcade_color_R,arcade_outcome_L,arcade_outcome_R,correct,stage_1_key,stage_1_choice,stage_1_rt,stage_2_key,stage_2_choice,stage_2_rt,stage_3_outcome,accuracy,phase,responses,num_errors,context,reward_prob_L,reward_prob_R,arcade_id_L,arcade_id_R,trial,block,response
pavlovia,0,15,0.0-0.0,voc_e2,11728,[],NA,NA,NA,NA,NA,NA,NA,NA,NA,NA,NA,NA,NA,NA,NA,NA,NA,NA,NA,NA,NA,NA,NA,NA,NA,NA,NA,NA,NA,NA
fullscreen,1,9235,0.0-1.0,voc_e2,11728,"[{""event"":""fullscreenenter"",""trial"":1,""time"":8245}]",TRUE,NA,NA,NA,NA,NA,NA,NA,NA,NA,NA,NA,NA,NA,NA,NA,NA,NA,NA,NA,NA,NA,NA,NA,NA,NA,NA,NA,NA,NA
audio-keyboard-response,2,20730,0.0-2.0,voc_e2,11728,"[{""event"":""fullscreenenter"",""trial"":1,""time"":8245}]",NA,11403,static/audio/beep_loop.wav,32,NA,NA,NA,NA,NA,NA,NA,NA,NA,NA,NA,NA,NA,NA,NA,NA,NA,NA,NA,NA,NA,NA,NA,NA,NA,NA
audio-test,3,22877,0.0-3.0,voc_e2,11728,"[{""event"":""fullscreenenter"",""trial"":1,""time"":8245}]",NA,NA,static/audio/turtle.wav,NA,3,NA,NA,NA,NA,NA,NA,NA,NA,NA,NA,NA,NA,NA,NA,NA,NA,NA,NA,NA,NA,NA,NA,NA,NA,NA
audio-test,4,25087,0.0-4.0,voc_e2,11728,"[{""event"":""fullscreenenter"",""trial"":1,""time"":8245}]",NA,NA,static/audio/shark.wav,NA,2,NA,NA,NA,NA,NA,NA,NA,NA,NA,NA,NA,NA,NA,NA,NA,NA,NA,NA,NA,NA,NA,NA,NA,NA,NA
audio-instructions,5,32634,0.0-5.0-0.0,voc_e2,11728,"[{""event"":""fullscreenenter"",""trial"":1,""time"":8245}]",NA,1759.800000000745,static/audio/instructions1.wav,NA,0,NA,NA,NA,NA,NA,NA,NA,NA,NA,NA,NA,NA,NA,NA,NA,NA,NA,NA,NA,NA,NA,NA,NA,NA,NA
audio-instructions,6,41953,0.0-5.0-1.0,voc_e2,11728,"[{""event"":""fullscreenenter"",""trial"":1,""time"":8245}]",NA,2577.5,static/audio/instructions2.wav,NA,0,NA,NA,NA,NA,NA,NA,NA,NA,NA,NA,NA,NA,NA,NA,NA,NA,NA,NA,NA,NA,NA,NA,NA,NA,NA
audio-instructions,7,51164,0.0-5.0-2.0,voc_e2,11728,"[{""event"":""fullscreenenter"",""trial"":1,""time"":8245}]",NA,3405.0999999996275,static/audio/instructions3.wav,NA,0,NA,NA,NA,NA,NA,NA,NA,NA,NA,NA,NA,NA,NA,NA,NA,NA,NA,NA,NA,NA,NA,NA,NA,NA,NA
audio-instructions,8,68642,0.0-5.0-3.0,voc_e2,11728,"[{""event"":""fullscreenenter"",""trial"":1,""time"":8245}]",NA,4253.9000000003725,static/audio/instructions4.wav,NA,0,NA,NA,NA,NA,NA,NA,NA,NA,NA,NA,NA,NA,NA,NA,NA,NA,NA,NA,NA,NA,NA,NA,NA,NA,NA
audio-instructions,9,80006,0.0-5.0-4.0,voc_e2,11728,"[{""event"":""fullscreenenter"",""trial"":1,""time"":8245}]",NA,1974.2999999988824,static/audio/instructions5.wav,NA,0,NA,NA,NA,NA,NA,NA,NA,NA,NA,NA,NA,NA,NA,NA,NA,NA,NA,NA,NA,NA,NA,NA,NA,NA,NA
fcp-practice,10,85204,0.0-5.0-5.0-0.0,voc_e2,11728,"[{""event"":""fullscreenenter"",""trial"":1,""time"":8245}]",NA,NA,NA,NA,NA,NA,#EDC948,#46d3c8,10,0,1,null,null,null,37,1,3653,10,1,practice,NA,NA,NA,NA,NA,NA,NA,NA,NA,NA
fcp-practice,11,88083,0.0-5.0-5.0-1.0,voc_e2,11728,"[{""event"":""fullscreenenter"",""trial"":1,""time"":8245}]",NA,NA,NA,NA,NA,NA,#EDC948,#46d3c8,10,0,1,null,null,null,37,1,1361.8999999985099,10,1,practice,NA,NA,NA,NA,NA,NA,NA,NA,NA,NA
fcp-practice,12,91067,0.0-5.0-5.0-2.0,voc_e2,11728,"[{""event"":""fullscreenenter"",""trial"":1,""time"":8245}]",NA,NA,NA,NA,NA,NA,#EDC948,#46d3c8,0,10,1,null,null,null,37,1,1479.4000000003725,0,1,practice,NA,NA,NA,NA,NA,NA,NA,NA,NA,NA
fcp-practice,13,93840,0.0-5.0-5.0-3.0,voc_e2,11728,"[{""event"":""fullscreenenter"",""trial"":1,""time"":8245}]",NA,NA,NA,NA,NA,NA,#EDC948,#46d3c8,10,0,1,null,null,null,37,1,1269.5999999996275,10,1,practice,NA,NA,NA,NA,NA,NA,NA,NA,NA,NA
fcp-practice,14,96603,0.0-5.0-5.0-4.0,voc_e2,11728,"[{""event"":""fullscreenenter"",""trial"":1,""time"":8245}]",NA,NA,NA,NA,NA,NA,#EDC948,#46d3c8,10,0,1,null,null,null,37,1,1253,10,1,practice,NA,NA,NA,NA,NA,NA,NA,NA,NA,NA
audio-instructions,15,117410,0.0-5.0-6.0,voc_e2,11728,"[{""event"":""fullscreenenter"",""trial"":1,""time"":8245}]",NA,2802.7000000011176,static/audio/instructions6.wav,NA,0,NA,NA,NA,NA,NA,NA,NA,NA,NA,NA,NA,NA,NA,NA,NA,NA,NA,NA,NA,NA,NA,NA,NA,NA,NA
audio-instructions,16,137362,0.0-5.0-7.0,voc_e2,11728,"[{""event"":""fullscreenenter"",""trial"":1,""time"":8245}]",NA,750.1999999992549,static/audio/instructions7.wav,NA,0,NA,NA,NA,NA,NA,NA,NA,NA,NA,NA,NA,NA,NA,NA,NA,NA,NA,NA,NA,NA,NA,NA,NA,NA,NA
audio-instructions,17,147848,0.0-5.0-8.0,voc_e2,11728,"[{""event"":""fullscreenenter"",""trial"":1,""time"":8245}]",NA,1016.2000000011176,static/audio/instructions8.wav,NA,0,NA,NA,NA,NA,NA,NA,NA,NA,NA,NA,NA,NA,NA,NA,NA,NA,NA,NA,NA,NA,NA,NA,NA,NA,NA
fcp-comprehension,18,164874,0.0-5.0-9.0,voc_e2,11728,"[{""event"":""fullscreenenter"",""trial"":1,""time"":8245}]",NA,17022.300000000745,NA,NA,NA,NA,NA,NA,NA,NA,NA,NA,NA,NA,NA,NA,NA,NA,NA,NA,"true,true",0,NA,NA,NA,NA,NA,NA,NA,NA
audio-instructions,19,172006,0.0-6.0-0.0,voc_e2,11728,"[{""event"":""fullscreenenter"",""trial"":1,""time"":8245}]",NA,1580.699999999255,static/audio/instructions9.wav,NA,0,NA,NA,NA,NA,NA,NA,NA,NA,NA,NA,NA,NA,NA,NA,NA,NA,NA,NA,NA,NA,NA,NA,NA,NA,NA
audio-instructions,20,185659,0.0-6.0-1.0,voc_e2,11728,"[{""event"":""fullscreenenter"",""trial"":1,""time"":8245}]",NA,1536.4000000003723,static/audio/instructions10.wav,NA,0,NA,NA,NA,NA,NA,NA,NA,NA,NA,NA,NA,NA,NA,NA,NA,NA,NA,NA,NA,NA,NA,NA,NA,NA,NA
fcp-trial,21,200675,0.0-6.0-2.0,voc_e2,11728,"[{""event"":""fullscreenenter"",""trial"":1,""time"":8245}]",NA,NA,NA,NA,NA,0,#EDC948,#46d3c8,10,10,1,null,null,null,null,null,null,NA,0,practice,NA,NA,NA,NA,NA,NA,NA,NA,NA,NA
audio-instructions,22,213790,0.0-6.0-3.0,voc_e2,11728,"[{""event"":""fullscreenenter"",""trial"":1,""time"":8245}]",NA,2106.5,static/audio/instructions11.wav,NA,0,NA,NA,NA,NA,NA,NA,NA,NA,NA,NA,NA,NA,NA,NA,NA,NA,NA,NA,NA,NA,NA,NA,NA,NA,NA
fcp-trial,23,218747,0.0-6.0-4.0,voc_e2,11728,"[{""event"":""fullscreenenter"",""trial"":1,""time"":8245}]",NA,NA,NA,NA,NA,6,#EDC948,#46d3c8,10,10,1,40,0,1086.800000000745,39,0,2346.5999999996275,10,0,practice,NA,NA,NA,NA,NA,NA,NA,NA,NA,NA
audio-instructions,24,241450,0.0-6.0-5.0,voc_e2,11728,"[{""event"":""fullscreenenter"",""trial"":1,""time"":8245}]",NA,4017.099999999627,static/audio/instructions12.wav,NA,0,NA,NA,NA,NA,NA,NA,NA,NA,NA,NA,NA,NA,NA,NA,NA,NA,NA,NA,NA,NA,NA,NA,NA,NA,NA
audio-instructions,25,250531,0.0-6.0-6.0,voc_e2,11728,"[{""event"":""fullscreenenter"",""trial"":1,""time"":8245}]",NA,1491.5,static/audio/instructions13.wav,NA,0,NA,NA,NA,NA,NA,NA,NA,NA,NA,NA,NA,NA,NA,NA,NA,NA,NA,NA,NA,NA,NA,NA,NA,NA,NA
audio-instructions,26,259903,0.0-6.0-7.0,voc_e2,11728,"[{""event"":""fullscreenenter"",""trial"":1,""time"":8245}]",NA,922.7000000011176,static/audio/instructions14.wav,NA,0,NA,NA,NA,NA,NA,NA,NA,NA,NA,NA,NA,NA,NA,NA,NA,NA,NA,NA,NA,NA,NA,NA,NA,NA,NA
audio-instructions,27,267700,0.0-7.0-0.0,voc_e2,11728,"[{""event"":""fullscreenenter"",""trial"":1,""time"":8245}]",NA,890.0999999996275,static/audio/instructions15.wav,NA,0,NA,NA,NA,NA,NA,NA,NA,NA,NA,NA,NA,NA,NA,NA,NA,NA,NA,NA,NA,NA,NA,NA,NA,NA,NA
audio-instructions,28,275139,0.0-7.0-1.0,voc_e2,11728,"[{""event"":""fullscreenenter"",""trial"":1,""time"":8245}]",NA,616.6999999992549,static/audio/instructions16.wav,NA,0,NA,NA,NA,NA,NA,NA,NA,NA,NA,NA,NA,NA,NA,NA,NA,NA,NA,NA,NA,NA,NA,NA,NA,NA,NA
audio-instructions,29,285044,0.0-7.0-2.0,voc_e2,11728,"[{""event"":""fullscreenenter"",""trial"":1,""time"":8245}]",NA,2223.5,static/audio/instructions17.wav,NA,0,NA,NA,NA,NA,NA,NA,NA,NA,NA,NA,NA,NA,NA,NA,NA,NA,NA,NA,NA,NA,NA,NA,NA,NA,NA
audio-instructions,30,293459,0.0-7.0-3.0,voc_e2,11728,"[{""event"":""fullscreenenter"",""trial"":1,""time"":8245}]",NA,654.2999999988824,static/audio/instructions18.wav,NA,0,NA,NA,NA,NA,NA,NA,NA,NA,NA,NA,NA,NA,NA,NA,NA,NA,NA,NA,NA,NA,NA,NA,NA,NA,NA
audio-instructions,31,301233,0.0-7.0-4.0,voc_e2,11728,"[{""event"":""fullscreenenter"",""trial"":1,""time"":8245}]",NA,1037.2999999988824,static/audio/instructions19.wav,NA,0,NA,NA,NA,NA,NA,NA,NA,NA,NA,NA,NA,NA,NA,NA,NA,NA,NA,NA,NA,NA,NA,NA,NA,NA,NA
fcp-comprehension,32,331136,0.0-7.0-5.0,voc_e2,11728,"[{""event"":""fullscreenenter"",""trial"":1,""time"":8245}]",NA,29899.5,NA,NA,NA,NA,NA,NA,NA,NA,NA,NA,NA,NA,NA,NA,NA,NA,NA,NA,"false,false,true,true",1,NA,NA,NA,NA,NA,NA,NA,NA
audio-instructions,33,339357,0.0-7.1-0.1,voc_e2,11728,"[{""event"":""fullscreenenter"",""trial"":1,""time"":8245}]",NA,1311.9000000003723,static/audio/instructions15.wav,NA,0,NA,NA,NA,NA,NA,NA,NA,NA,NA,NA,NA,NA,NA,NA,NA,NA,NA,NA,NA,NA,NA,NA,NA,NA,NA
audio-instructions,34,349210,0.0-7.1-1.1,voc_e2,11728,"[{""event"":""fullscreenenter"",""trial"":1,""time"":8245}]",NA,3026.5,static/audio/instructions16.wav,NA,0,NA,NA,NA,NA,NA,NA,NA,NA,NA,NA,NA,NA,NA,NA,NA,NA,NA,NA,NA,NA,NA,NA,NA,NA,NA
audio-instructions,35,359623,0.0-7.1-2.1,voc_e2,11728,"[{""event"":""fullscreenenter"",""trial"":1,""time"":8245}]",NA,2729.9000000003725,static/audio/instructions17.wav,NA,0,NA,NA,NA,NA,NA,NA,NA,NA,NA,NA,NA,NA,NA,NA,NA,NA,NA,NA,NA,NA,NA,NA,NA,NA,NA
audio-instructions,36,370618,0.0-7.1-3.1,voc_e2,11728,"[{""event"":""fullscreenenter"",""trial"":1,""time"":8245}]",NA,3229.0999999996275,static/audio/instructions18.wav,NA,0,NA,NA,NA,NA,NA,NA,NA,NA,NA,NA,NA,NA,NA,NA,NA,NA,NA,NA,NA,NA,NA,NA,NA,NA,NA
audio-instructions,37,377864,0.0-7.1-4.1,voc_e2,11728,"[{""event"":""fullscreenenter"",""trial"":1,""time"":8245}]",NA,500.5999999996274,static/audio/instructions19.wav,NA,0,NA,NA,NA,NA,NA,NA,NA,NA,NA,NA,NA,NA,NA,NA,NA,NA,NA,NA,NA,NA,NA,NA,NA,NA,NA
fcp-comprehension,38,412286,0.0-7.1-5.1,voc_e2,11728,"[{""event"":""fullscreenenter"",""trial"":1,""time"":8245}]",NA,34418.79999999888,NA,NA,NA,NA,NA,NA,NA,NA,NA,NA,NA,NA,NA,NA,NA,NA,NA,NA,"false,false,false,true",0,NA,NA,NA,NA,NA,NA,NA,NA
audio-instructions,39,425905,0.0-8.0,voc_e2,11728,"[{""event"":""fullscreenenter"",""trial"":1,""time"":8245}]",NA,4410.700000001118,static/audio/ready.wav,NA,0,NA,NA,NA,NA,NA,NA,NA,NA,NA,NA,NA,NA,NA,NA,NA,NA,NA,NA,NA,NA,NA,NA,NA,NA,NA
fcp-trial,40,432956,0.0-9.0-0.0,voc_e2,11728,"[{""event"":""fullscreenenter"",""trial"":1,""time"":8245}]",NA,NA,NA,NA,NA,3,#1CD855,#FA92F8,0,0,1,38,1,2972.5999999996275,37,1,2559.4000000003725,0,1,experiment,NA,NA,0,0.9,0.1,0,1,1,1,NA
fcp-trial,41,438292,0.0-10.0-0.0,voc_e2,11728,"[{""event"":""fullscreenenter"",""trial"":1,""time"":8245}]",NA,NA,NA,NA,NA,4,#D8271C,#741CD8,10,0,1,40,0,2161.9000000003725,37,1,1657.699999999255,10,1,experiment,NA,NA,2,0.5,0.5,4,5,2,1,NA
fcp-trial,42,442835,0.0-11.0-0.0,voc_e2,11728,"[{""event"":""fullscreenenter"",""trial"":1,""time"":8245}]",NA,NA,NA,NA,NA,3,#3386FF,#D89F1C,0,0,0,38,1,1897.699999999255,39,0,1132.9000000003725,0,1,experiment,NA,NA,1,0.3,0.7,3,2,3,1,NA
fcp-trial,43,447915,0.0-12.0-0.0,voc_e2,11728,"[{""event"":""fullscreenenter"",""trial"":1,""time"":8245}]",NA,NA,NA,NA,NA,1,#D89F1C,#3386FF,10,10,1,38,1,1985.199999999255,39,0,1578.3999999985099,10,0,experiment,NA,NA,1,0.7,0.3,2,3,4,1,NA
fcp-trial,44,451588,0.0-13.0-0.0,voc_e2,11728,"[{""event"":""fullscreenenter"",""trial"":1,""time"":8245}]",NA,NA,NA,NA,NA,0,#741CD8,#D8271C,0,10,0,38,1,1211.2999999988824,37,1,948.7999999988824,0,0,experiment,NA,NA,2,0.5,0.5,5,4,5,1,NA
fcp-trial,45,455331,0.0-14.0-0.0,voc_e2,11728,"[{""event"":""fullscreenenter"",""trial"":1,""time"":8245}]",NA,NA,NA,NA,NA,6,#1CD855,#FA92F8,10,0,1,38,1,1471,39,0,750.9000000003725,0,0,experiment,NA,NA,0,0.9,0.1,0,1,6,1,NA
fcp-trial,46,459980,0.0-15.0-0.0,voc_e2,11728,"[{""event"":""fullscreenenter"",""trial"":1,""time"":8245}]",NA,NA,NA,NA,NA,1,#FA92F8,#1CD855,0,10,0,40,0,1886.7000000011176,37,1,1249.5999999996275,0,0,experiment,NA,NA,0,0.1,0.9,1,0,7,1,NA
fcp-trial,47,464588,0.0-16.0-0.0,voc_e2,11728,"[{""event"":""fullscreenenter"",""trial"":1,""time"":8245}]",NA,NA,NA,NA,NA,6,#D89F1C,#3386FF,10,10,1,40,0,2225.199999999255,39,0,870.0999999996275,10,0,experiment,NA,NA,1,0.7,0.3,2,3,8,1,NA
fcp-trial,48,467995,0.0-17.0-0.0,voc_e2,11728,"[{""event"":""fullscreenenter"",""trial"":1,""time"":8245}]",NA,NA,NA,NA,NA,5,#3386FF,#D89F1C,10,10,0,38,1,1161.2000000011176,37,1,731.2999999988824,10,0,experiment,NA,NA,1,0.3,0.7,3,2,9,1,NA
fcp-trial,49,472223,0.0-18.0-0.0,voc_e2,11728,"[{""event"":""fullscreenenter"",""trial"":1,""time"":8245}]",NA,NA,NA,NA,NA,1,#D8271C,#741CD8,10,0,1,38,1,2032.2000000011176,39,0,686.5999999996275,0,0,experiment,NA,NA,2,0.5,0.5,4,5,10,1,NA
fcp-trial,50,476788,0.0-19.0-0.0,voc_e2,11728,"[{""event"":""fullscreenenter"",""trial"":1,""time"":8245}]",NA,NA,NA,NA,NA,4,#FA92F8,#1CD855,0,0,0,40,0,1657.5,39,0,1398.800000000745,0,1,experiment,NA,NA,0,0.1,0.9,1,0,11,1,NA
fcp-trial,51,480020,0.0-20.0-0.0,voc_e2,11728,"[{""event"":""fullscreenenter"",""trial"":1,""time"":8245}]",NA,NA,NA,NA,NA,5,#1CD855,#FA92F8,10,0,1,38,1,736.9000000003725,39,0,976.0999999996275,0,0,experiment,NA,NA,0,0.9,0.1,0,1,12,1,NA
fcp-trial,52,483341,0.0-21.0-0.0,voc_e2,11728,"[{""event"":""fullscreenenter"",""trial"":1,""time"":8245}]",NA,NA,NA,NA,NA,0,#3386FF,#D89F1C,10,0,0,38,1,1319.7999999988824,37,1,480,10,0,experiment,NA,NA,1,0.3,0.7,3,2,13,1,NA
fcp-trial,53,486931,0.0-22.0-0.0,voc_e2,11728,"[{""event"":""fullscreenenter"",""trial"":1,""time"":8245}]",NA,NA,NA,NA,NA,3,#D8271C,#741CD8,10,0,1,38,1,1228.0999999996275,37,1,837.7999999988824,10,1,experiment,NA,NA,2,0.5,0.5,4,5,14,1,NA
fcp-trial,54,491004,0.0-23.0-0.0,voc_e2,11728,"[{""event"":""fullscreenenter"",""trial"":1,""time"":8245}]",NA,NA,NA,NA,NA,2,#FA92F8,#1CD855,0,10,0,40,0,1695.9000000003725,37,1,861.2000000011176,0,0,experiment,NA,NA,0,0.1,0.9,1,0,15,1,NA
fcp-trial,55,494207,0.0-24.0-0.0,voc_e2,11728,"[{""event"":""fullscreenenter"",""trial"":1,""time"":8245}]",NA,NA,NA,NA,NA,6,#741CD8,#D8271C,10,10,0,38,1,1076.0999999996275,39,0,614.5999999996275,10,1,experiment,NA,NA,2,0.5,0.5,5,4,16,1,NA
fcp-trial,56,497299,0.0-25.0-0.0,voc_e2,11728,"[{""event"":""fullscreenenter"",""trial"":1,""time"":8245}]",NA,NA,NA,NA,NA,4,#3386FF,#D89F1C,0,10,0,38,1,969.5,37,1,605.0999999996275,0,0,experiment,NA,NA,1,0.3,0.7,3,2,17,1,NA
fcp-trial,57,501099,0.0-26.0-0.0,voc_e2,11728,"[{""event"":""fullscreenenter"",""trial"":1,""time"":8245}]",NA,NA,NA,NA,NA,0,#1CD855,#FA92F8,10,0,1,38,1,1443.7000000011176,37,1,843.5,10,1,experiment,NA,NA,0,0.9,0.1,0,1,18,1,NA
fcp-trial,58,504163,0.0-27.0-0.0,voc_e2,11728,"[{""event"":""fullscreenenter"",""trial"":1,""time"":8245}]",NA,NA,NA,NA,NA,2,#3386FF,#D89F1C,10,0,0,38,1,947.5999999996275,39,0,594.3999999985099,0,1,experiment,NA,NA,1,0.3,0.7,3,2,19,1,NA
fcp-trial,59,507052,0.0-28.0-0.0,voc_e2,11728,"[{""event"":""fullscreenenter"",""trial"":1,""time"":8245}]",NA,NA,NA,NA,NA,2,#D8271C,#741CD8,10,10,1,40,0,351.90000000037253,37,1,1026.9000000003725,10,1,experiment,NA,NA,2,0.5,0.5,4,5,20,1,NA
fcp-trial,60,510020,0.0-29.0-0.0,voc_e2,11728,"[{""event"":""fullscreenenter"",""trial"":1,""time"":8245}]",NA,NA,NA,NA,NA,5,#741CD8,#D8271C,10,0,0,40,0,889.6999999992549,37,1,554.5,10,0,experiment,NA,NA,2,0.5,0.5,5,4,21,1,NA
fcp-trial,61,513211,0.0-30.0-0.0,voc_e2,11728,"[{""event"":""fullscreenenter"",""trial"":1,""time"":8245}]",NA,NA,NA,NA,NA,3,#3386FF,#D89F1C,0,10,0,40,0,594.5999999996275,39,0,1076.7999999988824,10,1,experiment,NA,NA,1,0.3,0.7,3,2,22,1,NA
fcp-trial,62,516363,0.0-31.0-0.0,voc_e2,11728,"[{""event"":""fullscreenenter"",""trial"":1,""time"":8245}]",NA,NA,NA,NA,NA,0,#D8271C,#741CD8,10,10,1,38,1,854.5999999996275,37,1,784.0999999996275,10,1,experiment,NA,NA,2,0.5,0.5,4,5,23,1,NA
fcp-trial,63,519595,0.0-32.0-0.0,voc_e2,11728,"[{""event"":""fullscreenenter"",""trial"":1,""time"":8245}]",NA,NA,NA,NA,NA,0,#FA92F8,#1CD855,0,10,0,38,1,1205.800000000745,37,1,516.2999999988824,0,0,experiment,NA,NA,0,0.1,0.9,1,0,24,1,NA
fcp-trial,64,522505,0.0-33.0-0.0,voc_e2,11728,"[{""event"":""fullscreenenter"",""trial"":1,""time"":8245}]",NA,NA,NA,NA,NA,5,#FA92F8,#1CD855,0,10,0,40,0,703.7999999988824,39,0,692.4000000003725,10,1,experiment,NA,NA,0,0.1,0.9,1,0,25,1,NA
fcp-trial,65,525507,0.0-34.0-0.0,voc_e2,11728,"[{""event"":""fullscreenenter"",""trial"":1,""time"":8245}]",NA,NA,NA,NA,NA,4,#D8271C,#741CD8,0,10,1,38,1,1077.5999999996275,39,0,415.2000000011176,10,0,experiment,NA,NA,2,0.5,0.5,4,5,26,1,NA
fcp-trial,66,528427,0.0-35.0-0.0,voc_e2,11728,"[{""event"":""fullscreenenter"",""trial"":1,""time"":8245}]",NA,NA,NA,NA,NA,4,#3386FF,#D89F1C,0,10,0,38,1,761.3000000007451,37,1,650.7999999988824,0,0,experiment,NA,NA,1,0.3,0.7,3,2,27,1,NA
fcp-trial,67,532475,0.0-36.0-0.0,voc_e2,11728,"[{""event"":""fullscreenenter"",""trial"":1,""time"":8245}]",NA,NA,NA,NA,NA,2,#1CD855,#FA92F8,0,0,1,40,0,1921.0999999996275,39,0,619.8000000007451,0,0,experiment,NA,NA,0,0.9,0.1,0,1,28,1,NA
fcp-trial,68,535788,0.0-37.0-0.0,voc_e2,11728,"[{""event"":""fullscreenenter"",""trial"":1,""time"":8245}]",NA,NA,NA,NA,NA,5,#D89F1C,#3386FF,10,0,1,38,1,867.3999999985099,39,0,928,0,0,experiment,NA,NA,1,0.7,0.3,2,3,29,1,NA
fcp-trial,69,538986,0.0-38.0-0.0,voc_e2,11728,"[{""event"":""fullscreenenter"",""trial"":1,""time"":8245}]",NA,NA,NA,NA,NA,2,#D8271C,#741CD8,0,0,1,38,1,1089.0999999996275,37,1,602.6999999992549,0,1,experiment,NA,NA,2,0.5,0.5,4,5,30,1,NA
fcp-trial,70,542731,0.0-39.0-0.0,voc_e2,11728,"[{""event"":""fullscreenenter"",""trial"":1,""time"":8245}]",NA,NA,NA,NA,NA,3,#D8271C,#741CD8,10,0,1,40,0,1605,39,0,622.9000000003725,0,0,experiment,NA,NA,2,0.5,0.5,4,5,31,1,NA
fcp-trial,71,547620,0.0-40.0-0.0,voc_e2,11728,"[{""event"":""fullscreenenter"",""trial"":1,""time"":8245}]",NA,NA,NA,NA,NA,1,#D89F1C,#3386FF,10,10,1,38,1,1596.0999999996275,39,0,1777.9000000003725,10,0,experiment,NA,NA,1,0.7,0.3,2,3,32,1,NA
fcp-trial,72,552867,0.0-41.0-0.0,voc_e2,11728,"[{""event"":""fullscreenenter"",""trial"":1,""time"":8245}]",NA,NA,NA,NA,NA,1,#1CD855,#FA92F8,0,0,1,38,1,2394.9000000003725,37,1,1340.5999999996275,0,1,experiment,NA,NA,0,0.9,0.1,0,1,33,1,NA
fcp-trial,73,557486,0.0-42.0-0.0,voc_e2,11728,"[{""event"":""fullscreenenter"",""trial"":1,""time"":8245}]",NA,NA,NA,NA,NA,6,#741CD8,#D8271C,0,0,0,38,1,1827.5999999996275,39,0,1279.0999999996275,0,1,experiment,NA,NA,2,0.5,0.5,5,4,34,1,NA
fcp-trial,74,561843,0.0-43.0-0.0,voc_e2,11728,"[{""event"":""fullscreenenter"",""trial"":1,""time"":8245}]",NA,NA,NA,NA,NA,5,#741CD8,#D8271C,10,10,0,38,1,1188.300000000745,39,0,1659.4000000003725,10,1,experiment,NA,NA,2,0.5,0.5,5,4,35,1,NA
fcp-trial,75,566635,0.0-44.0-0.0,voc_e2,11728,"[{""event"":""fullscreenenter"",""trial"":1,""time"":8245}]",NA,NA,NA,NA,NA,0,#D89F1C,#3386FF,0,0,1,40,0,2552.9000000003725,37,1,728.1999999992549,0,1,experiment,NA,NA,1,0.7,0.3,2,3,36,1,NA
fcp-trial,76,570643,0.0-45.0-0.0,voc_e2,11728,"[{""event"":""fullscreenenter"",""trial"":1,""time"":8245}]",NA,NA,NA,NA,NA,2,#D89F1C,#3386FF,10,10,1,38,1,1973.2000000011176,39,0,524.6999999992549,10,0,experiment,NA,NA,1,0.7,0.3,2,3,37,1,NA
fcp-trial,77,574716,0.0-46.0-0.0,voc_e2,11728,"[{""event"":""fullscreenenter"",""trial"":1,""time"":8245}]",NA,NA,NA,NA,NA,3,#FA92F8,#1CD855,0,10,0,40,0,1583.800000000745,39,0,976.9000000003725,10,1,experiment,NA,NA,0,0.1,0.9,1,0,38,1,NA
fcp-trial,78,578869,0.0-47.0-0.0,voc_e2,11728,"[{""event"":""fullscreenenter"",""trial"":1,""time"":8245}]",NA,NA,NA,NA,NA,6,#D89F1C,#3386FF,0,0,1,38,1,2147.0999999996275,39,0,493.40000000037253,0,0,experiment,NA,NA,1,0.7,0.3,2,3,39,1,NA
fcp-trial,79,583043,0.0-48.0-0.0,voc_e2,11728,"[{""event"":""fullscreenenter"",""trial"":1,""time"":8245}]",NA,NA,NA,NA,NA,1,#741CD8,#D8271C,10,10,0,40,0,1663,37,1,990.6999999992549,10,0,experiment,NA,NA,2,0.5,0.5,5,4,40,1,NA
fcp-trial,80,586768,0.0-49.0-0.0,voc_e2,11728,"[{""event"":""fullscreenenter"",""trial"":1,""time"":8245}]",NA,NA,NA,NA,NA,6,#1CD855,#FA92F8,0,0,1,38,1,1402.5999999996275,39,0,809.9000000003725,0,0,experiment,NA,NA,0,0.9,0.1,0,1,41,1,NA
fcp-trial,81,591051,0.0-50.0-0.0,voc_e2,11728,"[{""event"":""fullscreenenter"",""trial"":1,""time"":8245}]",NA,NA,NA,NA,NA,4,#1CD855,#FA92F8,10,10,1,40,0,2076.7000000011176,39,0,698.9000000003725,10,0,experiment,NA,NA,0,0.9,0.1,0,1,42,1,NA
fcp-trial,82,594435,0.0-51.0-0.0,voc_e2,11728,"[{""event"":""fullscreenenter"",""trial"":1,""time"":8245}]",NA,NA,NA,NA,NA,5,#D8271C,#741CD8,0,0,1,40,0,1021.8999999985099,39,0,845.2999999988824,0,0,experiment,NA,NA,2,0.5,0.5,4,5,43,1,NA
fcp-trial,83,597599,0.0-52.0-0.0,voc_e2,11728,"[{""event"":""fullscreenenter"",""trial"":1,""time"":8245}]",NA,NA,NA,NA,NA,1,#3386FF,#D89F1C,0,10,0,38,1,1035.9000000003725,39,0,614.5,10,1,experiment,NA,NA,1,0.3,0.7,3,2,44,1,NA
fcp-trial,84,600292,0.0-53.0-0.0,voc_e2,11728,"[{""event"":""fullscreenenter"",""trial"":1,""time"":8245}]",NA,NA,NA,NA,NA,6,#FA92F8,#1CD855,0,10,0,38,1,731.0999999996275,37,1,440.7000000011176,0,0,experiment,NA,NA,0,0.1,0.9,1,0,45,1,NA
fcp-trial,85,604300,0.0-54.0-0.0,voc_e2,11728,"[{""event"":""fullscreenenter"",""trial"":1,""time"":8245}]",NA,NA,NA,NA,NA,4,#3386FF,#D89F1C,0,10,0,38,1,1940.2000000011176,37,1,549.7000000011176,0,0,experiment,NA,NA,1,0.3,0.7,3,2,46,2,NA
fcp-trial,86,606923,0.0-55.0-0.0,voc_e2,11728,"[{""event"":""fullscreenenter"",""trial"":1,""time"":8245}]",NA,NA,NA,NA,NA,0,#3386FF,#D89F1C,0,0,0,38,1,779.5,39,0,336.5,0,1,experiment,NA,NA,1,0.3,0.7,3,2,47,2,NA
fcp-trial,87,609814,0.0-56.0-0.0,voc_e2,11728,"[{""event"":""fullscreenenter"",""trial"":1,""time"":8245}]",NA,NA,NA,NA,NA,1,#741CD8,#D8271C,10,0,0,38,1,879.7000000011176,39,0,486.90000000037253,0,1,experiment,NA,NA,2,0.5,0.5,5,4,48,2,NA
fcp-trial,88,613195,0.0-57.0-0.0,voc_e2,11728,"[{""event"":""fullscreenenter"",""trial"":1,""time"":8245}]",NA,NA,NA,NA,NA,2,#FA92F8,#1CD855,0,10,0,38,1,1544.300000000745,37,1,319.2000000011176,0,0,experiment,NA,NA,0,0.1,0.9,1,0,49,2,NA
fcp-trial,89,616917,0.0-58.0-0.0,voc_e2,11728,"[{""event"":""fullscreenenter"",""trial"":1,""time"":8245}]",NA,NA,NA,NA,NA,3,#1CD855,#FA92F8,0,10,1,38,1,1251.5,37,1,938.5999999996275,0,1,experiment,NA,NA,0,0.9,0.1,0,1,50,2,NA
fcp-trial,90,620564,0.0-59.0-0.0,voc_e2,11728,"[{""event"":""fullscreenenter"",""trial"":1,""time"":8245}]",NA,NA,NA,NA,NA,5,#1CD855,#FA92F8,0,0,1,38,1,1075,39,0,1055.9000000003725,0,0,experiment,NA,NA,0,0.9,0.1,0,1,51,2,NA
fcp-trial,91,624723,0.0-60.0-0.0,voc_e2,11728,"[{""event"":""fullscreenenter"",""trial"":1,""time"":8245}]",NA,NA,NA,NA,NA,3,#D89F1C,#3386FF,10,0,1,38,1,1826.300000000745,39,0,817.4000000003725,0,0,experiment,NA,NA,1,0.7,0.3,2,3,52,2,NA
fcp-trial,92,628171,0.0-61.0-0.0,voc_e2,11728,"[{""event"":""fullscreenenter"",""trial"":1,""time"":8245}]",NA,NA,NA,NA,NA,2,#741CD8,#D8271C,0,10,0,38,1,1240.199999999255,39,0,702.1999999992549,10,1,experiment,NA,NA,2,0.5,0.5,5,4,53,2,NA
fcp-trial,93,632123,0.0-62.0-0.0,voc_e2,11728,"[{""event"":""fullscreenenter"",""trial"":1,""time"":8245}]",NA,NA,NA,NA,NA,6,#3386FF,#D89F1C,10,0,0,38,1,1450.800000000745,39,0,988,0,1,experiment,NA,NA,1,0.3,0.7,3,2,54,2,NA
fcp-trial,94,635882,0.0-63.0-0.0,voc_e2,11728,"[{""event"":""fullscreenenter"",""trial"":1,""time"":8245}]",NA,NA,NA,NA,NA,3,#741CD8,#D8271C,0,10,0,38,1,1326.0999999996275,39,0,924.5999999996275,10,1,experiment,NA,NA,2,0.5,0.5,5,4,55,2,NA
fcp-trial,95,639898,0.0-64.0-0.0,voc_e2,11728,"[{""event"":""fullscreenenter"",""trial"":1,""time"":8245}]",NA,NA,NA,NA,NA,4,#1CD855,#FA92F8,0,0,1,38,1,1436.800000000745,37,1,1066.4000000003725,0,1,experiment,NA,NA,0,0.9,0.1,0,1,56,2,NA
fcp-trial,96,643349,0.0-65.0-0.0,voc_e2,11728,"[{""event"":""fullscreenenter"",""trial"":1,""time"":8245}]",NA,NA,NA,NA,NA,0,#741CD8,#D8271C,0,10,0,38,1,1101.1000000014901,39,0,833.8000000007451,10,1,experiment,NA,NA,2,0.5,0.5,5,4,57,2,NA
fcp-trial,97,646667,0.0-66.0-0.0,voc_e2,11728,"[{""event"":""fullscreenenter"",""trial"":1,""time"":8245}]",NA,NA,NA,NA,NA,4,#D8271C,#741CD8,10,10,1,38,1,1078,37,1,733.3000000007451,10,1,experiment,NA,NA,2,0.5,0.5,4,5,58,2,NA
fcp-trial,98,649787,0.0-67.0-0.0,voc_e2,11728,"[{""event"":""fullscreenenter"",""trial"":1,""time"":8245}]",NA,NA,NA,NA,NA,5,#3386FF,#D89F1C,0,10,0,38,1,1031.4000000003725,39,0,580.2000000011176,10,1,experiment,NA,NA,1,0.3,0.7,3,2,59,2,NA
fcp-trial,99,653599,0.0-68.0-0.0,voc_e2,11728,"[{""event"":""fullscreenenter"",""trial"":1,""time"":8245}]",NA,NA,NA,NA,NA,0,#FA92F8,#1CD855,10,10,0,40,0,953.2999999988824,39,0,1347.1000000014901,10,1,experiment,NA,NA,0,0.1,0.9,1,0,60,2,NA
fcp-trial,100,656739,0.0-69.0-0.0,voc_e2,11728,"[{""event"":""fullscreenenter"",""trial"":1,""time"":8245}]",NA,NA,NA,NA,NA,6,#741CD8,#D8271C,10,10,0,38,1,1106.2999999988824,39,0,525.4000000003725,10,1,experiment,NA,NA,2,0.5,0.5,5,4,61,2,NA
fcp-trial,101,660998,0.0-70.0-0.0,voc_e2,11728,"[{""event"":""fullscreenenter"",""trial"":1,""time"":8245}]",NA,NA,NA,NA,NA,1,#1CD855,#FA92F8,10,10,1,38,1,1995.6000000014901,39,0,750.7000000011176,10,0,experiment,NA,NA,0,0.9,0.1,0,1,62,2,NA
fcp-trial,102,664939,0.0-71.0-0.0,voc_e2,11728,"[{""event"":""fullscreenenter"",""trial"":1,""time"":8245}]",NA,NA,NA,NA,NA,2,#3386FF,#D89F1C,10,10,0,38,1,1010,37,1,1420,10,0,experiment,NA,NA,1,0.3,0.7,3,2,63,2,NA
fcp-trial,103,669145,0.0-72.0-0.0,voc_e2,11728,"[{""event"":""fullscreenenter"",""trial"":1,""time"":8245}]",NA,NA,NA,NA,NA,4,#D89F1C,#3386FF,10,0,1,38,1,1495.7000000011176,39,0,1202.800000000745,0,0,experiment,NA,NA,1,0.7,0.3,2,3,64,2,NA
fcp-trial,104,673611,0.0-73.0-0.0,voc_e2,11728,"[{""event"":""fullscreenenter"",""trial"":1,""time"":8245}]",NA,NA,NA,NA,NA,5,#D8271C,#741CD8,10,10,1,38,1,2084.300000000745,39,0,868.9000000003725,10,0,experiment,NA,NA,2,0.5,0.5,4,5,65,2,NA
fcp-trial,105,676643,0.0-74.0-0.0,voc_e2,11728,"[{""event"":""fullscreenenter"",""trial"":1,""time"":8245}]",NA,NA,NA,NA,NA,3,#3386FF,#D89F1C,10,10,0,38,1,762.3999999985099,37,1,756.5,10,0,experiment,NA,NA,1,0.3,0.7,3,2,66,2,NA
fcp-trial,106,679794,0.0-75.0-0.0,voc_e2,11728,"[{""event"":""fullscreenenter"",""trial"":1,""time"":8245}]",NA,NA,NA,NA,NA,0,#D89F1C,#3386FF,10,0,1,38,1,1147.7000000011176,39,0,488.7999999988824,0,0,experiment,NA,NA,1,0.7,0.3,2,3,67,2,NA
fcp-trial,107,683235,0.0-76.0-0.0,voc_e2,11728,"[{""event"":""fullscreenenter"",""trial"":1,""time"":8245}]",NA,NA,NA,NA,NA,5,#1CD855,#FA92F8,10,0,1,38,1,1246.199999999255,39,0,673.2000000011176,0,0,experiment,NA,NA,0,0.9,0.1,0,1,68,2,NA
fcp-trial,108,686494,0.0-77.0-0.0,voc_e2,11728,"[{""event"":""fullscreenenter"",""trial"":1,""time"":8245}]",NA,NA,NA,NA,NA,0,#D8271C,#741CD8,10,10,1,38,1,998.5,37,1,751.7000000011176,10,1,experiment,NA,NA,2,0.5,0.5,4,5,69,2,NA
fcp-trial,109,689532,0.0-78.0-0.0,voc_e2,11728,"[{""event"":""fullscreenenter"",""trial"":1,""time"":8245}]",NA,NA,NA,NA,NA,3,#741CD8,#D8271C,0,10,0,38,1,731.5999999996275,37,1,788.7000000011176,0,0,experiment,NA,NA,2,0.5,0.5,5,4,70,2,NA
fcp-trial,110,692610,0.0-79.0-0.0,voc_e2,11728,"[{""event"":""fullscreenenter"",""trial"":1,""time"":8245}]",NA,NA,NA,NA,NA,5,#D89F1C,#3386FF,10,10,1,40,0,967.7000000011176,39,0,599.5,10,0,experiment,NA,NA,1,0.7,0.3,2,3,71,2,NA
fcp-trial,111,695863,0.0-80.0-0.0,voc_e2,11728,"[{""event"":""fullscreenenter"",""trial"":1,""time"":8245}]",NA,NA,NA,NA,NA,4,#FA92F8,#1CD855,0,10,0,40,0,1036.2000000011176,39,0,698.5,10,1,experiment,NA,NA,0,0.1,0.9,1,0,72,2,NA
fcp-trial,112,699251,0.0-81.0-0.0,voc_e2,11728,"[{""event"":""fullscreenenter"",""trial"":1,""time"":8245}]",NA,NA,NA,NA,NA,3,#FA92F8,#1CD855,0,10,0,40,0,1075.5999999996275,37,1,799.7000000011176,0,0,experiment,NA,NA,0,0.1,0.9,1,0,73,2,NA
fcp-trial,113,702660,0.0-82.0-0.0,voc_e2,11728,"[{""event"":""fullscreenenter"",""trial"":1,""time"":8245}]",NA,NA,NA,NA,NA,6,#3386FF,#D89F1C,0,0,0,38,1,1084.9000000003725,39,0,809.8999999985099,0,1,experiment,NA,NA,1,0.3,0.7,3,2,74,2,NA
fcp-trial,114,705713,0.0-83.0-0.0,voc_e2,11728,"[{""event"":""fullscreenenter"",""trial"":1,""time"":8245}]",NA,NA,NA,NA,NA,6,#D8271C,#741CD8,10,0,1,38,1,638.0999999996275,37,1,901.8999999985099,10,1,experiment,NA,NA,2,0.5,0.5,4,5,75,2,NA
fcp-trial,115,708812,0.0-84.0-0.0,voc_e2,11728,"[{""event"":""fullscreenenter"",""trial"":1,""time"":8245}]",NA,NA,NA,NA,NA,1,#3386FF,#D89F1C,0,10,0,38,1,883.0999999996275,39,0,709.5,10,1,experiment,NA,NA,1,0.3,0.7,3,2,76,2,NA
fcp-trial,116,712010,0.0-85.0-0.0,voc_e2,11728,"[{""event"":""fullscreenenter"",""trial"":1,""time"":8245}]",NA,NA,NA,NA,NA,6,#1CD855,#FA92F8,10,0,1,38,1,1031.800000000745,37,1,657.0999999996275,10,1,experiment,NA,NA,0,0.9,0.1,0,1,77,2,NA
fcp-trial,117,715683,0.0-86.0-0.0,voc_e2,11728,"[{""event"":""fullscreenenter"",""trial"":1,""time"":8245}]",NA,NA,NA,NA,NA,0,#FA92F8,#1CD855,0,10,0,38,1,1425.800000000745,37,1,735.7999999988824,0,0,experiment,NA,NA,0,0.1,0.9,1,0,78,2,NA
fcp-trial,118,718715,0.0-87.0-0.0,voc_e2,11728,"[{""event"":""fullscreenenter"",""trial"":1,""time"":8245}]",NA,NA,NA,NA,NA,2,#FA92F8,#1CD855,0,10,0,38,1,800.6000000014901,39,0,724.9000000003725,10,1,experiment,NA,NA,0,0.1,0.9,1,0,79,2,NA
fcp-trial,119,721803,0.0-88.0-0.0,voc_e2,11728,"[{""event"":""fullscreenenter"",""trial"":1,""time"":8245}]",NA,NA,NA,NA,NA,4,#D8271C,#741CD8,0,10,1,38,1,822.5,39,0,756.4000000003725,10,0,experiment,NA,NA,2,0.5,0.5,4,5,80,2,NA
fcp-trial,120,724883,0.0-89.0-0.0,voc_e2,11728,"[{""event"":""fullscreenenter"",""trial"":1,""time"":8245}]",NA,NA,NA,NA,NA,2,#D89F1C,#3386FF,10,0,1,38,1,750.1999999992549,37,1,814.8000000007451,10,1,experiment,NA,NA,1,0.7,0.3,2,3,81,2,NA
fcp-trial,121,728445,0.0-90.0-0.0,voc_e2,11728,"[{""event"":""fullscreenenter"",""trial"":1,""time"":8245}]",NA,NA,NA,NA,NA,1,#1CD855,#FA92F8,0,0,1,38,1,719.9000000003725,37,1,1325.0999999996275,0,1,experiment,NA,NA,0,0.9,0.1,0,1,82,2,NA
fcp-trial,122,731778,0.0-91.0-0.0,voc_e2,11728,"[{""event"":""fullscreenenter"",""trial"":1,""time"":8245}]",NA,NA,NA,NA,NA,2,#741CD8,#D8271C,10,0,0,38,1,739.1999999992549,39,0,1076.5999999996275,0,1,experiment,NA,NA,2,0.5,0.5,5,4,83,2,NA
fcp-trial,123,734955,0.0-92.0-0.0,voc_e2,11728,"[{""event"":""fullscreenenter"",""trial"":1,""time"":8245}]",NA,NA,NA,NA,NA,1,#741CD8,#D8271C,10,0,0,38,1,992.1999999992549,39,0,672.7999999988824,0,1,experiment,NA,NA,2,0.5,0.5,5,4,84,2,NA
fcp-trial,124,738051,0.0-93.0-0.0,voc_e2,11728,"[{""event"":""fullscreenenter"",""trial"":1,""time"":8245}]",NA,NA,NA,NA,NA,5,#FA92F8,#1CD855,0,10,0,38,1,703.3999999985099,39,0,880.4000000003725,10,1,experiment,NA,NA,0,0.1,0.9,1,0,85,2,NA
fcp-trial,125,740723,0.0-94.0-0.0,voc_e2,11728,"[{""event"":""fullscreenenter"",""trial"":1,""time"":8245}]",NA,NA,NA,NA,NA,0,#741CD8,#D8271C,0,0,0,38,1,384.69999999925494,37,1,771.5,0,0,experiment,NA,NA,2,0.5,0.5,5,4,86,2,NA
fcp-trial,126,743819,0.0-95.0-0.0,voc_e2,11728,"[{""event"":""fullscreenenter"",""trial"":1,""time"":8245}]",NA,NA,NA,NA,NA,0,#D89F1C,#3386FF,10,0,1,38,1,987.1999999992549,39,0,585.5,0,0,experiment,NA,NA,1,0.7,0.3,2,3,87,2,NA
fcp-trial,127,746709,0.0-96.0-0.0,voc_e2,11728,"[{""event"":""fullscreenenter"",""trial"":1,""time"":8245}]",NA,NA,NA,NA,NA,3,#D89F1C,#3386FF,10,10,1,38,1,671.8000000007451,37,1,701.3999999985099,10,1,experiment,NA,NA,1,0.7,0.3,2,3,88,2,NA
fcp-trial,128,749677,0.0-97.0-0.0,voc_e2,11728,"[{""event"":""fullscreenenter"",""trial"":1,""time"":8245}]",NA,NA,NA,NA,NA,4,#1CD855,#FA92F8,10,0,1,38,1,785.1999999992549,37,1,668.6000000014901,10,1,experiment,NA,NA,0,0.9,0.1,0,1,89,2,NA
fcp-trial,129,752524,0.0-98.0-0.0,voc_e2,11728,"[{""event"":""fullscreenenter"",""trial"":1,""time"":8245}]",NA,NA,NA,NA,NA,6,#D89F1C,#3386FF,10,10,1,38,1,576.5,37,1,759,10,1,experiment,NA,NA,1,0.7,0.3,2,3,90,2,NA
fcp-trial,130,755508,0.0-99.0-0.0,voc_e2,11728,"[{""event"":""fullscreenenter"",""trial"":1,""time"":8245}]",NA,NA,NA,NA,NA,5,#741CD8,#D8271C,0,0,0,38,1,587.8000000007451,39,0,875.8000000007451,0,1,experiment,NA,NA,2,0.5,0.5,5,4,91,3,NA
fcp-trial,131,758660,0.0-100.0-0.0,voc_e2,11728,"[{""event"":""fullscreenenter"",""trial"":1,""time"":8245}]",NA,NA,NA,NA,NA,4,#741CD8,#D8271C,10,10,0,38,1,867.6999999992549,39,0,765.8000000007451,10,1,experiment,NA,NA,2,0.5,0.5,5,4,92,3,NA
fcp-trial,132,761693,0.0-101.0-0.0,voc_e2,11728,"[{""event"":""fullscreenenter"",""trial"":1,""time"":8245}]",NA,NA,NA,NA,NA,1,#D8271C,#741CD8,0,10,1,38,1,836.5,37,1,683,0,1,experiment,NA,NA,2,0.5,0.5,4,5,93,3,NA
fcp-trial,133,765323,0.0-102.0-0.0,voc_e2,11728,"[{""event"":""fullscreenenter"",""trial"":1,""time"":8245}]",NA,NA,NA,NA,NA,2,#1CD855,#FA92F8,10,0,1,38,1,1231.4000000003725,39,0,887.7000000011176,0,0,experiment,NA,NA,0,0.9,0.1,0,1,94,3,NA
fcp-trial,134,769242,0.0-103.0-0.0,voc_e2,11728,"[{""event"":""fullscreenenter"",""trial"":1,""time"":8245}]",NA,NA,NA,NA,NA,2,#3386FF,#D89F1C,10,0,0,38,1,779.7000000011176,39,0,1624.1000000014901,0,1,experiment,NA,NA,1,0.3,0.7,3,2,95,3,NA
fcp-trial,135,772340,0.0-104.0-0.0,voc_e2,11728,"[{""event"":""fullscreenenter"",""trial"":1,""time"":8245}]",NA,NA,NA,NA,NA,4,#D89F1C,#3386FF,10,10,1,40,0,762.1999999992549,39,0,817.4000000003725,10,0,experiment,NA,NA,1,0.7,0.3,2,3,96,3,NA
fcp-trial,136,775419,0.0-105.0-0.0,voc_e2,11728,"[{""event"":""fullscreenenter"",""trial"":1,""time"":8245}]",NA,NA,NA,NA,NA,1,#3386FF,#D89F1C,0,0,0,38,1,857.9000000003725,39,0,708.5,0,1,experiment,NA,NA,1,0.3,0.7,3,2,97,3,NA
fcp-trial,137,778509,0.0-106.0-0.0,voc_e2,11728,"[{""event"":""fullscreenenter"",""trial"":1,""time"":8245}]",NA,NA,NA,NA,NA,2,#D8271C,#741CD8,10,10,1,38,1,821.7000000011176,37,1,751.8999999985099,10,1,experiment,NA,NA,2,0.5,0.5,4,5,98,3,NA
fcp-trial,138,782219,0.0-107.0-0.0,voc_e2,11728,"[{""event"":""fullscreenenter"",""trial"":1,""time"":8245}]",NA,NA,NA,NA,NA,1,#1CD855,#FA92F8,10,0,1,38,1,782.0999999996275,39,0,1413.4000000003725,0,0,experiment,NA,NA,0,0.9,0.1,0,1,99,3,NA
fcp-trial,139,785795,0.0-108.0-0.0,voc_e2,11728,"[{""event"":""fullscreenenter"",""trial"":1,""time"":8245}]",NA,NA,NA,NA,NA,6,#741CD8,#D8271C,0,10,0,38,1,1414.5999999996275,39,0,650,10,1,experiment,NA,NA,2,0.5,0.5,5,4,100,3,NA
fcp-trial,140,788826,0.0-109.0-0.0,voc_e2,11728,"[{""event"":""fullscreenenter"",""trial"":1,""time"":8245}]",NA,NA,NA,NA,NA,6,#1CD855,#FA92F8,10,0,1,38,1,905.9000000003725,37,1,615.1000000014901,10,1,experiment,NA,NA,0,0.9,0.1,0,1,101,3,NA
fcp-trial,141,791776,0.0-110.0-0.0,voc_e2,11728,"[{""event"":""fullscreenenter"",""trial"":1,""time"":8245}]",NA,NA,NA,NA,NA,5,#3386FF,#D89F1C,0,0,0,40,0,383.5,37,1,1054.6000000014901,0,0,experiment,NA,NA,1,0.3,0.7,3,2,102,3,NA
fcp-trial,142,795324,0.0-111.0-0.0,voc_e2,11728,"[{""event"":""fullscreenenter"",""trial"":1,""time"":8245}]",NA,NA,NA,NA,NA,0,#1CD855,#FA92F8,10,0,1,38,1,1265.7999999988824,39,0,772.7999999988824,0,0,experiment,NA,NA,0,0.9,0.1,0,1,103,3,NA
fcp-trial,143,798325,0.0-112.0-0.0,voc_e2,11728,"[{""event"":""fullscreenenter"",""trial"":1,""time"":8245}]",NA,NA,NA,NA,NA,3,#1CD855,#FA92F8,10,10,1,40,0,865,39,0,613.7000000011176,10,0,experiment,NA,NA,0,0.9,0.1,0,1,104,3,NA
fcp-trial,144,801731,0.0-113.0-0.0,voc_e2,11728,"[{""event"":""fullscreenenter"",""trial"":1,""time"":8245}]",NA,NA,NA,NA,NA,3,#741CD8,#D8271C,0,10,0,40,0,982.2000000011176,37,1,917.2999999988824,0,0,experiment,NA,NA,2,0.5,0.5,5,4,105,3,NA
audio-instructions,145,1025326,0.0-114.0,voc_e2,11728,"[{""event"":""fullscreenenter"",""trial"":1,""time"":8245}]",NA,219069.5,static/audio/pause.wav,NA,0,NA,NA,NA,NA,NA,NA,NA,NA,NA,NA,NA,NA,NA,NA,NA,NA,NA,NA,NA,NA,NA,NA,NA,NA,NA
fcp-trial,146,1028416,0.0-115.0-0.0,voc_e2,11728,"[{""event"":""fullscreenenter"",""trial"":1,""time"":8245}]",NA,NA,NA,NA,NA,2,#3386FF,#D89F1C,0,10,0,38,1,959.8000000007451,39,0,615.5,10,1,experiment,NA,NA,1,0.3,0.7,3,2,106,3,NA
fcp-trial,147,1031923,0.0-116.0-0.0,voc_e2,11728,"[{""event"":""fullscreenenter"",""trial"":1,""time"":8245}]",NA,NA,NA,NA,NA,1,#741CD8,#D8271C,0,0,0,40,0,1483.1000000014901,39,0,514.4000000003725,0,1,experiment,NA,NA,2,0.5,0.5,5,4,107,3,NA
fcp-trial,148,1034323,0.0-117.0-0.0,voc_e2,11728,"[{""event"":""fullscreenenter"",""trial"":1,""time"":8245}]",NA,NA,NA,NA,NA,3,#D89F1C,#3386FF,10,10,1,38,1,483.80000000074506,39,0,400,10,0,experiment,NA,NA,1,0.7,0.3,2,3,108,3,NA
fcp-trial,149,1037267,0.0-118.0-0.0,voc_e2,11728,"[{""event"":""fullscreenenter"",""trial"":1,""time"":8245}]",NA,NA,NA,NA,NA,2,#741CD8,#D8271C,0,0,0,38,1,935.8000000007451,39,0,499.5,0,1,experiment,NA,NA,2,0.5,0.5,5,4,109,3,NA
fcp-trial,150,1041897,0.0-119.0-0.0,voc_e2,11728,"[{""event"":""fullscreenenter"",""trial"":1,""time"":8245}]",NA,NA,NA,NA,NA,6,#1CD855,#FA92F8,10,0,1,40,0,1786.8999999985099,37,1,1327.4000000003725,10,1,experiment,NA,NA,0,0.9,0.1,0,1,110,3,NA
fcp-trial,151,1046711,0.0-120.0-0.0,voc_e2,11728,"[{""event"":""fullscreenenter"",""trial"":1,""time"":8245}]",NA,NA,NA,NA,NA,6,#3386FF,#D89F1C,0,10,0,40,0,1683.199999999255,39,0,1624.7000000011176,10,1,experiment,NA,NA,1,0.3,0.7,3,2,111,3,NA
fcp-trial,152,1050381,0.0-121.0-0.0,voc_e2,11728,"[{""event"":""fullscreenenter"",""trial"":1,""time"":8245}]",NA,NA,NA,NA,NA,0,#D89F1C,#3386FF,0,10,1,40,0,1077.4000000003725,37,1,1080.5,0,1,experiment,NA,NA,1,0.7,0.3,2,3,112,3,NA
fcp-trial,153,1053498,0.0-122.0-0.0,voc_e2,11728,"[{""event"":""fullscreenenter"",""trial"":1,""time"":8245}]",NA,NA,NA,NA,NA,6,#D8271C,#741CD8,10,10,1,40,0,927.3999999985099,37,1,678.6999999992549,10,1,experiment,NA,NA,2,0.5,0.5,4,5,113,3,NA
fcp-trial,154,1056212,0.0-123.0-0.0,voc_e2,11728,"[{""event"":""fullscreenenter"",""trial"":1,""time"":8245}]",NA,NA,NA,NA,NA,4,#FA92F8,#1CD855,0,10,0,38,1,367.5,37,1,833.2999999988824,0,0,experiment,NA,NA,0,0.1,0.9,1,0,114,3,NA
fcp-trial,155,1058923,0.0-124.0-0.0,voc_e2,11728,"[{""event"":""fullscreenenter"",""trial"":1,""time"":8245}]",NA,NA,NA,NA,NA,3,#1CD855,#FA92F8,10,0,1,38,1,816.0999999996275,39,0,380.2999999988824,0,0,experiment,NA,NA,0,0.9,0.1,0,1,115,3,NA
fcp-trial,156,1063315,0.0-125.0-0.0,voc_e2,11728,"[{""event"":""fullscreenenter"",""trial"":1,""time"":8245}]",NA,NA,NA,NA,NA,4,#3386FF,#D89F1C,0,10,0,38,1,2567.699999999255,37,1,317.90000000037253,0,0,experiment,NA,NA,1,0.3,0.7,3,2,116,3,NA
fcp-trial,157,1066030,0.0-126.0-0.0,voc_e2,11728,"[{""event"":""fullscreenenter"",""trial"":1,""time"":8245}]",NA,NA,NA,NA,NA,1,#1CD855,#FA92F8,10,0,1,38,1,743.8999999985099,39,0,461.90000000037253,0,0,experiment,NA,NA,0,0.9,0.1,0,1,117,3,NA
fcp-trial,158,1068819,0.0-127.0-0.0,voc_e2,11728,"[{""event"":""fullscreenenter"",""trial"":1,""time"":8245}]",NA,NA,NA,NA,NA,0,#D8271C,#741CD8,0,0,1,38,1,702.5,39,0,579.0999999996275,0,0,experiment,NA,NA,2,0.5,0.5,4,5,118,3,NA
fcp-trial,159,1071923,0.0-128.0-0.0,voc_e2,11728,"[{""event"":""fullscreenenter"",""trial"":1,""time"":8245}]",NA,NA,NA,NA,NA,5,#D89F1C,#3386FF,10,0,1,38,1,624.5999999996275,39,0,972.3000000007451,0,0,experiment,NA,NA,1,0.7,0.3,2,3,119,3,NA
fcp-trial,160,1074960,0.0-129.0-0.0,voc_e2,11728,"[{""event"":""fullscreenenter"",""trial"":1,""time"":8245}]",NA,NA,NA,NA,NA,2,#1CD855,#FA92F8,10,0,1,40,0,460.59999999962747,37,1,1058.3999999985099,10,1,experiment,NA,NA,0,0.9,0.1,0,1,120,3,NA
fcp-trial,161,1079597,0.0-130.0-0.0,voc_e2,11728,"[{""event"":""fullscreenenter"",""trial"":1,""time"":8245}]",NA,NA,NA,NA,NA,5,#D8271C,#741CD8,10,10,1,40,0,2487.4000000003725,39,0,636.4000000003725,10,0,experiment,NA,NA,2,0.5,0.5,4,5,121,3,NA
fcp-trial,162,1082829,0.0-131.0-0.0,voc_e2,11728,"[{""event"":""fullscreenenter"",""trial"":1,""time"":8245}]",NA,NA,NA,NA,NA,3,#D8271C,#741CD8,10,0,1,40,0,1155.5,39,0,568,0,0,experiment,NA,NA,2,0.5,0.5,4,5,122,3,NA
fcp-trial,163,1086331,0.0-132.0-0.0,voc_e2,11728,"[{""event"":""fullscreenenter"",""trial"":1,""time"":8245}]",NA,NA,NA,NA,NA,1,#3386FF,#D89F1C,0,10,0,40,0,1569.5999999996275,37,1,420.40000000037253,0,0,experiment,NA,NA,1,0.3,0.7,3,2,123,3,NA
fcp-trial,164,1089323,0.0-133.0-0.0,voc_e2,11728,"[{""event"":""fullscreenenter"",""trial"":1,""time"":8245}]",NA,NA,NA,NA,NA,5,#FA92F8,#1CD855,0,10,0,40,0,958.9000000003725,39,0,512.4000000003725,10,1,experiment,NA,NA,0,0.1,0.9,1,0,124,3,NA
fcp-trial,165,1092123,0.0-134.0-0.0,voc_e2,11728,"[{""event"":""fullscreenenter"",""trial"":1,""time"":8245}]",NA,NA,NA,NA,NA,0,#1CD855,#FA92F8,10,0,1,40,0,768.7999999988824,39,0,516.1999999992549,0,0,experiment,NA,NA,0,0.9,0.1,0,1,125,3,NA
fcp-trial,166,1094878,0.0-135.0-0.0,voc_e2,11728,"[{""event"":""fullscreenenter"",""trial"":1,""time"":8245}]",NA,NA,NA,NA,NA,4,#741CD8,#D8271C,0,10,0,40,0,767.4000000003725,37,1,471.5,0,0,experiment,NA,NA,2,0.5,0.5,5,4,126,3,NA
fcp-trial,167,1097803,0.0-136.0-0.0,voc_e2,11728,"[{""event"":""fullscreenenter"",""trial"":1,""time"":8245}]",NA,NA,NA,NA,NA,6,#3386FF,#D89F1C,0,10,0,40,0,917.5999999996275,37,1,497,0,0,experiment,NA,NA,1,0.3,0.7,3,2,127,3,NA
fcp-trial,168,1100939,0.0-137.0-0.0,voc_e2,11728,"[{""event"":""fullscreenenter"",""trial"":1,""time"":8245}]",NA,NA,NA,NA,NA,3,#741CD8,#D8271C,10,10,0,40,0,942.5,37,1,684.5999999996275,10,0,experiment,NA,NA,2,0.5,0.5,5,4,128,3,NA
fcp-trial,169,1104235,0.0-138.0-0.0,voc_e2,11728,"[{""event"":""fullscreenenter"",""trial"":1,""time"":8245}]",NA,NA,NA,NA,NA,2,#D8271C,#741CD8,10,0,1,40,0,746.3999999985099,39,0,1037.199999999255,0,0,experiment,NA,NA,2,0.5,0.5,4,5,129,3,NA
fcp-trial,170,1107728,0.0-139.0-0.0,voc_e2,11728,"[{""event"":""fullscreenenter"",""trial"":1,""time"":8245}]",NA,NA,NA,NA,NA,1,#FA92F8,#1CD855,0,10,0,40,0,1393.5,39,0,590.9000000003725,10,1,experiment,NA,NA,0,0.1,0.9,1,0,130,3,NA
fcp-trial,171,1110610,0.0-140.0-0.0,voc_e2,11728,"[{""event"":""fullscreenenter"",""trial"":1,""time"":8245}]",NA,NA,NA,NA,NA,5,#3386FF,#D89F1C,0,0,0,40,0,893.5,39,0,477.19999999925494,0,1,experiment,NA,NA,1,0.3,0.7,3,2,131,3,NA
fcp-trial,172,1113308,0.0-141.0-0.0,voc_e2,11728,"[{""event"":""fullscreenenter"",""trial"":1,""time"":8245}]",NA,NA,NA,NA,NA,4,#D8271C,#741CD8,0,0,1,40,0,695.0999999996275,39,0,488.09999999962747,0,0,experiment,NA,NA,2,0.5,0.5,4,5,132,3,NA
fcp-trial,173,1116759,0.0-142.0-0.0,voc_e2,11728,"[{""event"":""fullscreenenter"",""trial"":1,""time"":8245}]",NA,NA,NA,NA,NA,4,#1CD855,#FA92F8,10,10,1,40,0,1048.0999999996275,37,1,886.2000000011176,10,1,experiment,NA,NA,0,0.9,0.1,0,1,133,3,NA
fcp-trial,174,1120123,0.0-143.0-0.0,voc_e2,11728,"[{""event"":""fullscreenenter"",""trial"":1,""time"":8245}]",NA,NA,NA,NA,NA,2,#3386FF,#D89F1C,0,10,0,40,0,1181.5,37,1,658.2999999988824,0,0,experiment,NA,NA,1,0.3,0.7,3,2,134,3,NA
fcp-trial,175,1123683,0.0-144.0-0.0,voc_e2,11728,"[{""event"":""fullscreenenter"",""trial"":1,""time"":8245}]",NA,NA,NA,NA,NA,5,#741CD8,#D8271C,0,10,0,40,0,1080.0999999996275,39,0,961.3000000007451,10,1,experiment,NA,NA,2,0.5,0.5,5,4,135,3,NA
fcp-trial,176,1127660,0.0-145.0-0.0,voc_e2,11728,"[{""event"":""fullscreenenter"",""trial"":1,""time"":8245}]",NA,NA,NA,NA,NA,0,#3386FF,#D89F1C,0,10,0,40,0,1767.5999999996275,37,1,695.4000000003725,0,0,experiment,NA,NA,1,0.3,0.7,3,2,136,4,NA
fcp-trial,177,1131058,0.0-146.0-0.0,voc_e2,11728,"[{""event"":""fullscreenenter"",""trial"":1,""time"":8245}]",NA,NA,NA,NA,NA,5,#1CD855,#FA92F8,10,0,1,40,0,1250.5999999996275,39,0,634.2999999988824,0,0,experiment,NA,NA,0,0.9,0.1,0,1,137,4,NA
fcp-trial,178,1134111,0.0-147.0-0.0,voc_e2,11728,"[{""event"":""fullscreenenter"",""trial"":1,""time"":8245}]",NA,NA,NA,NA,NA,4,#D89F1C,#3386FF,10,0,1,38,1,371.59999999962747,39,0,1166.5999999996275,0,0,experiment,NA,NA,1,0.7,0.3,2,3,138,4,NA
fcp-trial,179,1137235,0.0-148.0-0.0,voc_e2,11728,"[{""event"":""fullscreenenter"",""trial"":1,""time"":8245}]",NA,NA,NA,NA,NA,6,#D8271C,#741CD8,10,0,1,38,1,1014.1999999992549,37,1,599.5,10,1,experiment,NA,NA,2,0.5,0.5,4,5,139,4,NA
fcp-trial,180,1142315,0.0-149.0-0.0,voc_e2,11728,"[{""event"":""fullscreenenter"",""trial"":1,""time"":8245}]",NA,NA,NA,NA,NA,0,#D8271C,#741CD8,0,0,1,38,1,1457.6000000014901,37,1,2111.5999999996275,0,1,experiment,NA,NA,2,0.5,0.5,4,5,140,4,NA
fcp-trial,181,1146288,0.0-150.0-0.0,voc_e2,11728,"[{""event"":""fullscreenenter"",""trial"":1,""time"":8245}]",NA,NA,NA,NA,NA,3,#1CD855,#FA92F8,10,0,1,38,1,1596.699999999255,39,0,860.5999999996275,0,0,experiment,NA,NA,0,0.9,0.1,0,1,141,4,NA
fcp-trial,182,1156547,0.0-151.0-0.0,voc_e2,11728,"[{""event"":""fullscreenenter"",""trial"":1,""time"":8245}]",NA,NA,NA,NA,NA,1,#D89F1C,#3386FF,10,0,1,38,1,2161.9000000003725,39,0,6577.699999999255,0,0,experiment,NA,NA,1,0.7,0.3,2,3,142,4,NA
fcp-trial,183,1162595,0.0-152.0-0.0,voc_e2,11728,"[{""event"":""fullscreenenter"",""trial"":1,""time"":8245}]",NA,NA,NA,NA,NA,6,#FA92F8,#1CD855,0,10,0,38,1,1464.5999999996275,37,1,3076.60000000149,0,0,experiment,NA,NA,0,0.1,0.9,1,0,143,4,NA
fcp-trial,184,1170142,0.0-153.0-0.0,voc_e2,11728,"[{""event"":""fullscreenenter"",""trial"":1,""time"":8245}]",NA,NA,NA,NA,NA,2,#1CD855,#FA92F8,10,0,1,38,1,1493.2000000011176,39,0,4539.799999998882,0,0,experiment,NA,NA,0,0.9,0.1,0,1,144,4,NA
fcp-trial,185,1174124,0.0-154.0-0.0,voc_e2,11728,"[{""event"":""fullscreenenter"",""trial"":1,""time"":8245}]",NA,NA,NA,NA,NA,1,#741CD8,#D8271C,0,10,0,40,0,1914.199999999255,39,0,551.4000000003725,10,1,experiment,NA,NA,2,0.5,0.5,5,4,145,4,NA
fcp-trial,186,1179419,0.0-155.0-0.0,voc_e2,11728,"[{""event"":""fullscreenenter"",""trial"":1,""time"":8245}]",NA,NA,NA,NA,NA,0,#FA92F8,#1CD855,10,10,0,40,0,2814.300000000745,37,1,970,10,0,experiment,NA,NA,0,0.1,0.9,1,0,146,4,NA
fcp-trial,187,1182905,0.0-156.0-0.0,voc_e2,11728,"[{""event"":""fullscreenenter"",""trial"":1,""time"":8245}]",NA,NA,NA,NA,NA,3,#D89F1C,#3386FF,0,10,1,38,1,1423.199999999255,39,0,539,10,0,experiment,NA,NA,1,0.7,0.3,2,3,147,4,NA
fcp-trial,188,1186140,0.0-157.0-0.0,voc_e2,11728,"[{""event"":""fullscreenenter"",""trial"":1,""time"":8245}]",NA,NA,NA,NA,NA,1,#3386FF,#D89F1C,10,0,0,38,1,790.6999999992549,39,0,927.1999999992549,0,1,experiment,NA,NA,1,0.3,0.7,3,2,148,4,NA
fcp-trial,189,1189059,0.0-158.0-0.0,voc_e2,11728,"[{""event"":""fullscreenenter"",""trial"":1,""time"":8245}]",NA,NA,NA,NA,NA,2,#D89F1C,#3386FF,10,0,1,38,1,915,37,1,492.80000000074506,10,1,experiment,NA,NA,1,0.7,0.3,2,3,149,4,NA
fcp-trial,190,1191341,0.0-159.0-0.0,voc_e2,11728,"[{""event"":""fullscreenenter"",""trial"":1,""time"":8245}]",NA,NA,NA,NA,NA,5,#1CD855,#FA92F8,10,0,1,40,0,109.20000000111759,37,1,653.0999999996275,10,1,experiment,NA,NA,0,0.9,0.1,0,1,150,4,NA
fcp-trial,191,1194342,0.0-160.0-0.0,voc_e2,11728,"[{""event"":""fullscreenenter"",""trial"":1,""time"":8245}]",NA,NA,NA,NA,NA,4,#3386FF,#D89F1C,0,0,0,38,1,776.6999999992549,37,1,714.3000000007451,0,0,experiment,NA,NA,1,0.3,0.7,3,2,151,4,NA
fcp-trial,192,1196791,0.0-161.0-0.0,voc_e2,11728,"[{""event"":""fullscreenenter"",""trial"":1,""time"":8245}]",NA,NA,NA,NA,NA,1,#FA92F8,#1CD855,0,10,0,38,1,427.7999999988824,39,0,508.80000000074506,10,1,experiment,NA,NA,0,0.1,0.9,1,0,152,4,NA
fcp-trial,193,1199625,0.0-162.0-0.0,voc_e2,11728,"[{""event"":""fullscreenenter"",""trial"":1,""time"":8245}]",NA,NA,NA,NA,NA,0,#D8271C,#741CD8,0,0,1,38,1,613.5999999996275,37,1,715.5,0,1,experiment,NA,NA,2,0.5,0.5,4,5,153,4,NA
fcp-trial,194,1202322,0.0-163.0-0.0,voc_e2,11728,"[{""event"":""fullscreenenter"",""trial"":1,""time"":8245}]",NA,NA,NA,NA,NA,5,#741CD8,#D8271C,10,10,0,38,1,492.30000000074506,39,0,697.3000000007451,10,1,experiment,NA,NA,2,0.5,0.5,5,4,154,4,NA
fcp-trial,195,1204651,0.0-164.0-0.0,voc_e2,11728,"[{""event"":""fullscreenenter"",""trial"":1,""time"":8245}]",NA,NA,NA,NA,NA,2,#D8271C,#741CD8,10,10,1,38,1,307.40000000037253,37,1,502.7000000011176,10,1,experiment,NA,NA,2,0.5,0.5,4,5,155,4,NA
fcp-trial,196,1207331,0.0-165.0-0.0,voc_e2,11728,"[{""event"":""fullscreenenter"",""trial"":1,""time"":8245}]",NA,NA,NA,NA,NA,6,#3386FF,#D89F1C,0,0,0,38,1,422.30000000074506,39,0,737.3000000007451,0,1,experiment,NA,NA,1,0.3,0.7,3,2,156,4,NA
fcp-trial,197,1209739,0.0-166.0-0.0,voc_e2,11728,"[{""event"":""fullscreenenter"",""trial"":1,""time"":8245}]",NA,NA,NA,NA,NA,6,#FA92F8,#1CD855,0,10,0,38,1,380,37,1,511.09999999962747,0,0,experiment,NA,NA,0,0.1,0.9,1,0,157,4,NA
fcp-trial,198,1212163,0.0-167.0-0.0,voc_e2,11728,"[{""event"":""fullscreenenter"",""trial"":1,""time"":8245}]",NA,NA,NA,NA,NA,3,#741CD8,#D8271C,10,10,0,38,1,513.6999999992549,39,0,403.6000000014901,10,1,experiment,NA,NA,2,0.5,0.5,5,4,158,4,NA
fcp-trial,199,1214859,0.0-168.0-0.0,voc_e2,11728,"[{""event"":""fullscreenenter"",""trial"":1,""time"":8245}]",NA,NA,NA,NA,NA,0,#D89F1C,#3386FF,10,0,1,38,1,374.5,39,0,810.8999999985099,0,0,experiment,NA,NA,1,0.7,0.3,2,3,159,4,NA
fcp-trial,200,1217851,0.0-169.0-0.0,voc_e2,11728,"[{""event"":""fullscreenenter"",""trial"":1,""time"":8245}]",NA,NA,NA,NA,NA,2,#1CD855,#FA92F8,10,0,1,38,1,841.7000000011176,37,1,641.7999999988824,10,1,experiment,NA,NA,0,0.9,0.1,0,1,160,4,NA
fcp-trial,201,1220189,0.0-170.0-0.0,voc_e2,11728,"[{""event"":""fullscreenenter"",""trial"":1,""time"":8245}]",NA,NA,NA,NA,NA,1,#D8271C,#741CD8,10,10,1,40,0,248.09999999962747,39,0,570.2000000011176,10,0,experiment,NA,NA,2,0.5,0.5,4,5,161,4,NA
fcp-trial,202,1222627,0.0-171.0-0.0,voc_e2,11728,"[{""event"":""fullscreenenter"",""trial"":1,""time"":8245}]",NA,NA,NA,NA,NA,5,#D89F1C,#3386FF,10,10,1,40,0,287,37,1,641.8999999985099,10,1,experiment,NA,NA,1,0.7,0.3,2,3,162,4,NA
fcp-trial,203,1225106,0.0-172.0-0.0,voc_e2,11728,"[{""event"":""fullscreenenter"",""trial"":1,""time"":8245}]",NA,NA,NA,NA,NA,3,#1CD855,#FA92F8,0,0,1,40,0,462.80000000074506,39,0,502.59999999962747,0,0,experiment,NA,NA,0,0.9,0.1,0,1,163,4,NA
fcp-trial,204,1227747,0.0-173.0-0.0,voc_e2,11728,"[{""event"":""fullscreenenter"",""trial"":1,""time"":8245}]",NA,NA,NA,NA,NA,6,#D8271C,#741CD8,10,10,1,40,0,350.1000000014901,39,0,778.3999999985099,10,0,experiment,NA,NA,2,0.5,0.5,4,5,164,4,NA
fcp-trial,205,1231299,0.0-174.0-0.0,voc_e2,11728,"[{""event"":""fullscreenenter"",""trial"":1,""time"":8245}]",NA,NA,NA,NA,NA,4,#D8271C,#741CD8,10,10,1,40,0,1360,37,1,678.2999999988824,10,1,experiment,NA,NA,2,0.5,0.5,4,5,165,4,NA
fcp-trial,206,1233672,0.0-175.0-0.0,voc_e2,11728,"[{""event"":""fullscreenenter"",""trial"":1,""time"":8245}]",NA,NA,NA,NA,NA,3,#D89F1C,#3386FF,10,10,1,40,0,257.19999999925494,39,0,609.0999999996275,10,0,experiment,NA,NA,1,0.7,0.3,2,3,166,4,NA
fcp-trial,207,1236131,0.0-176.0-0.0,voc_e2,11728,"[{""event"":""fullscreenenter"",""trial"":1,""time"":8245}]",NA,NA,NA,NA,NA,4,#1CD855,#FA92F8,10,0,1,40,0,278.90000000037253,39,0,673,0,0,experiment,NA,NA,0,0.9,0.1,0,1,167,4,NA
fcp-trial,208,1238459,0.0-177.0-0.0,voc_e2,11728,"[{""event"":""fullscreenenter"",""trial"":1,""time"":8245}]",NA,NA,NA,NA,NA,0,#FA92F8,#1CD855,10,10,0,40,0,225.7999999988824,37,1,581.6000000014901,10,0,experiment,NA,NA,0,0.1,0.9,1,0,168,4,NA
fcp-trial,209,1241275,0.0-178.0-0.0,voc_e2,11728,"[{""event"":""fullscreenenter"",""trial"":1,""time"":8245}]",NA,NA,NA,NA,NA,0,#1CD855,#FA92F8,0,0,1,40,0,530.9000000003725,37,1,770.6999999992549,0,1,experiment,NA,NA,0,0.9,0.1,0,1,169,4,NA
fcp-trial,210,1243699,0.0-179.0-0.0,voc_e2,11728,"[{""event"":""fullscreenenter"",""trial"":1,""time"":8245}]",NA,NA,NA,NA,NA,5,#3386FF,#D89F1C,10,0,0,40,0,311.5,37,1,603.5,10,0,experiment,NA,NA,1,0.3,0.7,3,2,170,4,NA
fcp-trial,211,1246404,0.0-180.0-0.0,voc_e2,11728,"[{""event"":""fullscreenenter"",""trial"":1,""time"":8245}]",NA,NA,NA,NA,NA,0,#3386FF,#D89F1C,10,10,0,38,1,596.5999999996275,37,1,589.8999999985099,10,0,experiment,NA,NA,1,0.3,0.7,3,2,171,4,NA
fcp-trial,212,1248604,0.0-181.0-0.0,voc_e2,11728,"[{""event"":""fullscreenenter"",""trial"":1,""time"":8245}]",NA,NA,NA,NA,NA,4,#1CD855,#FA92F8,10,0,1,38,1,113.69999999925494,39,0,570.7000000011176,0,0,experiment,NA,NA,0,0.9,0.1,0,1,172,4,NA
fcp-trial,213,1250843,0.0-182.0-0.0,voc_e2,11728,"[{""event"":""fullscreenenter"",""trial"":1,""time"":8245}]",NA,NA,NA,NA,NA,6,#D8271C,#741CD8,10,0,1,38,1,275.80000000074506,37,1,453.59999999962747,10,1,experiment,NA,NA,2,0.5,0.5,4,5,173,4,NA
fcp-trial,214,1253852,0.0-183.0-0.0,voc_e2,11728,"[{""event"":""fullscreenenter"",""trial"":1,""time"":8245}]",NA,NA,NA,NA,NA,5,#FA92F8,#1CD855,0,10,0,38,1,403,37,1,1091.7000000011176,0,0,experiment,NA,NA,0,0.1,0.9,1,0,174,4,NA
fcp-trial,215,1256537,0.0-184.0-0.0,voc_e2,11728,"[{""event"":""fullscreenenter"",""trial"":1,""time"":8245}]",NA,NA,NA,NA,NA,4,#D8271C,#741CD8,10,10,1,38,1,445.5,37,1,723.2999999988824,10,1,experiment,NA,NA,2,0.5,0.5,4,5,175,4,NA
fcp-trial,216,1259315,0.0-185.0-0.0,voc_e2,11728,"[{""event"":""fullscreenenter"",""trial"":1,""time"":8245}]",NA,NA,NA,NA,NA,2,#3386FF,#D89F1C,0,0,0,38,1,415.19999999925494,37,1,849.2000000011176,0,0,experiment,NA,NA,1,0.3,0.7,3,2,176,4,NA
fcp-trial,217,1261787,0.0-186.0-0.0,voc_e2,11728,"[{""event"":""fullscreenenter"",""trial"":1,""time"":8245}]",NA,NA,NA,NA,NA,6,#3386FF,#D89F1C,0,10,0,38,1,427.1000000014901,39,0,527.0999999996275,10,1,experiment,NA,NA,1,0.3,0.7,3,2,177,4,NA
fcp-trial,218,1264539,0.0-187.0-0.0,voc_e2,11728,"[{""event"":""fullscreenenter"",""trial"":1,""time"":8245}]",NA,NA,NA,NA,NA,0,#741CD8,#D8271C,10,10,0,38,1,332.59999999962747,39,0,902.7999999988824,10,1,experiment,NA,NA,2,0.5,0.5,5,4,178,4,NA
fcp-trial,219,1267337,0.0-188.0-0.0,voc_e2,11728,"[{""event"":""fullscreenenter"",""trial"":1,""time"":8245}]",NA,NA,NA,NA,NA,6,#1CD855,#FA92F8,10,0,1,38,1,455.5,37,1,828.5999999996275,10,1,experiment,NA,NA,0,0.9,0.1,0,1,179,4,NA
fcp-trial,220,1270100,0.0-189.0-0.0,voc_e2,11728,"[{""event"":""fullscreenenter"",""trial"":1,""time"":8245}]",NA,NA,NA,NA,NA,1,#3386FF,#D89F1C,10,10,0,38,1,272,39,0,971.8000000007451,10,1,experiment,NA,NA,1,0.3,0.7,3,2,180,4,NA
fcp-trial,221,1272923,0.0-190.0-0.0,voc_e2,11728,"[{""event"":""fullscreenenter"",""trial"":1,""time"":8245}]",NA,NA,NA,NA,NA,5,#741CD8,#D8271C,10,10,0,40,0,417.5,37,1,892.0999999996275,10,0,experiment,NA,NA,2,0.5,0.5,5,4,181,5,NA
fcp-trial,222,1276179,0.0-191.0-0.0,voc_e2,11728,"[{""event"":""fullscreenenter"",""trial"":1,""time"":8245}]",NA,NA,NA,NA,NA,2,#FA92F8,#1CD855,0,10,0,40,0,1041.7999999988824,37,1,699.9000000003725,0,0,experiment,NA,NA,0,0.1,0.9,1,0,182,5,NA
fcp-trial,223,1279437,0.0-192.0-0.0,voc_e2,11728,"[{""event"":""fullscreenenter"",""trial"":1,""time"":8245}]",NA,NA,NA,NA,NA,4,#3386FF,#D89F1C,0,10,0,40,0,1081.8999999985099,39,0,669.3000000007451,10,1,experiment,NA,NA,1,0.3,0.7,3,2,183,5,NA
fcp-trial,224,1282019,0.0-193.0-0.0,voc_e2,11728,"[{""event"":""fullscreenenter"",""trial"":1,""time"":8245}]",NA,NA,NA,NA,NA,2,#741CD8,#D8271C,10,10,0,40,0,356.90000000037253,39,0,712.3000000007451,10,1,experiment,NA,NA,2,0.5,0.5,5,4,184,5,NA
fcp-trial,225,1285043,0.0-194.0-0.0,voc_e2,11728,"[{""event"":""fullscreenenter"",""trial"":1,""time"":8245}]",NA,NA,NA,NA,NA,3,#D89F1C,#3386FF,10,0,1,40,0,255.09999999962747,37,1,1255.3999999985099,10,1,experiment,NA,NA,1,0.7,0.3,2,3,185,5,NA
fcp-trial,226,1288070,0.0-195.0-0.0,voc_e2,11728,"[{""event"":""fullscreenenter"",""trial"":1,""time"":8245}]",NA,NA,NA,NA,NA,3,#1CD855,#FA92F8,10,0,1,40,0,908,37,1,613.4000000003725,10,1,experiment,NA,NA,0,0.9,0.1,0,1,186,5,NA
fcp-trial,227,1290811,0.0-196.0-0.0,voc_e2,11728,"[{""event"":""fullscreenenter"",""trial"":1,""time"":8245}]",NA,NA,NA,NA,NA,1,#D8271C,#741CD8,0,0,1,40,0,741.0999999996275,39,0,493.40000000037253,0,0,experiment,NA,NA,2,0.5,0.5,4,5,187,5,NA
fcp-trial,228,1293369,0.0-197.0-0.0,voc_e2,11728,"[{""event"":""fullscreenenter"",""trial"":1,""time"":8245}]",NA,NA,NA,NA,NA,3,#D8271C,#741CD8,10,0,1,40,0,278.40000000037253,37,1,767.0999999996275,10,1,experiment,NA,NA,2,0.5,0.5,4,5,188,5,NA
fcp-trial,229,1295885,0.0-198.0-0.0,voc_e2,11728,"[{""event"":""fullscreenenter"",""trial"":1,""time"":8245}]",NA,NA,NA,NA,NA,1,#1CD855,#FA92F8,10,0,1,40,0,283.40000000037253,39,0,726.3000000007451,0,0,experiment,NA,NA,0,0.9,0.1,0,1,189,5,NA
fcp-trial,230,1298539,0.0-199.0-0.0,voc_e2,11728,"[{""event"":""fullscreenenter"",""trial"":1,""time"":8245}]",NA,NA,NA,NA,NA,5,#D8271C,#741CD8,10,10,1,40,0,334,39,0,811.2000000011176,10,0,experiment,NA,NA,2,0.5,0.5,4,5,190,5,NA
fcp-trial,231,1301587,0.0-200.0-0.0,voc_e2,11728,"[{""event"":""fullscreenenter"",""trial"":1,""time"":8245}]",NA,NA,NA,NA,NA,1,#D8271C,#741CD8,10,10,1,38,1,613.6999999992549,37,1,925.1000000014901,10,1,experiment,NA,NA,2,0.5,0.5,4,5,191,5,NA
fcp-trial,232,1304236,0.0-201.0-0.0,voc_e2,11728,"[{""event"":""fullscreenenter"",""trial"":1,""time"":8245}]",NA,NA,NA,NA,NA,6,#1CD855,#FA92F8,10,0,1,38,1,578.2000000011176,37,1,560.4000000003725,10,1,experiment,NA,NA,0,0.9,0.1,0,1,192,5,NA
fcp-trial,233,1307301,0.0-202.0-0.0,voc_e2,11728,"[{""event"":""fullscreenenter"",""trial"":1,""time"":8245}]",NA,NA,NA,NA,NA,0,#3386FF,#D89F1C,0,10,0,38,1,473,39,0,1086.300000000745,10,1,experiment,NA,NA,1,0.3,0.7,3,2,193,5,NA
fcp-trial,234,1309859,0.0-203.0-0.0,voc_e2,11728,"[{""event"":""fullscreenenter"",""trial"":1,""time"":8245}]",NA,NA,NA,NA,NA,5,#3386FF,#D89F1C,0,10,0,38,1,529,39,0,521.2999999988824,10,1,experiment,NA,NA,1,0.3,0.7,3,2,194,5,NA
fcp-trial,235,1312675,0.0-204.0-0.0,voc_e2,11728,"[{""event"":""fullscreenenter"",""trial"":1,""time"":8245}]",NA,NA,NA,NA,NA,5,#FA92F8,#1CD855,0,10,0,38,1,637.0999999996275,39,0,667.5999999996275,10,1,experiment,NA,NA,0,0.1,0.9,1,0,195,5,NA
fcp-trial,236,1315632,0.0-205.0-0.0,voc_e2,11728,"[{""event"":""fullscreenenter"",""trial"":1,""time"":8245}]",NA,NA,NA,NA,NA,0,#741CD8,#D8271C,10,10,0,38,1,812.1999999992549,39,0,629.8000000007451,10,1,experiment,NA,NA,2,0.5,0.5,5,4,196,5,NA
fcp-trial,237,1318627,0.0-206.0-0.0,voc_e2,11728,"[{""event"":""fullscreenenter"",""trial"":1,""time"":8245}]",NA,NA,NA,NA,NA,1,#D89F1C,#3386FF,10,0,1,38,1,749.5,39,0,728.7000000011176,0,0,experiment,NA,NA,1,0.7,0.3,2,3,197,5,NA
fcp-trial,238,1322268,0.0-207.0-0.0,voc_e2,11728,"[{""event"":""fullscreenenter"",""trial"":1,""time"":8245}]",NA,NA,NA,NA,NA,6,#D89F1C,#3386FF,10,0,1,38,1,1519.3999999985099,39,0,606.1000000014901,0,0,experiment,NA,NA,1,0.7,0.3,2,3,198,5,NA
fcp-trial,239,1325187,0.0-208.0-0.0,voc_e2,11728,"[{""event"":""fullscreenenter"",""trial"":1,""time"":8245}]",NA,NA,NA,NA,NA,1,#FA92F8,#1CD855,0,10,0,38,1,730.7999999988824,37,1,676.2000000011176,0,0,experiment,NA,NA,0,0.1,0.9,1,0,199,5,NA
fcp-trial,240,1329800,0.0-209.0-0.0,voc_e2,11728,"[{""event"":""fullscreenenter"",""trial"":1,""time"":8245}]",NA,NA,NA,NA,NA,3,#D8271C,#741CD8,0,10,1,38,1,2101.7000000011176,37,1,1002.2000000011176,0,1,experiment,NA,NA,2,0.5,0.5,4,5,200,5,NA
fcp-trial,241,1333507,0.0-210.0-0.0,voc_e2,11728,"[{""event"":""fullscreenenter"",""trial"":1,""time"":8245}]",NA,NA,NA,NA,NA,2,#FA92F8,#1CD855,0,10,0,40,0,1045.9000000003725,37,1,1149.5,0,0,experiment,NA,NA,0,0.1,0.9,1,0,201,5,NA
fcp-trial,242,1336571,0.0-211.0-0.0,voc_e2,11728,"[{""event"":""fullscreenenter"",""trial"":1,""time"":8245}]",NA,NA,NA,NA,NA,4,#3386FF,#D89F1C,0,10,0,40,0,612.0999999996275,39,0,940.4000000003725,10,1,experiment,NA,NA,1,0.3,0.7,3,2,202,5,NA
fcp-trial,243,1339843,0.0-212.0-0.0,voc_e2,11728,"[{""event"":""fullscreenenter"",""trial"":1,""time"":8245}]",NA,NA,NA,NA,NA,2,#D8271C,#741CD8,0,0,1,40,0,1111.5,39,0,652,0,0,experiment,NA,NA,2,0.5,0.5,4,5,203,5,NA
fcp-trial,244,1342875,0.0-213.0-0.0,voc_e2,11728,"[{""event"":""fullscreenenter"",""trial"":1,""time"":8245}]",NA,NA,NA,NA,NA,6,#D8271C,#741CD8,0,10,1,40,0,800.7000000011176,39,0,717.3000000007451,10,0,experiment,NA,NA,2,0.5,0.5,4,5,204,5,NA
fcp-trial,245,1346187,0.0-214.0-0.0,voc_e2,11728,"[{""event"":""fullscreenenter"",""trial"":1,""time"":8245}]",NA,NA,NA,NA,NA,4,#FA92F8,#1CD855,0,10,0,40,0,972.8000000007451,37,1,827.8999999985099,0,0,experiment,NA,NA,0,0.1,0.9,1,0,205,5,NA
fcp-trial,246,1349133,0.0-215.0-0.0,voc_e2,11728,"[{""event"":""fullscreenenter"",""trial"":1,""time"":8245}]",NA,NA,NA,NA,NA,4,#D8271C,#741CD8,0,10,1,40,0,995.5999999996275,37,1,435.90000000037253,0,1,experiment,NA,NA,2,0.5,0.5,4,5,206,5,NA
fcp-trial,247,1352403,0.0-216.0-0.0,voc_e2,11728,"[{""event"":""fullscreenenter"",""trial"":1,""time"":8245}]",NA,NA,NA,NA,NA,2,#3386FF,#D89F1C,0,10,0,40,0,1089.4000000003725,37,1,666.8000000007451,0,0,experiment,NA,NA,1,0.3,0.7,3,2,207,5,NA
fcp-trial,248,1355075,0.0-217.0-0.0,voc_e2,11728,"[{""event"":""fullscreenenter"",""trial"":1,""time"":8245}]",NA,NA,NA,NA,NA,3,#D89F1C,#3386FF,10,10,1,40,0,379.40000000037253,37,1,774.2999999988824,10,1,experiment,NA,NA,1,0.7,0.3,2,3,208,5,NA
fcp-trial,249,1357395,0.0-218.0-0.0,voc_e2,11728,"[{""event"":""fullscreenenter"",""trial"":1,""time"":8245}]",NA,NA,NA,NA,NA,3,#FA92F8,#1CD855,0,0,0,40,0,84,37,1,726.0999999996275,0,0,experiment,NA,NA,0,0.1,0.9,1,0,209,5,NA
fcp-trial,250,1359955,0.0-219.0-0.0,voc_e2,11728,"[{""event"":""fullscreenenter"",""trial"":1,""time"":8245}]",NA,NA,NA,NA,NA,0,#1CD855,#FA92F8,10,10,1,40,0,237,37,1,802,10,1,experiment,NA,NA,0,0.9,0.1,0,1,210,5,NA
audio-instructions,251,2809537,0.0-220.0,voc_e2,11728,"[{""event"":""fullscreenenter"",""trial"":1,""time"":8245}]",NA,1445056.2999999989,static/audio/pause.wav,NA,0,NA,NA,NA,NA,NA,NA,NA,NA,NA,NA,NA,NA,NA,NA,NA,NA,NA,NA,NA,NA,NA,NA,NA,NA,NA
fcp-trial,252,2812627,0.0-221.0-0.0,voc_e2,11728,"[{""event"":""fullscreenenter"",""trial"":1,""time"":8245}]",NA,NA,NA,NA,NA,6,#D8271C,#741CD8,0,0,1,40,0,1027.9000000003725,39,0,542,0,0,experiment,NA,NA,2,0.5,0.5,4,5,211,5,NA
fcp-trial,253,2815795,0.0-222.0-0.0,voc_e2,11728,"[{""event"":""fullscreenenter"",""trial"":1,""time"":8245}]",NA,NA,NA,NA,NA,4,#3386FF,#D89F1C,0,10,0,40,0,1097.2999999988824,37,1,552.6999999992549,0,0,experiment,NA,NA,1,0.3,0.7,3,2,212,5,NA
fcp-trial,254,2818259,0.0-223.0-0.0,voc_e2,11728,"[{""event"":""fullscreenenter"",""trial"":1,""time"":8245}]",NA,NA,NA,NA,NA,6,#1CD855,#FA92F8,10,0,1,40,0,604.5,39,0,336.7000000011176,0,0,experiment,NA,NA,0,0.9,0.1,0,1,213,5,NA
fcp-trial,255,2821400,0.0-224.0-0.0,voc_e2,11728,"[{""event"":""fullscreenenter"",""trial"":1,""time"":8245}]",NA,NA,NA,NA,NA,1,#D8271C,#741CD8,10,10,1,38,1,338.5,37,1,1285.3999999985099,10,1,experiment,NA,NA,2,0.5,0.5,4,5,214,5,NA
fcp-trial,256,2824227,0.0-225.0-0.0,voc_e2,11728,"[{""event"":""fullscreenenter"",""trial"":1,""time"":8245}]",NA,NA,NA,NA,NA,4,#741CD8,#D8271C,10,10,0,38,1,1005.0999999996275,39,0,309.80000000074506,10,1,experiment,NA,NA,2,0.5,0.5,5,4,215,5,NA
fcp-trial,257,2827675,0.0-226.0-0.0,voc_e2,11728,"[{""event"":""fullscreenenter"",""trial"":1,""time"":8245}]",NA,NA,NA,NA,NA,6,#D89F1C,#3386FF,0,0,1,40,0,1263.699999999255,37,1,666.9000000003725,0,1,experiment,NA,NA,1,0.7,0.3,2,3,216,5,NA
fcp-trial,258,2830555,0.0-227.0-0.0,voc_e2,11728,"[{""event"":""fullscreenenter"",""trial"":1,""time"":8245}]",NA,NA,NA,NA,NA,5,#741CD8,#D8271C,10,0,0,38,1,840.3000000007451,39,0,522.5,0,1,experiment,NA,NA,2,0.5,0.5,5,4,217,5,NA
fcp-trial,259,2833348,0.0-228.0-0.0,voc_e2,11728,"[{""event"":""fullscreenenter"",""trial"":1,""time"":8245}]",NA,NA,NA,NA,NA,1,#FA92F8,#1CD855,0,10,0,40,0,573.0999999996275,37,1,701.4000000003725,0,0,experiment,NA,NA,0,0.1,0.9,1,0,218,5,NA
fcp-trial,260,2838787,0.0-229.0-0.0,voc_e2,11728,"[{""event"":""fullscreenenter"",""trial"":1,""time"":8245}]",NA,NA,NA,NA,NA,0,#D89F1C,#3386FF,10,0,1,38,1,3498.5999999996275,39,0,425.69999999925494,0,0,experiment,NA,NA,1,0.7,0.3,2,3,219,5,NA
fcp-trial,261,2841491,0.0-230.0-0.0,voc_e2,11728,"[{""event"":""fullscreenenter"",""trial"":1,""time"":8245}]",NA,NA,NA,NA,NA,5,#D89F1C,#3386FF,10,0,1,38,1,679,39,0,517.2999999988824,0,0,experiment,NA,NA,1,0.7,0.3,2,3,220,5,NA
fcp-trial,262,2843966,0.0-231.0-0.0,voc_e2,11728,"[{""event"":""fullscreenenter"",""trial"":1,""time"":8245}]",NA,NA,NA,NA,NA,0,#D8271C,#741CD8,0,10,1,38,1,508.2000000011176,37,1,439.7000000011176,0,1,experiment,NA,NA,2,0.5,0.5,4,5,221,5,NA
fcp-trial,263,2846707,0.0-232.0-0.0,voc_e2,11728,"[{""event"":""fullscreenenter"",""trial"":1,""time"":8245}]",NA,NA,NA,NA,NA,5,#1CD855,#FA92F8,10,0,1,38,1,839.0999999996275,39,0,393.3999999985099,0,0,experiment,NA,NA,0,0.9,0.1,0,1,222,5,NA
fcp-trial,264,2849587,0.0-233.0-0.0,voc_e2,11728,"[{""event"":""fullscreenenter"",""trial"":1,""time"":8245}]",NA,NA,NA,NA,NA,4,#FA92F8,#1CD855,0,10,0,38,1,394,37,1,971.4000000003725,0,0,experiment,NA,NA,0,0.1,0.9,1,0,223,5,NA
fcp-trial,265,2853013,0.0-234.0-0.0,voc_e2,11728,"[{""event"":""fullscreenenter"",""trial"":1,""time"":8245}]",NA,NA,NA,NA,NA,1,#3386FF,#D89F1C,10,10,0,38,1,1089.699999999255,39,0,831,10,1,experiment,NA,NA,1,0.3,0.7,3,2,224,5,NA
fcp-trial,266,2855987,0.0-235.0-0.0,voc_e2,11728,"[{""event"":""fullscreenenter"",""trial"":1,""time"":8245}]",NA,NA,NA,NA,NA,0,#FA92F8,#1CD855,0,10,0,38,1,821.3000000007451,37,1,642.0999999996275,0,0,experiment,NA,NA,0,0.1,0.9,1,0,225,5,NA
fcp-trial,267,2859129,0.0-236.0-0.0,voc_e2,11728,"[{""event"":""fullscreenenter"",""trial"":1,""time"":8245}]",NA,NA,NA,NA,NA,3,#D8271C,#741CD8,0,10,1,38,1,1173.300000000745,37,1,455.2000000011176,0,1,experiment,NA,NA,2,0.5,0.5,4,5,226,6,NA
fcp-trial,268,2862177,0.0-237.0-0.0,voc_e2,11728,"[{""event"":""fullscreenenter"",""trial"":1,""time"":8245}]",NA,NA,NA,NA,NA,3,#FA92F8,#1CD855,0,10,0,38,1,854.4000000003725,37,1,681.3000000007451,0,0,experiment,NA,NA,0,0.1,0.9,1,0,227,6,NA
fcp-trial,269,2864507,0.0-238.0-0.0,voc_e2,11728,"[{""event"":""fullscreenenter"",""trial"":1,""time"":8245}]",NA,NA,NA,NA,NA,3,#3386FF,#D89F1C,0,10,0,38,1,295.7000000011176,37,1,516.6000000014901,0,0,experiment,NA,NA,1,0.3,0.7,3,2,228,6,NA
fcp-trial,270,2868739,0.0-239.0-0.0,voc_e2,11728,"[{""event"":""fullscreenenter"",""trial"":1,""time"":8245}]",NA,NA,NA,NA,NA,2,#FA92F8,#1CD855,0,10,0,40,0,2198.2999999988824,37,1,510.2999999988824,0,0,experiment,NA,NA,0,0.1,0.9,1,0,229,6,NA
fcp-trial,271,2871004,0.0-240.0-0.0,voc_e2,11728,"[{""event"":""fullscreenenter"",""trial"":1,""time"":8245}]",NA,NA,NA,NA,NA,2,#741CD8,#D8271C,0,10,0,40,0,84.30000000074506,37,1,662.7000000011176,0,0,experiment,NA,NA,2,0.5,0.5,5,4,230,6,NA
fcp-trial,272,2873108,0.0-241.0-0.0,voc_e2,11728,"[{""event"":""fullscreenenter"",""trial"":1,""time"":8245}]",NA,NA,NA,NA,NA,2,#D89F1C,#3386FF,10,0,1,38,1,246.40000000037253,39,0,343.8999999985099,0,0,experiment,NA,NA,1,0.7,0.3,2,3,231,6,NA
fcp-trial,273,2875491,0.0-242.0-0.0,voc_e2,11728,"[{""event"":""fullscreenenter"",""trial"":1,""time"":8245}]",NA,NA,NA,NA,NA,3,#D89F1C,#3386FF,0,0,1,38,1,509,37,1,358.69999999925494,0,1,experiment,NA,NA,1,0.7,0.3,2,3,232,6,NA
fcp-trial,274,2877794,0.0-243.0-0.0,voc_e2,11728,"[{""event"":""fullscreenenter"",""trial"":1,""time"":8245}]",NA,NA,NA,NA,NA,2,#741CD8,#D8271C,0,0,0,38,1,357.2000000011176,39,0,423.40000000037253,0,1,experiment,NA,NA,2,0.5,0.5,5,4,233,6,NA
fcp-trial,275,2880561,0.0-244.0-0.0,voc_e2,11728,"[{""event"":""fullscreenenter"",""trial"":1,""time"":8245}]",NA,NA,NA,NA,NA,0,#741CD8,#D8271C,10,10,0,38,1,596,39,0,655.0999999996275,10,1,experiment,NA,NA,2,0.5,0.5,5,4,234,6,NA
fcp-trial,276,2885003,0.0-245.0-0.0,voc_e2,11728,"[{""event"":""fullscreenenter"",""trial"":1,""time"":8245}]",NA,NA,NA,NA,NA,3,#1CD855,#FA92F8,10,0,1,38,1,1171.0999999996275,37,1,1753.7000000011176,10,1,experiment,NA,NA,0,0.9,0.1,0,1,235,6,NA
fcp-trial,277,2888396,0.0-246.0-0.0,voc_e2,11728,"[{""event"":""fullscreenenter"",""trial"":1,""time"":8245}]",NA,NA,NA,NA,NA,1,#D89F1C,#3386FF,10,0,1,38,1,1163.3999999985099,39,0,714.5999999996275,0,0,experiment,NA,NA,1,0.7,0.3,2,3,236,6,NA
fcp-trial,278,2891403,0.0-247.0-0.0,voc_e2,11728,"[{""event"":""fullscreenenter"",""trial"":1,""time"":8245}]",NA,NA,NA,NA,NA,6,#1CD855,#FA92F8,10,0,1,38,1,951.9000000003725,39,0,544.5999999996275,0,0,experiment,NA,NA,0,0.9,0.1,0,1,237,6,NA
fcp-trial,279,2894555,0.0-248.0-0.0,voc_e2,11728,"[{""event"":""fullscreenenter"",""trial"":1,""time"":8245}]",NA,NA,NA,NA,NA,6,#741CD8,#D8271C,0,10,0,38,1,1038.5,39,0,587.6000000014901,10,1,experiment,NA,NA,2,0.5,0.5,5,4,238,6,NA
fcp-trial,280,2898428,0.0-249.0-0.0,voc_e2,11728,"[{""event"":""fullscreenenter"",""trial"":1,""time"":8245}]",NA,NA,NA,NA,NA,1,#741CD8,#D8271C,10,0,0,38,1,1184.699999999255,39,0,1178,0,1,experiment,NA,NA,2,0.5,0.5,5,4,239,6,NA
fcp-trial,281,2902283,0.0-250.0-0.0,voc_e2,11728,"[{""event"":""fullscreenenter"",""trial"":1,""time"":8245}]",NA,NA,NA,NA,NA,5,#D89F1C,#3386FF,0,0,1,38,1,1620.5,39,0,724.5,0,0,experiment,NA,NA,1,0.7,0.3,2,3,240,6,NA
fcp-trial,282,2905299,0.0-251.0-0.0,voc_e2,11728,"[{""event"":""fullscreenenter"",""trial"":1,""time"":8245}]",NA,NA,NA,NA,NA,4,#1CD855,#FA92F8,10,0,1,38,1,809.3000000007451,39,0,701.9000000003725,0,0,experiment,NA,NA,0,0.9,0.1,0,1,241,6,NA
fcp-trial,283,2908539,0.0-252.0-0.0,voc_e2,11728,"[{""event"":""fullscreenenter"",""trial"":1,""time"":8245}]",NA,NA,NA,NA,NA,5,#1CD855,#FA92F8,10,0,1,38,1,1227.5,39,0,498.5,0,0,experiment,NA,NA,0,0.9,0.1,0,1,242,6,NA
fcp-trial,284,2911139,0.0-253.0-0.0,voc_e2,11728,"[{""event"":""fullscreenenter"",""trial"":1,""time"":8245}]",NA,NA,NA,NA,NA,4,#741CD8,#D8271C,0,0,0,38,1,644.0999999996275,39,0,436.6000000014901,0,1,experiment,NA,NA,2,0.5,0.5,5,4,243,6,NA
fcp-trial,285,2914029,0.0-254.0-0.0,voc_e2,11728,"[{""event"":""fullscreenenter"",""trial"":1,""time"":8245}]",NA,NA,NA,NA,NA,6,#3386FF,#D89F1C,10,0,0,38,1,637.6000000014901,37,1,729.9000000003725,10,0,experiment,NA,NA,1,0.3,0.7,3,2,244,6,NA
fcp-trial,286,2916483,0.0-255.0-0.0,voc_e2,11728,"[{""event"":""fullscreenenter"",""trial"":1,""time"":8245}]",NA,NA,NA,NA,NA,3,#741CD8,#D8271C,0,0,0,38,1,526.9000000003725,39,0,421.69999999925494,0,1,experiment,NA,NA,2,0.5,0.5,5,4,245,6,NA
fcp-trial,287,2920243,0.0-256.0-0.0,voc_e2,11728,"[{""event"":""fullscreenenter"",""trial"":1,""time"":8245}]",NA,NA,NA,NA,NA,0,#3386FF,#D89F1C,0,10,0,38,1,1733.9000000003725,39,0,516.3000000007451,10,1,experiment,NA,NA,1,0.3,0.7,3,2,246,6,NA
fcp-trial,288,2922867,0.0-257.0-0.0,voc_e2,11728,"[{""event"":""fullscreenenter"",""trial"":1,""time"":8245}]",NA,NA,NA,NA,NA,1,#FA92F8,#1CD855,0,10,0,38,1,655.5999999996275,37,1,460.40000000037253,0,0,experiment,NA,NA,0,0.1,0.9,1,0,247,6,NA
fcp-trial,289,2925379,0.0-258.0-0.0,voc_e2,11728,"[{""event"":""fullscreenenter"",""trial"":1,""time"":8245}]",NA,NA,NA,NA,NA,5,#D8271C,#741CD8,10,0,1,38,1,546.5999999996275,37,1,449.2999999988824,10,1,experiment,NA,NA,2,0.5,0.5,4,5,248,6,NA
fcp-trial,290,2927731,0.0-259.0-0.0,voc_e2,11728,"[{""event"":""fullscreenenter"",""trial"":1,""time"":8245}]",NA,NA,NA,NA,NA,4,#3386FF,#D89F1C,0,10,0,38,1,283.90000000037253,39,0,554.9000000003725,10,1,experiment,NA,NA,1,0.3,0.7,3,2,249,6,NA
fcp-trial,291,2931147,0.0-260.0-0.0,voc_e2,11728,"[{""event"":""fullscreenenter"",""trial"":1,""time"":8245}]",NA,NA,NA,NA,NA,0,#FA92F8,#1CD855,0,10,0,38,1,1278.199999999255,37,1,628.4000000003725,0,0,experiment,NA,NA,0,0.1,0.9,1,0,250,6,NA
fcp-trial,292,2934116,0.0-261.0-0.0,voc_e2,11728,"[{""event"":""fullscreenenter"",""trial"":1,""time"":8245}]",NA,NA,NA,NA,NA,2,#D89F1C,#3386FF,10,10,1,38,1,944.0999999996275,39,0,514.3999999985099,10,0,experiment,NA,NA,1,0.7,0.3,2,3,251,6,NA
fcp-trial,293,2936542,0.0-262.0-0.0,voc_e2,11728,"[{""event"":""fullscreenenter"",""trial"":1,""time"":8245}]",NA,NA,NA,NA,NA,2,#1CD855,#FA92F8,10,0,1,38,1,533.4000000003725,39,0,378.5,0,0,experiment,NA,NA,0,0.9,0.1,0,1,252,6,NA
fcp-trial,294,2939457,0.0-263.0-0.0,voc_e2,11728,"[{""event"":""fullscreenenter"",""trial"":1,""time"":8245}]",NA,NA,NA,NA,NA,1,#1CD855,#FA92F8,10,0,1,38,1,886.5999999996275,39,0,510.5,0,0,experiment,NA,NA,0,0.9,0.1,0,1,253,6,NA
fcp-trial,295,2942093,0.0-264.0-0.0,voc_e2,11728,"[{""event"":""fullscreenenter"",""trial"":1,""time"":8245}]",NA,NA,NA,NA,NA,5,#D8271C,#741CD8,10,0,1,40,0,728.8000000007451,37,1,390.5,10,1,experiment,NA,NA,2,0.5,0.5,4,5,254,6,NA
fcp-trial,296,2945403,0.0-265.0-0.0,voc_e2,11728,"[{""event"":""fullscreenenter"",""trial"":1,""time"":8245}]",NA,NA,NA,NA,NA,4,#FA92F8,#1CD855,0,10,0,40,0,1267.4000000003725,39,0,524.0999999996275,10,1,experiment,NA,NA,0,0.1,0.9,1,0,255,6,NA
fcp-trial,297,2948275,0.0-266.0-0.0,voc_e2,11728,"[{""event"":""fullscreenenter"",""trial"":1,""time"":8245}]",NA,NA,NA,NA,NA,4,#3386FF,#D89F1C,0,10,0,40,0,820,39,0,538.3000000007451,10,1,experiment,NA,NA,1,0.3,0.7,3,2,256,6,NA
fcp-trial,298,2951283,0.0-267.0-0.0,voc_e2,11728,"[{""event"":""fullscreenenter"",""trial"":1,""time"":8245}]",NA,NA,NA,NA,NA,5,#FA92F8,#1CD855,0,10,0,40,0,689.4000000003725,39,0,807.5,10,1,experiment,NA,NA,0,0.1,0.9,1,0,257,6,NA
fcp-trial,299,2954025,0.0-268.0-0.0,voc_e2,11728,"[{""event"":""fullscreenenter"",""trial"":1,""time"":8245}]",NA,NA,NA,NA,NA,1,#741CD8,#D8271C,0,10,0,38,1,790.2999999988824,39,0,420.90000000037253,10,1,experiment,NA,NA,2,0.5,0.5,5,4,258,6,NA
fcp-trial,300,2957379,0.0-269.0-0.0,voc_e2,11728,"[{""event"":""fullscreenenter"",""trial"":1,""time"":8245}]",NA,NA,NA,NA,NA,6,#3386FF,#D89F1C,0,10,0,40,0,1411.800000000745,39,0,434.8999999985099,10,1,experiment,NA,NA,1,0.3,0.7,3,2,259,6,NA
fcp-trial,301,2960675,0.0-270.0-0.0,voc_e2,11728,"[{""event"":""fullscreenenter"",""trial"":1,""time"":8245}]",NA,NA,NA,NA,NA,0,#3386FF,#D89F1C,10,10,0,38,1,1029.9000000003725,39,0,754.5,10,1,experiment,NA,NA,1,0.3,0.7,3,2,260,6,NA
fcp-trial,302,2964041,0.0-271.0-0.0,voc_e2,11728,"[{""event"":""fullscreenenter"",""trial"":1,""time"":8245}]",NA,NA,NA,NA,NA,6,#741CD8,#D8271C,10,0,0,40,0,1344.0999999996275,39,0,509.40000000037253,0,1,experiment,NA,NA,2,0.5,0.5,5,4,261,6,NA
fcp-trial,303,2968162,0.0-272.0-0.0,voc_e2,11728,"[{""event"":""fullscreenenter"",""trial"":1,""time"":8245}]",NA,NA,NA,NA,NA,0,#1CD855,#FA92F8,10,10,1,38,1,2006.5999999996275,39,0,600,10,0,experiment,NA,NA,0,0.9,0.1,0,1,262,6,NA
fcp-trial,304,2971156,0.0-273.0-0.0,voc_e2,11728,"[{""event"":""fullscreenenter"",""trial"":1,""time"":8245}]",NA,NA,NA,NA,NA,0,#D8271C,#741CD8,0,10,1,38,1,1077.800000000745,37,1,401.3999999985099,0,1,experiment,NA,NA,2,0.5,0.5,4,5,263,6,NA
fcp-trial,305,2974491,0.0-274.0-0.0,voc_e2,11728,"[{""event"":""fullscreenenter"",""trial"":1,""time"":8245}]",NA,NA,NA,NA,NA,3,#FA92F8,#1CD855,0,10,0,38,1,1205.2000000011176,37,1,613.3000000007451,0,0,experiment,NA,NA,0,0.1,0.9,1,0,264,6,NA
fcp-trial,306,2977451,0.0-275.0-0.0,voc_e2,11728,"[{""event"":""fullscreenenter"",""trial"":1,""time"":8245}]",NA,NA,NA,NA,NA,1,#D89F1C,#3386FF,10,0,1,40,0,747.2999999988824,37,1,700.0999999996275,10,1,experiment,NA,NA,1,0.7,0.3,2,3,265,6,NA
fcp-trial,307,2980283,0.0-276.0-0.0,voc_e2,11728,"[{""event"":""fullscreenenter"",""trial"":1,""time"":8245}]",NA,NA,NA,NA,NA,2,#D89F1C,#3386FF,10,0,1,40,0,956.8000000007451,39,0,363.7999999988824,0,0,experiment,NA,NA,1,0.7,0.3,2,3,266,6,NA
fcp-trial,308,2983441,0.0-277.0-0.0,voc_e2,11728,"[{""event"":""fullscreenenter"",""trial"":1,""time"":8245}]",NA,NA,NA,NA,NA,6,#FA92F8,#1CD855,0,10,0,40,0,1154.9000000003725,39,0,490.3999999985099,10,1,experiment,NA,NA,0,0.1,0.9,1,0,267,6,NA
fcp-trial,309,2986395,0.0-278.0-0.0,voc_e2,11728,"[{""event"":""fullscreenenter"",""trial"":1,""time"":8245}]",NA,NA,NA,NA,NA,3,#D8271C,#741CD8,10,10,1,38,1,1015.6999999992549,37,1,425.80000000074506,10,1,experiment,NA,NA,2,0.5,0.5,4,5,268,6,NA
fcp-trial,310,2990499,0.0-279.0-0.0,voc_e2,11728,"[{""event"":""fullscreenenter"",""trial"":1,""time"":8245}]",NA,NA,NA,NA,NA,2,#741CD8,#D8271C,10,10,0,38,1,2244.9000000003725,39,0,346.90000000037253,10,1,experiment,NA,NA,2,0.5,0.5,5,4,269,6,NA
fcp-trial,311,2994667,0.0-280.0-0.0,voc_e2,11728,"[{""event"":""fullscreenenter"",""trial"":1,""time"":8245}]",NA,NA,NA,NA,NA,3,#3386FF,#D89F1C,0,0,0,40,0,2204.199999999255,37,1,455.19999999925494,0,0,experiment,NA,NA,1,0.3,0.7,3,2,270,6,NA
fcp-trial,312,2997859,0.0-281.0-0.0,voc_e2,11728,"[{""event"":""fullscreenenter"",""trial"":1,""time"":8245}]",NA,NA,NA,NA,NA,2,#FA92F8,#1CD855,0,10,0,38,1,1060.6000000014901,39,0,621.3000000007451,10,1,experiment,NA,NA,0,0.1,0.9,1,0,271,7,NA
fcp-trial,313,3001363,0.0-282.0-0.0,voc_e2,11728,"[{""event"":""fullscreenenter"",""trial"":1,""time"":8245}]",NA,NA,NA,NA,NA,5,#D89F1C,#3386FF,10,0,1,40,0,1416.1000000014901,37,1,579,10,1,experiment,NA,NA,1,0.7,0.3,2,3,272,7,NA
fcp-trial,314,3004325,0.0-283.0-0.0,voc_e2,11728,"[{""event"":""fullscreenenter"",""trial"":1,""time"":8245}]",NA,NA,NA,NA,NA,4,#741CD8,#D8271C,0,10,0,38,1,1039.0999999996275,39,0,409.90000000037253,10,1,experiment,NA,NA,2,0.5,0.5,5,4,273,7,NA
fcp-trial,315,3007541,0.0-284.0-0.0,voc_e2,11728,"[{""event"":""fullscreenenter"",""trial"":1,""time"":8245}]",NA,NA,NA,NA,NA,5,#1CD855,#FA92F8,10,0,1,38,1,1236.3999999985099,39,0,461.69999999925494,0,0,experiment,NA,NA,0,0.9,0.1,0,1,274,7,NA
fcp-trial,316,3010653,0.0-285.0-0.0,voc_e2,11728,"[{""event"":""fullscreenenter"",""trial"":1,""time"":8245}]",NA,NA,NA,NA,NA,1,#3386FF,#D89F1C,0,0,0,38,1,1205,37,1,397.90000000037253,0,0,experiment,NA,NA,1,0.3,0.7,3,2,275,7,NA
fcp-trial,317,3012947,0.0-286.0-0.0,voc_e2,11728,"[{""event"":""fullscreenenter"",""trial"":1,""time"":8245}]",NA,NA,NA,NA,NA,6,#741CD8,#D8271C,0,10,0,38,1,389.19999999925494,39,0,382.90000000037253,10,1,experiment,NA,NA,2,0.5,0.5,5,4,276,7,NA
fcp-trial,318,3016043,0.0-287.0-0.0,voc_e2,11728,"[{""event"":""fullscreenenter"",""trial"":1,""time"":8245}]",NA,NA,NA,NA,NA,3,#3386FF,#D89F1C,0,10,0,38,1,338.2000000011176,37,1,1238.2000000011176,0,0,experiment,NA,NA,1,0.3,0.7,3,2,277,7,NA
fcp-trial,319,3019439,0.0-288.0-0.0,voc_e2,11728,"[{""event"":""fullscreenenter"",""trial"":1,""time"":8245}]",NA,NA,NA,NA,NA,6,#FA92F8,#1CD855,0,10,0,38,1,808.5,37,1,1080.9000000003725,0,0,experiment,NA,NA,0,0.1,0.9,1,0,278,7,NA
fcp-trial,320,3021947,0.0-289.0-0.0,voc_e2,11728,"[{""event"":""fullscreenenter"",""trial"":1,""time"":8245}]",NA,NA,NA,NA,NA,2,#741CD8,#D8271C,0,0,0,38,1,88.70000000111759,39,0,904.8000000007451,0,1,experiment,NA,NA,2,0.5,0.5,5,4,279,7,NA
fcp-trial,321,3024499,0.0-290.0-0.0,voc_e2,11728,"[{""event"":""fullscreenenter"",""trial"":1,""time"":8245}]",NA,NA,NA,NA,NA,2,#1CD855,#FA92F8,10,0,1,38,1,589.8000000007451,37,1,448,10,1,experiment,NA,NA,0,0.9,0.1,0,1,280,7,NA
fcp-trial,322,3027020,0.0-291.0-0.0,voc_e2,11728,"[{""event"":""fullscreenenter"",""trial"":1,""time"":8245}]",NA,NA,NA,NA,NA,0,#D8271C,#741CD8,10,0,1,38,1,650.3000000007451,37,1,358,10,1,experiment,NA,NA,2,0.5,0.5,4,5,281,7,NA
fcp-trial,323,3029635,0.0-292.0-0.0,voc_e2,11728,"[{""event"":""fullscreenenter"",""trial"":1,""time"":8245}]",NA,NA,NA,NA,NA,5,#3386FF,#D89F1C,10,0,0,38,1,397.69999999925494,37,1,698.2000000011176,10,0,experiment,NA,NA,1,0.3,0.7,3,2,282,7,NA
fcp-trial,324,3032270,0.0-293.0-0.0,voc_e2,11728,"[{""event"":""fullscreenenter"",""trial"":1,""time"":8245}]",NA,NA,NA,NA,NA,0,#1CD855,#FA92F8,10,0,1,38,1,633.8999999985099,37,1,485.80000000074506,10,1,experiment,NA,NA,0,0.9,0.1,0,1,283,7,NA
fcp-trial,325,3034867,0.0-294.0-0.0,voc_e2,11728,"[{""event"":""fullscreenenter"",""trial"":1,""time"":8245}]",NA,NA,NA,NA,NA,4,#D8271C,#741CD8,0,0,1,38,1,610.5,37,1,466,0,1,experiment,NA,NA,2,0.5,0.5,4,5,284,7,NA
fcp-trial,326,3037839,0.0-295.0-0.0,voc_e2,11728,"[{""event"":""fullscreenenter"",""trial"":1,""time"":8245}]",NA,NA,NA,NA,NA,4,#D89F1C,#3386FF,10,0,1,38,1,740.0999999996275,39,0,712.8999999985099,0,0,experiment,NA,NA,1,0.7,0.3,2,3,285,7,NA
fcp-trial,327,3041037,0.0-296.0-0.0,voc_e2,11728,"[{""event"":""fullscreenenter"",""trial"":1,""time"":8245}]",NA,NA,NA,NA,NA,2,#D89F1C,#3386FF,10,0,1,38,1,899.4000000003725,39,0,783.1999999992549,0,0,experiment,NA,NA,1,0.7,0.3,2,3,286,7,NA
fcp-trial,328,3043515,0.0-297.0-0.0,voc_e2,11728,"[{""event"":""fullscreenenter"",""trial"":1,""time"":8245}]",NA,NA,NA,NA,NA,5,#741CD8,#D8271C,0,10,0,38,1,613.7000000011176,39,0,339.30000000074506,10,1,experiment,NA,NA,2,0.5,0.5,5,4,287,7,NA
fcp-trial,329,3045899,0.0-298.0-0.0,voc_e2,11728,"[{""event"":""fullscreenenter"",""trial"":1,""time"":8245}]",NA,NA,NA,NA,NA,1,#FA92F8,#1CD855,10,10,0,38,1,397.40000000037253,37,1,461.3999999985099,10,0,experiment,NA,NA,0,0.1,0.9,1,0,288,7,NA
fcp-trial,330,3048283,0.0-299.0-0.0,voc_e2,11728,"[{""event"":""fullscreenenter"",""trial"":1,""time"":8245}]",NA,NA,NA,NA,NA,3,#FA92F8,#1CD855,0,10,0,38,1,480.90000000037253,39,0,385.7999999988824,10,1,experiment,NA,NA,0,0.1,0.9,1,0,289,7,NA
fcp-trial,331,3051021,0.0-300.0-0.0,voc_e2,11728,"[{""event"":""fullscreenenter"",""trial"":1,""time"":8245}]",NA,NA,NA,NA,NA,0,#3386FF,#D89F1C,10,0,0,38,1,550.6000000014901,39,0,664.7000000011176,0,1,experiment,NA,NA,1,0.3,0.7,3,2,290,7,NA
fcp-trial,332,3057475,0.0-301.0-0.0,voc_e2,11728,"[{""event"":""fullscreenenter"",""trial"":1,""time"":8245}]",NA,NA,NA,NA,NA,3,#D8271C,#741CD8,0,10,1,38,1,4353.799999998882,37,1,587.1999999992549,0,1,experiment,NA,NA,2,0.5,0.5,4,5,291,7,NA
fcp-trial,333,3059787,0.0-302.0-0.0,voc_e2,11728,"[{""event"":""fullscreenenter"",""trial"":1,""time"":8245}]",NA,NA,NA,NA,NA,4,#FA92F8,#1CD855,0,0,0,38,1,291.59999999962747,37,1,514.1000000014901,0,0,experiment,NA,NA,0,0.1,0.9,1,0,292,7,NA
fcp-trial,334,3062483,0.0-303.0-0.0,voc_e2,11728,"[{""event"":""fullscreenenter"",""trial"":1,""time"":8245}]",NA,NA,NA,NA,NA,1,#741CD8,#D8271C,10,0,0,40,0,649,37,1,539.4000000003725,10,0,experiment,NA,NA,2,0.5,0.5,5,4,293,7,NA
fcp-trial,335,3065747,0.0-304.0-0.0,voc_e2,11728,"[{""event"":""fullscreenenter"",""trial"":1,""time"":8245}]",NA,NA,NA,NA,NA,6,#3386FF,#D89F1C,0,10,0,40,0,975.0999999996275,39,0,774,10,1,experiment,NA,NA,1,0.3,0.7,3,2,294,7,NA
fcp-trial,336,3068683,0.0-305.0-0.0,voc_e2,11728,"[{""event"":""fullscreenenter"",""trial"":1,""time"":8245}]",NA,NA,NA,NA,NA,0,#D8271C,#741CD8,10,10,1,38,1,887.7999999988824,37,1,536.9000000003725,10,1,experiment,NA,NA,2,0.5,0.5,4,5,295,7,NA
fcp-trial,337,3071467,0.0-306.0-0.0,voc_e2,11728,"[{""event"":""fullscreenenter"",""trial"":1,""time"":8245}]",NA,NA,NA,NA,NA,3,#FA92F8,#1CD855,0,10,0,38,1,68.5,37,1,1188.1000000014901,0,0,experiment,NA,NA,0,0.1,0.9,1,0,296,7,NA
fcp-trial,338,3074316,0.0-307.0-0.0,voc_e2,11728,"[{""event"":""fullscreenenter"",""trial"":1,""time"":8245}]",NA,NA,NA,NA,NA,4,#D8271C,#741CD8,10,10,1,38,1,900.5999999996275,37,1,426.19999999925494,10,1,experiment,NA,NA,2,0.5,0.5,4,5,297,7,NA
fcp-trial,339,3077075,0.0-308.0-0.0,voc_e2,11728,"[{""event"":""fullscreenenter"",""trial"":1,""time"":8245}]",NA,NA,NA,NA,NA,2,#D89F1C,#3386FF,10,10,1,38,1,694.8000000007451,39,0,545,10,0,experiment,NA,NA,1,0.7,0.3,2,3,298,7,NA
fcp-trial,340,3080947,0.0-309.0-0.0,voc_e2,11728,"[{""event"":""fullscreenenter"",""trial"":1,""time"":8245}]",NA,NA,NA,NA,NA,2,#741CD8,#D8271C,10,10,0,38,1,1884.699999999255,39,0,474.30000000074506,10,1,experiment,NA,NA,2,0.5,0.5,5,4,299,7,NA
fcp-trial,341,3083947,0.0-310.0-0.0,voc_e2,11728,"[{""event"":""fullscreenenter"",""trial"":1,""time"":8245}]",NA,NA,NA,NA,NA,2,#1CD855,#FA92F8,10,0,1,38,1,986.6999999992549,37,1,491.5,10,1,experiment,NA,NA,0,0.9,0.1,0,1,300,7,NA
fcp-trial,342,3086654,0.0-311.0-0.0,voc_e2,11728,"[{""event"":""fullscreenenter"",""trial"":1,""time"":8245}]",NA,NA,NA,NA,NA,3,#D89F1C,#3386FF,10,10,1,40,0,641.2000000011176,37,1,543.3999999985099,10,1,experiment,NA,NA,1,0.7,0.3,2,3,301,7,NA
fcp-trial,343,3089700,0.0-312.0-0.0,voc_e2,11728,"[{""event"":""fullscreenenter"",""trial"":1,""time"":8245}]",NA,NA,NA,NA,NA,4,#D89F1C,#3386FF,10,10,1,40,0,1005.4000000003725,37,1,527.5999999996275,10,1,experiment,NA,NA,1,0.7,0.3,2,3,302,7,NA
fcp-trial,344,3092699,0.0-313.0-0.0,voc_e2,11728,"[{""event"":""fullscreenenter"",""trial"":1,""time"":8245}]",NA,NA,NA,NA,NA,6,#FA92F8,#1CD855,0,0,0,40,0,861.0999999996275,39,0,620.7000000011176,0,1,experiment,NA,NA,0,0.1,0.9,1,0,303,7,NA
fcp-trial,345,3096085,0.0-314.0-0.0,voc_e2,11728,"[{""event"":""fullscreenenter"",""trial"":1,""time"":8245}]",NA,NA,NA,NA,NA,6,#741CD8,#D8271C,10,0,0,40,0,1151,37,1,715.2000000011176,10,0,experiment,NA,NA,2,0.5,0.5,5,4,304,7,NA
fcp-trial,346,3099719,0.0-315.0-0.0,voc_e2,11728,"[{""event"":""fullscreenenter"",""trial"":1,""time"":8245}]",NA,NA,NA,NA,NA,3,#741CD8,#D8271C,10,0,0,38,1,1769.7000000011176,39,0,351.40000000037253,0,1,experiment,NA,NA,2,0.5,0.5,5,4,305,7,NA
fcp-trial,347,3103169,0.0-316.0-0.0,voc_e2,11728,"[{""event"":""fullscreenenter"",""trial"":1,""time"":8245}]",NA,NA,NA,NA,NA,1,#1CD855,#FA92F8,10,0,1,38,1,1134.300000000745,39,0,809.6999999992549,0,0,experiment,NA,NA,0,0.9,0.1,0,1,306,7,NA
fcp-trial,348,3106323,0.0-317.0-0.0,voc_e2,11728,"[{""event"":""fullscreenenter"",""trial"":1,""time"":8245}]",NA,NA,NA,NA,NA,0,#3386FF,#D89F1C,0,10,0,38,1,849.7999999988824,37,1,791.3000000007451,0,0,experiment,NA,NA,1,0.3,0.7,3,2,307,7,NA
fcp-trial,349,3108844,0.0-318.0-0.0,voc_e2,11728,"[{""event"":""fullscreenenter"",""trial"":1,""time"":8245}]",NA,NA,NA,NA,NA,5,#3386FF,#D89F1C,0,10,0,38,1,593.7999999988824,39,0,408.09999999962747,10,1,experiment,NA,NA,1,0.3,0.7,3,2,308,7,NA
fcp-trial,350,3111763,0.0-319.0-0.0,voc_e2,11728,"[{""event"":""fullscreenenter"",""trial"":1,""time"":8245}]",NA,NA,NA,NA,NA,1,#D8271C,#741CD8,0,10,1,40,0,786.6999999992549,39,0,621,10,0,experiment,NA,NA,2,0.5,0.5,4,5,309,7,NA
fcp-trial,351,3115535,0.0-320.0-0.0,voc_e2,11728,"[{""event"":""fullscreenenter"",""trial"":1,""time"":8245}]",NA,NA,NA,NA,NA,6,#D89F1C,#3386FF,10,0,1,40,0,1802.5,39,0,448.09999999962747,0,0,experiment,NA,NA,1,0.7,0.3,2,3,310,7,NA
fcp-trial,352,3118684,0.0-321.0-0.0,voc_e2,11728,"[{""event"":""fullscreenenter"",""trial"":1,""time"":8245}]",NA,NA,NA,NA,NA,0,#1CD855,#FA92F8,0,0,1,38,1,1176.0999999996275,37,1,460.40000000037253,0,1,experiment,NA,NA,0,0.9,0.1,0,1,311,7,NA
fcp-trial,353,3121948,0.0-322.0-0.0,voc_e2,11728,"[{""event"":""fullscreenenter"",""trial"":1,""time"":8245}]",NA,NA,NA,NA,NA,5,#FA92F8,#1CD855,0,10,0,40,0,1191.7000000011176,39,0,558.4000000003725,10,1,experiment,NA,NA,0,0.1,0.9,1,0,312,7,NA
fcp-trial,354,3127363,0.0-323.0-0.0,voc_e2,11728,"[{""event"":""fullscreenenter"",""trial"":1,""time"":8245}]",NA,NA,NA,NA,NA,1,#D89F1C,#3386FF,10,10,1,40,0,3400.199999999255,39,0,492.8999999985099,10,0,experiment,NA,NA,1,0.7,0.3,2,3,313,7,NA
fcp-trial,355,3130331,0.0-324.0-0.0,voc_e2,11728,"[{""event"":""fullscreenenter"",""trial"":1,""time"":8245}]",NA,NA,NA,NA,NA,5,#D8271C,#741CD8,0,0,1,38,1,945.0999999996275,37,1,508.7999999988824,0,1,experiment,NA,NA,2,0.5,0.5,4,5,314,7,NA
fcp-trial,356,3133795,0.0-325.0-0.0,voc_e2,11728,"[{""event"":""fullscreenenter"",""trial"":1,""time"":8245}]",NA,NA,NA,NA,NA,4,#FA92F8,#1CD855,0,0,0,40,0,1212.2999999988824,37,1,734.0999999996275,0,0,experiment,NA,NA,0,0.1,0.9,1,0,315,7,NA
audio-instructions,357,3141954,0.0-326.0,voc_e2,11728,"[{""event"":""fullscreenenter"",""trial"":1,""time"":8245}]",NA,2439.300000000745,static/audio/finished.wav,NA,0,NA,NA,NA,NA,NA,NA,NA,NA,NA,NA,NA,NA,NA,NA,NA,NA,NA,NA,NA,NA,NA,NA,NA,NA,NA
audio-instructions,358,3154872,0.0-327.0-0.0,voc_e2,11728,"[{""event"":""fullscreenenter"",""trial"":1,""time"":8245}]",NA,2075.39999999851,static/audio/explicit1.wav,NA,0,NA,NA,NA,NA,NA,NA,NA,NA,NA,NA,NA,NA,NA,NA,NA,NA,NA,NA,NA,NA,NA,NA,NA,NA,NA
audio-instructions,359,3163612,0.0-327.0-1.0,voc_e2,11728,"[{""event"":""fullscreenenter"",""trial"":1,""time"":8245}]",NA,1141.800000000745,static/audio/explicit2.wav,NA,0,NA,NA,NA,NA,NA,NA,NA,NA,NA,NA,NA,NA,NA,NA,NA,NA,NA,NA,NA,NA,NA,NA,NA,NA,NA
image-slider-response,360,3179121,0.0-328.0,voc_e2,11728,"[{""event"":""fullscreenenter"",""trial"":1,""time"":8245}]",NA,15503.300000000743,static/img/machines/machine4.png,NA,NA,NA,NA,NA,NA,NA,NA,NA,NA,NA,NA,NA,NA,NA,NA,explicit,NA,NA,NA,NA,NA,NA,NA,NA,NA,7
image-slider-response,361,3184068,0.0-329.0,voc_e2,11728,"[{""event"":""fullscreenenter"",""trial"":1,""time"":8245}]",NA,4943.199999999255,static/img/machines/machine1.png,NA,NA,NA,NA,NA,NA,NA,NA,NA,NA,NA,NA,NA,NA,NA,NA,explicit,NA,NA,NA,NA,NA,NA,NA,NA,NA,9
image-slider-response,362,3188608,0.0-330.0,voc_e2,11728,"[{""event"":""fullscreenenter"",""trial"":1,""time"":8245}]",NA,4536.299999998882,static/img/machines/machine6.png,NA,NA,NA,NA,NA,NA,NA,NA,NA,NA,NA,NA,NA,NA,NA,NA,explicit,NA,NA,NA,NA,NA,NA,NA,NA,NA,6
image-slider-response,363,3194883,0.0-331.0,voc_e2,11728,"[{""event"":""fullscreenenter"",""trial"":1,""time"":8245}]",NA,6269.4000000003725,static/img/machines/machine5.png,NA,NA,NA,NA,NA,NA,NA,NA,NA,NA,NA,NA,NA,NA,NA,NA,explicit,NA,NA,NA,NA,NA,NA,NA,NA,NA,6
image-slider-response,364,3200107,0.0-332.0,voc_e2,11728,"[{""event"":""fullscreenenter"",""trial"":1,""time"":8245}]",NA,5219.9000000003725,static/img/machines/machine2.png,NA,NA,NA,NA,NA,NA,NA,NA,NA,NA,NA,NA,NA,NA,NA,NA,explicit,NA,NA,NA,NA,NA,NA,NA,NA,NA,7
image-slider-response,365,3203327,0.0-333.0,voc_e2,11728,"[{""event"":""fullscreenenter"",""trial"":1,""time"":8245}]",NA,3216.199999999255,static/img/machines/machine3.png,NA,NA,NA,NA,NA,NA,NA,NA,NA,NA,NA,NA,NA,NA,NA,NA,explicit,NA,NA,NA,NA,NA,NA,NA,NA,NA,6
