trial_type,trial_index,time_elapsed,internal_node_id,task_version,subject_id,interactions,success,rt,stimulus,key_press,button_pressed,offer,arcade_color_L,arcade_color_R,arcade_outcome_L,arcade_outcome_R,correct,stage_1_key,stage_1_choice,stage_1_rt,stage_2_key,stage_2_choice,stage_2_rt,stage_3_outcome,accuracy,phase,responses,num_errors,context,reward_prob_L,reward_prob_R,arcade_id_L,arcade_id_R,trial,block,response
pavlovia,0,13,0.0-0.0,voc_e2,12124,[],NA,NA,NA,NA,NA,NA,NA,NA,NA,NA,NA,NA,NA,NA,NA,NA,NA,NA,NA,NA,NA,NA,NA,NA,NA,NA,NA,NA,NA,NA
fullscreen,1,4660,0.0-1.0,voc_e2,12124,"[{""event"":""fullscreenenter"",""trial"":1,""time"":4214}]",TRUE,NA,NA,NA,NA,NA,NA,NA,NA,NA,NA,NA,NA,NA,NA,NA,NA,NA,NA,NA,NA,NA,NA,NA,NA,NA,NA,NA,NA,NA
audio-keyboard-response,2,8865,0.0-2.0,voc_e2,12124,"[{""event"":""fullscreenenter"",""trial"":1,""time"":4214}]",NA,0,static/audio/beep_loop.wav,32,NA,NA,NA,NA,NA,NA,NA,NA,NA,NA,NA,NA,NA,NA,NA,NA,NA,NA,NA,NA,NA,NA,NA,NA,NA,NA
audio-test,3,10608,0.0-3.0,voc_e2,12124,"[{""event"":""fullscreenenter"",""trial"":1,""time"":4214}]",NA,NA,static/audio/turtle.wav,NA,3,NA,NA,NA,NA,NA,NA,NA,NA,NA,NA,NA,NA,NA,NA,NA,NA,NA,NA,NA,NA,NA,NA,NA,NA,NA
audio-test,4,12757,0.0-4.0,voc_e2,12124,"[{""event"":""fullscreenenter"",""trial"":1,""time"":4214}]",NA,NA,static/audio/shark.wav,NA,2,NA,NA,NA,NA,NA,NA,NA,NA,NA,NA,NA,NA,NA,NA,NA,NA,NA,NA,NA,NA,NA,NA,NA,NA,NA
audio-instructions,5,20358,0.0-5.0-0.0,voc_e2,12124,"[{""event"":""fullscreenenter"",""trial"":1,""time"":4214}]",NA,1816,static/audio/instructions1.wav,NA,0,NA,NA,NA,NA,NA,NA,NA,NA,NA,NA,NA,NA,NA,NA,NA,NA,NA,NA,NA,NA,NA,NA,NA,NA,NA
audio-instructions,6,28074,0.0-5.0-1.0,voc_e2,12124,"[{""event"":""fullscreenenter"",""trial"":1,""time"":4214}]",NA,975,static/audio/instructions2.wav,NA,0,NA,NA,NA,NA,NA,NA,NA,NA,NA,NA,NA,NA,NA,NA,NA,NA,NA,NA,NA,NA,NA,NA,NA,NA,NA
audio-instructions,7,35309,0.0-5.0-2.0,voc_e2,12124,"[{""event"":""fullscreenenter"",""trial"":1,""time"":4214}]",NA,1428.0000000000073,static/audio/instructions3.wav,NA,0,NA,NA,NA,NA,NA,NA,NA,NA,NA,NA,NA,NA,NA,NA,NA,NA,NA,NA,NA,NA,NA,NA,NA,NA,NA
audio-instructions,8,49442,0.0-5.0-3.0,voc_e2,12124,"[{""event"":""fullscreenenter"",""trial"":1,""time"":4214}]",NA,904,static/audio/instructions4.wav,NA,0,NA,NA,NA,NA,NA,NA,NA,NA,NA,NA,NA,NA,NA,NA,NA,NA,NA,NA,NA,NA,NA,NA,NA,NA,NA
audio-instructions,9,59292,0.0-5.0-4.0,voc_e2,12124,"[{""event"":""fullscreenenter"",""trial"":1,""time"":4214}]",NA,462,static/audio/instructions5.wav,NA,0,NA,NA,NA,NA,NA,NA,NA,NA,NA,NA,NA,NA,NA,NA,NA,NA,NA,NA,NA,NA,NA,NA,NA,NA,NA
fcp-practice,10,61826,0.0-5.0-5.0-0.0,voc_e2,12124,"[{""event"":""fullscreenenter"",""trial"":1,""time"":4214}]",NA,NA,NA,NA,NA,NA,#EDC948,#46d3c8,10,0,1,null,null,null,37,1,1017,10,1,practice,NA,NA,NA,NA,NA,NA,NA,NA,NA,NA
fcp-practice,11,63909,0.0-5.0-5.0-1.0,voc_e2,12124,"[{""event"":""fullscreenenter"",""trial"":1,""time"":4214}]",NA,NA,NA,NA,NA,NA,#EDC948,#46d3c8,10,0,1,null,null,null,37,1,579,10,1,practice,NA,NA,NA,NA,NA,NA,NA,NA,NA,NA
fcp-practice,12,65957,0.0-5.0-5.0-2.0,voc_e2,12124,"[{""event"":""fullscreenenter"",""trial"":1,""time"":4214}]",NA,NA,NA,NA,NA,NA,#EDC948,#46d3c8,0,10,1,null,null,null,37,1,542,0,1,practice,NA,NA,NA,NA,NA,NA,NA,NA,NA,NA
fcp-practice,13,68134,0.0-5.0-5.0-3.0,voc_e2,12124,"[{""event"":""fullscreenenter"",""trial"":1,""time"":4214}]",NA,NA,NA,NA,NA,NA,#EDC948,#46d3c8,10,0,1,null,null,null,37,1,672,10,1,practice,NA,NA,NA,NA,NA,NA,NA,NA,NA,NA
fcp-practice,14,70032,0.0-5.0-5.0-4.0,voc_e2,12124,"[{""event"":""fullscreenenter"",""trial"":1,""time"":4214}]",NA,NA,NA,NA,NA,NA,#EDC948,#46d3c8,10,0,1,null,null,null,37,1,393,10,1,practice,NA,NA,NA,NA,NA,NA,NA,NA,NA,NA
audio-instructions,15,89908,0.0-5.0-6.0,voc_e2,12124,"[{""event"":""fullscreenenter"",""trial"":1,""time"":4214}]",NA,1870,static/audio/instructions6.wav,NA,0,NA,NA,NA,NA,NA,NA,NA,NA,NA,NA,NA,NA,NA,NA,NA,NA,NA,NA,NA,NA,NA,NA,NA,NA,NA
audio-instructions,16,110507,0.0-5.0-7.0,voc_e2,12124,"[{""event"":""fullscreenenter"",""trial"":1,""time"":4214}]",NA,1398,static/audio/instructions7.wav,NA,0,NA,NA,NA,NA,NA,NA,NA,NA,NA,NA,NA,NA,NA,NA,NA,NA,NA,NA,NA,NA,NA,NA,NA,NA,NA
audio-instructions,17,121307,0.0-5.0-8.0,voc_e2,12124,"[{""event"":""fullscreenenter"",""trial"":1,""time"":4214}]",NA,1328,static/audio/instructions8.wav,NA,0,NA,NA,NA,NA,NA,NA,NA,NA,NA,NA,NA,NA,NA,NA,NA,NA,NA,NA,NA,NA,NA,NA,NA,NA,NA
fcp-comprehension,18,130761,0.0-5.0-9.0,voc_e2,12124,"[{""event"":""fullscreenenter"",""trial"":1,""time"":4214}]",NA,9453,NA,NA,NA,NA,NA,NA,NA,NA,NA,NA,NA,NA,NA,NA,NA,NA,NA,NA,"true,true",0,NA,NA,NA,NA,NA,NA,NA,NA
audio-instructions,19,136922,0.0-6.0-0.0,voc_e2,12124,"[{""event"":""fullscreenenter"",""trial"":1,""time"":4214}]",NA,614.0000000000291,static/audio/instructions9.wav,NA,0,NA,NA,NA,NA,NA,NA,NA,NA,NA,NA,NA,NA,NA,NA,NA,NA,NA,NA,NA,NA,NA,NA,NA,NA,NA
audio-instructions,20,149443,0.0-6.0-1.0,voc_e2,12124,"[{""event"":""fullscreenenter"",""trial"":1,""time"":4214}]",NA,399,static/audio/instructions10.wav,NA,0,NA,NA,NA,NA,NA,NA,NA,NA,NA,NA,NA,NA,NA,NA,NA,NA,NA,NA,NA,NA,NA,NA,NA,NA,NA
fcp-trial,21,154149,0.0-6.0-2.0,voc_e2,12124,"[{""event"":""fullscreenenter"",""trial"":1,""time"":4214}]",NA,NA,NA,NA,NA,0,#EDC948,#46d3c8,10,10,1,38,1,1580.000000000029,37,1,1609,10,1,practice,NA,NA,NA,NA,NA,NA,NA,NA,NA,NA
audio-instructions,22,165573,0.0-6.0-3.0,voc_e2,12124,"[{""event"":""fullscreenenter"",""trial"":1,""time"":4214}]",NA,415,static/audio/instructions11.wav,NA,0,NA,NA,NA,NA,NA,NA,NA,NA,NA,NA,NA,NA,NA,NA,NA,NA,NA,NA,NA,NA,NA,NA,NA,NA,NA
fcp-trial,23,170117,0.0-6.0-4.0,voc_e2,12124,"[{""event"":""fullscreenenter"",""trial"":1,""time"":4214}]",NA,NA,NA,NA,NA,6,#EDC948,#46d3c8,10,10,1,40,0,2273,39,0,756,10,0,practice,NA,NA,NA,NA,NA,NA,NA,NA,NA,NA
audio-instructions,24,190091,0.0-6.0-5.0,voc_e2,12124,"[{""event"":""fullscreenenter"",""trial"":1,""time"":4214}]",NA,1282,static/audio/instructions12.wav,NA,0,NA,NA,NA,NA,NA,NA,NA,NA,NA,NA,NA,NA,NA,NA,NA,NA,NA,NA,NA,NA,NA,NA,NA,NA,NA
audio-instructions,25,198623,0.0-6.0-6.0,voc_e2,12124,"[{""event"":""fullscreenenter"",""trial"":1,""time"":4214}]",NA,935,static/audio/instructions13.wav,NA,0,NA,NA,NA,NA,NA,NA,NA,NA,NA,NA,NA,NA,NA,NA,NA,NA,NA,NA,NA,NA,NA,NA,NA,NA,NA
audio-instructions,26,207591,0.0-6.0-7.0,voc_e2,12124,"[{""event"":""fullscreenenter"",""trial"":1,""time"":4214}]",NA,518.9999999999709,static/audio/instructions14.wav,NA,0,NA,NA,NA,NA,NA,NA,NA,NA,NA,NA,NA,NA,NA,NA,NA,NA,NA,NA,NA,NA,NA,NA,NA,NA,NA
audio-instructions,27,215041,0.0-7.0-0.0,voc_e2,12124,"[{""event"":""fullscreenenter"",""trial"":1,""time"":4214}]",NA,537,static/audio/instructions15.wav,NA,0,NA,NA,NA,NA,NA,NA,NA,NA,NA,NA,NA,NA,NA,NA,NA,NA,NA,NA,NA,NA,NA,NA,NA,NA,NA
audio-instructions,28,222623,0.0-7.0-1.0,voc_e2,12124,"[{""event"":""fullscreenenter"",""trial"":1,""time"":4214}]",NA,755,static/audio/instructions16.wav,NA,0,NA,NA,NA,NA,NA,NA,NA,NA,NA,NA,NA,NA,NA,NA,NA,NA,NA,NA,NA,NA,NA,NA,NA,NA,NA
audio-instructions,29,230891,0.0-7.0-2.0,voc_e2,12124,"[{""event"":""fullscreenenter"",""trial"":1,""time"":4214}]",NA,585,static/audio/instructions17.wav,NA,0,NA,NA,NA,NA,NA,NA,NA,NA,NA,NA,NA,NA,NA,NA,NA,NA,NA,NA,NA,NA,NA,NA,NA,NA,NA
audio-instructions,30,239041,0.0-7.0-3.0,voc_e2,12124,"[{""event"":""fullscreenenter"",""trial"":1,""time"":4214}]",NA,382,static/audio/instructions18.wav,NA,0,NA,NA,NA,NA,NA,NA,NA,NA,NA,NA,NA,NA,NA,NA,NA,NA,NA,NA,NA,NA,NA,NA,NA,NA,NA
audio-instructions,31,246157,0.0-7.0-4.0,voc_e2,12124,"[{""event"":""fullscreenenter"",""trial"":1,""time"":4214}]",NA,373,static/audio/instructions19.wav,NA,0,NA,NA,NA,NA,NA,NA,NA,NA,NA,NA,NA,NA,NA,NA,NA,NA,NA,NA,NA,NA,NA,NA,NA,NA,NA
fcp-comprehension,32,257209,0.0-7.0-5.0,voc_e2,12124,"[{""event"":""fullscreenenter"",""trial"":1,""time"":4214}]",NA,11051,NA,NA,NA,NA,NA,NA,NA,NA,NA,NA,NA,NA,NA,NA,NA,NA,NA,NA,"false,false,false,true",0,NA,NA,NA,NA,NA,NA,NA,NA
audio-instructions,33,267141,0.0-8.0,voc_e2,12124,"[{""event"":""fullscreenenter"",""trial"":1,""time"":4214}]",NA,714,static/audio/ready.wav,NA,0,NA,NA,NA,NA,NA,NA,NA,NA,NA,NA,NA,NA,NA,NA,NA,NA,NA,NA,NA,NA,NA,NA,NA,NA,NA
fcp-trial,34,272490,0.0-9.0-0.0,voc_e2,12124,"[{""event"":""fullscreenenter"",""trial"":1,""time"":4214}]",NA,NA,NA,NA,NA,3,#3386FF,#D89F1C,10,10,1,40,0,3113,39,0,730,10,0,experiment,NA,NA,1,0.7,0.3,2,3,1,1,NA
fcp-trial,35,278979,0.0-10.0-0.0,voc_e2,12124,"[{""event"":""fullscreenenter"",""trial"":1,""time"":4214}]",NA,NA,NA,NA,NA,2,#3386FF,#D89F1C,0,0,1,40,0,4327,39,0,652,0,0,experiment,NA,NA,1,0.7,0.3,2,3,2,1,NA
fcp-trial,36,282328,0.0-11.0-0.0,voc_e2,12124,"[{""event"":""fullscreenenter"",""trial"":1,""time"":4214}]",NA,NA,NA,NA,NA,6,#FA92F8,#1CD855,0,10,0,40,0,1229.9999999999418,37,1,609,0,0,experiment,NA,NA,0,0.1,0.9,1,0,3,1,NA
fcp-trial,37,285425,0.0-12.0-0.0,voc_e2,12124,"[{""event"":""fullscreenenter"",""trial"":1,""time"":4214}]",NA,NA,NA,NA,NA,4,#3386FF,#D89F1C,0,0,1,40,0,1083,39,0,506,0,0,experiment,NA,NA,1,0.7,0.3,2,3,4,1,NA
fcp-trial,38,288908,0.0-13.0-0.0,voc_e2,12124,"[{""event"":""fullscreenenter"",""trial"":1,""time"":4214}]",NA,NA,NA,NA,NA,4,#1CD855,#FA92F8,10,0,1,38,1,1511,37,1,465,10,1,experiment,NA,NA,0,0.9,0.1,0,1,5,1,NA
fcp-trial,39,294546,0.0-14.0-0.0,voc_e2,12124,"[{""event"":""fullscreenenter"",""trial"":1,""time"":4214}]",NA,NA,NA,NA,NA,0,#741CD8,#D8271C,10,0,1,38,1,2767.999999999942,37,1,1359.9999999999418,10,1,experiment,NA,NA,2,0.5,0.5,4,5,6,1,NA
fcp-trial,40,299090,0.0-15.0-0.0,voc_e2,12124,"[{""event"":""fullscreenenter"",""trial"":1,""time"":4214}]",NA,NA,NA,NA,NA,4,#741CD8,#D8271C,10,0,1,40,0,2365,37,1,667.9999999999418,10,1,experiment,NA,NA,2,0.5,0.5,4,5,7,1,NA
fcp-trial,41,303056,0.0-16.0-0.0,voc_e2,12124,"[{""event"":""fullscreenenter"",""trial"":1,""time"":4214}]",NA,NA,NA,NA,NA,6,#D89F1C,#3386FF,10,10,0,40,0,1879,37,1,576,10,0,experiment,NA,NA,1,0.3,0.7,3,2,8,1,NA
fcp-trial,42,307525,0.0-17.0-0.0,voc_e2,12124,"[{""event"":""fullscreenenter"",""trial"":1,""time"":4214}]",NA,NA,NA,NA,NA,5,#1CD855,#FA92F8,10,0,1,40,0,2425,39,0,537,0,0,experiment,NA,NA,0,0.9,0.1,0,1,9,1,NA
fcp-trial,43,313424,0.0-18.0-0.0,voc_e2,12124,"[{""event"":""fullscreenenter"",""trial"":1,""time"":4214}]",NA,NA,NA,NA,NA,1,#FA92F8,#1CD855,0,10,0,38,1,2750,37,1,1641,0,0,experiment,NA,NA,0,0.1,0.9,1,0,10,1,NA
fcp-trial,44,317723,0.0-19.0-0.0,voc_e2,12124,"[{""event"":""fullscreenenter"",""trial"":1,""time"":4214}]",NA,NA,NA,NA,NA,1,#D8271C,#741CD8,10,10,0,38,1,2319,39,0,472,10,1,experiment,NA,NA,2,0.5,0.5,5,4,11,1,NA
fcp-trial,45,322365,0.0-20.0-0.0,voc_e2,12124,"[{""event"":""fullscreenenter"",""trial"":1,""time"":4214}]",NA,NA,NA,NA,NA,5,#D89F1C,#3386FF,0,10,0,40,0,2551,39,0,584,10,1,experiment,NA,NA,1,0.3,0.7,3,2,12,1,NA
fcp-trial,46,327518,0.0-21.0-0.0,voc_e2,12124,"[{""event"":""fullscreenenter"",""trial"":1,""time"":4214}]",NA,NA,NA,NA,NA,0,#D89F1C,#3386FF,0,10,0,38,1,1870,39,0,1773,10,1,experiment,NA,NA,1,0.3,0.7,3,2,13,1,NA
fcp-trial,47,332078,0.0-22.0-0.0,voc_e2,12124,"[{""event"":""fullscreenenter"",""trial"":1,""time"":4214}]",NA,NA,NA,NA,NA,0,#FA92F8,#1CD855,0,10,0,38,1,2498.999999999942,39,0,541,10,1,experiment,NA,NA,0,0.1,0.9,1,0,14,1,NA
fcp-trial,48,336276,0.0-23.0-0.0,voc_e2,12124,"[{""event"":""fullscreenenter"",""trial"":1,""time"":4214}]",NA,NA,NA,NA,NA,2,#1CD855,#FA92F8,0,10,1,38,1,2096,37,1,590.9999999999418,0,1,experiment,NA,NA,0,0.9,0.1,0,1,15,1,NA
fcp-trial,49,340456,0.0-24.0-0.0,voc_e2,12124,"[{""event"":""fullscreenenter"",""trial"":1,""time"":4214}]",NA,NA,NA,NA,NA,6,#741CD8,#D8271C,10,0,1,38,1,2288.000000000058,37,1,384,10,1,experiment,NA,NA,2,0.5,0.5,4,5,16,1,NA
fcp-trial,50,344389,0.0-25.0-0.0,voc_e2,12124,"[{""event"":""fullscreenenter"",""trial"":1,""time"":4214}]",NA,NA,NA,NA,NA,2,#D8271C,#741CD8,0,10,0,38,1,2018.9999999999418,39,0,405,10,1,experiment,NA,NA,2,0.5,0.5,5,4,17,1,NA
fcp-trial,51,348478,0.0-26.0-0.0,voc_e2,12124,"[{""event"":""fullscreenenter"",""trial"":1,""time"":4214}]",NA,NA,NA,NA,NA,1,#3386FF,#D89F1C,10,10,1,38,1,2144.999999999942,37,1,433,10,1,experiment,NA,NA,1,0.7,0.3,2,3,18,1,NA
fcp-trial,52,352542,0.0-27.0-0.0,voc_e2,12124,"[{""event"":""fullscreenenter"",""trial"":1,""time"":4214}]",NA,NA,NA,NA,NA,3,#FA92F8,#1CD855,0,10,0,38,1,2116,39,0,438.0000000000582,10,1,experiment,NA,NA,0,0.1,0.9,1,0,19,1,NA
fcp-trial,53,356023,0.0-28.0-0.0,voc_e2,12124,"[{""event"":""fullscreenenter"",""trial"":1,""time"":4214}]",NA,NA,NA,NA,NA,5,#D8271C,#741CD8,0,10,0,38,1,1593,39,0,380.0000000000582,10,1,experiment,NA,NA,2,0.5,0.5,5,4,20,1,NA
fcp-trial,54,358860,0.0-29.0-0.0,voc_e2,12124,"[{""event"":""fullscreenenter"",""trial"":1,""time"":4214}]",NA,NA,NA,NA,NA,3,#D8271C,#741CD8,10,0,0,38,1,969.0000000000582,39,0,361,0,1,experiment,NA,NA,2,0.5,0.5,5,4,21,1,NA
fcp-trial,55,362177,0.0-30.0-0.0,voc_e2,12124,"[{""event"":""fullscreenenter"",""trial"":1,""time"":4214}]",NA,NA,NA,NA,NA,2,#1CD855,#FA92F8,10,0,1,38,1,1477,37,1,330.9999999999418,10,1,experiment,NA,NA,0,0.9,0.1,0,1,22,1,NA
fcp-trial,56,365024,0.0-31.0-0.0,voc_e2,12124,"[{""event"":""fullscreenenter"",""trial"":1,""time"":4214}]",NA,NA,NA,NA,NA,3,#3386FF,#D89F1C,10,10,1,38,1,1044,37,1,294,10,1,experiment,NA,NA,1,0.7,0.3,2,3,23,1,NA
fcp-trial,57,368024,0.0-32.0-0.0,voc_e2,12124,"[{""event"":""fullscreenenter"",""trial"":1,""time"":4214}]",NA,NA,NA,NA,NA,6,#1CD855,#FA92F8,10,0,1,38,1,1162,37,1,330,10,1,experiment,NA,NA,0,0.9,0.1,0,1,24,1,NA
fcp-trial,58,370790,0.0-33.0-0.0,voc_e2,12124,"[{""event"":""fullscreenenter"",""trial"":1,""time"":4214}]",NA,NA,NA,NA,NA,2,#D8271C,#741CD8,10,10,0,38,1,938,39,0,321.0000000000582,10,1,experiment,NA,NA,2,0.5,0.5,5,4,25,1,NA
fcp-trial,59,374276,0.0-34.0-0.0,voc_e2,12124,"[{""event"":""fullscreenenter"",""trial"":1,""time"":4214}]",NA,NA,NA,NA,NA,3,#1CD855,#FA92F8,10,0,1,38,1,1584.9999999999418,37,1,391,10,1,experiment,NA,NA,0,0.9,0.1,0,1,26,1,NA
fcp-trial,60,379034,0.0-35.0-0.0,voc_e2,12124,"[{""event"":""fullscreenenter"",""trial"":1,""time"":4214}]",NA,NA,NA,NA,NA,2,#3386FF,#D89F1C,0,0,1,38,1,2513.000000000058,37,1,736,0,1,experiment,NA,NA,1,0.7,0.3,2,3,27,1,NA
fcp-trial,61,381823,0.0-36.0-0.0,voc_e2,12124,"[{""event"":""fullscreenenter"",""trial"":1,""time"":4214}]",NA,NA,NA,NA,NA,6,#3386FF,#D89F1C,10,0,1,38,1,744.0000000000582,37,1,535,10,1,experiment,NA,NA,1,0.7,0.3,2,3,28,1,NA
fcp-trial,62,385099,0.0-37.0-0.0,voc_e2,12124,"[{""event"":""fullscreenenter"",""trial"":1,""time"":4214}]",NA,NA,NA,NA,NA,1,#1CD855,#FA92F8,10,0,1,38,1,1194,37,1,573,10,1,experiment,NA,NA,0,0.9,0.1,0,1,29,1,NA
fcp-trial,63,389192,0.0-38.0-0.0,voc_e2,12124,"[{""event"":""fullscreenenter"",""trial"":1,""time"":4214}]",NA,NA,NA,NA,NA,0,#741CD8,#D8271C,10,10,1,38,1,2082.999999999942,37,1,500,10,1,experiment,NA,NA,2,0.5,0.5,4,5,30,1,NA
fcp-trial,64,392443,0.0-39.0-0.0,voc_e2,12124,"[{""event"":""fullscreenenter"",""trial"":1,""time"":4214}]",NA,NA,NA,NA,NA,5,#D89F1C,#3386FF,0,10,0,38,1,1258,39,0,483.9999999999418,10,1,experiment,NA,NA,1,0.3,0.7,3,2,31,1,NA
fcp-trial,65,395342,0.0-40.0-0.0,voc_e2,12124,"[{""event"":""fullscreenenter"",""trial"":1,""time"":4214}]",NA,NA,NA,NA,NA,1,#3386FF,#D89F1C,0,0,1,38,1,914.9999999999418,37,1,475,0,1,experiment,NA,NA,1,0.7,0.3,2,3,32,1,NA
fcp-trial,66,397796,0.0-41.0-0.0,voc_e2,12124,"[{""event"":""fullscreenenter"",""trial"":1,""time"":4214}]",NA,NA,NA,NA,NA,6,#D8271C,#741CD8,0,0,0,38,1,490,39,0,453,0,1,experiment,NA,NA,2,0.5,0.5,5,4,33,1,NA
fcp-trial,67,401095,0.0-42.0-0.0,voc_e2,12124,"[{""event"":""fullscreenenter"",""trial"":1,""time"":4214}]",NA,NA,NA,NA,NA,4,#FA92F8,#1CD855,0,10,0,38,1,722,39,0,1069.0000000000582,10,1,experiment,NA,NA,0,0.1,0.9,1,0,34,1,NA
fcp-trial,68,403710,0.0-43.0-0.0,voc_e2,12124,"[{""event"":""fullscreenenter"",""trial"":1,""time"":4214}]",NA,NA,NA,NA,NA,1,#741CD8,#D8271C,0,10,1,38,1,594.0000000000582,37,1,513,0,1,experiment,NA,NA,2,0.5,0.5,4,5,35,1,NA
fcp-trial,69,406457,0.0-44.0-0.0,voc_e2,12124,"[{""event"":""fullscreenenter"",""trial"":1,""time"":4214}]",NA,NA,NA,NA,NA,4,#D89F1C,#3386FF,0,10,0,38,1,672,39,0,565,10,1,experiment,NA,NA,1,0.3,0.7,3,2,36,1,NA
fcp-trial,70,408890,0.0-45.0-0.0,voc_e2,12124,"[{""event"":""fullscreenenter"",""trial"":1,""time"":4214}]",NA,NA,NA,NA,NA,4,#741CD8,#D8271C,10,0,1,38,1,441.9999999999418,37,1,484,10,1,experiment,NA,NA,2,0.5,0.5,4,5,37,1,NA
fcp-trial,71,414279,0.0-46.0-0.0,voc_e2,12124,"[{""event"":""fullscreenenter"",""trial"":1,""time"":4214}]",NA,NA,NA,NA,NA,0,#D89F1C,#3386FF,0,10,0,38,1,3245,39,0,636,10,1,experiment,NA,NA,1,0.3,0.7,3,2,38,1,NA
fcp-trial,72,417257,0.0-47.0-0.0,voc_e2,12124,"[{""event"":""fullscreenenter"",""trial"":1,""time"":4214}]",NA,NA,NA,NA,NA,0,#1CD855,#FA92F8,10,0,1,38,1,1035,37,1,432,10,1,experiment,NA,NA,0,0.9,0.1,0,1,39,1,NA
fcp-trial,73,419785,0.0-48.0-0.0,voc_e2,12124,"[{""event"":""fullscreenenter"",""trial"":1,""time"":4214}]",NA,NA,NA,NA,NA,5,#D8271C,#741CD8,10,10,0,38,1,614,39,0,404,10,1,experiment,NA,NA,2,0.5,0.5,5,4,40,1,NA
fcp-trial,74,422223,0.0-49.0-0.0,voc_e2,12124,"[{""event"":""fullscreenenter"",""trial"":1,""time"":4214}]",NA,NA,NA,NA,NA,3,#741CD8,#D8271C,0,0,1,38,1,530,37,1,392,0,1,experiment,NA,NA,2,0.5,0.5,4,5,41,1,NA
fcp-trial,75,425966,0.0-50.0-0.0,voc_e2,12124,"[{""event"":""fullscreenenter"",""trial"":1,""time"":4214}]",NA,NA,NA,NA,NA,5,#FA92F8,#1CD855,0,10,0,38,1,1952,39,0,285,10,1,experiment,NA,NA,0,0.1,0.9,1,0,42,1,NA
fcp-trial,76,429331,0.0-51.0-0.0,voc_e2,12124,"[{""event"":""fullscreenenter"",""trial"":1,""time"":4214}]",NA,NA,NA,NA,NA,0,#3386FF,#D89F1C,10,0,1,38,1,1461,37,1,396.9999999999418,10,1,experiment,NA,NA,1,0.7,0.3,2,3,43,1,NA
fcp-trial,77,432690,0.0-52.0-0.0,voc_e2,12124,"[{""event"":""fullscreenenter"",""trial"":1,""time"":4214}]",NA,NA,NA,NA,NA,2,#FA92F8,#1CD855,0,10,0,38,1,1471.9999999999418,39,0,380,10,1,experiment,NA,NA,0,0.1,0.9,1,0,44,1,NA
fcp-trial,78,435590,0.0-53.0-0.0,voc_e2,12124,"[{""event"":""fullscreenenter"",""trial"":1,""time"":4214}]",NA,NA,NA,NA,NA,0,#FA92F8,#1CD855,0,10,0,38,1,868,39,0,524,10,1,experiment,NA,NA,0,0.1,0.9,1,0,45,1,NA
fcp-trial,79,438590,0.0-54.0-0.0,voc_e2,12124,"[{""event"":""fullscreenenter"",""trial"":1,""time"":4214}]",NA,NA,NA,NA,NA,1,#3386FF,#D89F1C,0,10,1,38,1,1050,37,1,441.9999999999418,0,1,experiment,NA,NA,1,0.7,0.3,2,3,46,2,NA
fcp-trial,80,441116,0.0-55.0-0.0,voc_e2,12124,"[{""event"":""fullscreenenter"",""trial"":1,""time"":4214}]",NA,NA,NA,NA,NA,5,#D8271C,#741CD8,10,0,0,38,1,553,39,0,461,0,1,experiment,NA,NA,2,0.5,0.5,5,4,47,2,NA
fcp-trial,81,444380,0.0-56.0-0.0,voc_e2,12124,"[{""event"":""fullscreenenter"",""trial"":1,""time"":4214}]",NA,NA,NA,NA,NA,4,#D89F1C,#3386FF,10,10,0,38,1,1359,39,0,387,10,1,experiment,NA,NA,1,0.3,0.7,3,2,48,2,NA
fcp-trial,82,447114,0.0-57.0-0.0,voc_e2,12124,"[{""event"":""fullscreenenter"",""trial"":1,""time"":4214}]",NA,NA,NA,NA,NA,3,#1CD855,#FA92F8,10,0,1,38,1,717,37,1,506.0000000000582,10,1,experiment,NA,NA,0,0.9,0.1,0,1,49,2,NA
fcp-trial,83,449961,0.0-58.0-0.0,voc_e2,12124,"[{""event"":""fullscreenenter"",""trial"":1,""time"":4214}]",NA,NA,NA,NA,NA,1,#741CD8,#D8271C,0,0,1,38,1,869,37,1,468,0,1,experiment,NA,NA,2,0.5,0.5,4,5,50,2,NA
fcp-trial,84,452632,0.0-59.0-0.0,voc_e2,12124,"[{""event"":""fullscreenenter"",""trial"":1,""time"":4214}]",NA,NA,NA,NA,NA,5,#D89F1C,#3386FF,10,10,0,38,1,756.0000000000582,39,0,405,10,1,experiment,NA,NA,1,0.3,0.7,3,2,51,2,NA
fcp-trial,85,456429,0.0-60.0-0.0,voc_e2,12124,"[{""event"":""fullscreenenter"",""trial"":1,""time"":4214}]",NA,NA,NA,NA,NA,6,#D89F1C,#3386FF,10,0,0,40,0,1743,37,1,546,10,0,experiment,NA,NA,1,0.3,0.7,3,2,52,2,NA
fcp-trial,86,460390,0.0-61.0-0.0,voc_e2,12124,"[{""event"":""fullscreenenter"",""trial"":1,""time"":4214}]",NA,NA,NA,NA,NA,6,#1CD855,#FA92F8,10,0,1,40,0,2039.0000000000582,37,1,415.9999999999418,10,1,experiment,NA,NA,0,0.9,0.1,0,1,53,2,NA
fcp-trial,87,463676,0.0-62.0-0.0,voc_e2,12124,"[{""event"":""fullscreenenter"",""trial"":1,""time"":4214}]",NA,NA,NA,NA,NA,6,#D8271C,#741CD8,0,10,0,40,0,1162.0000000000582,37,1,615,0,0,experiment,NA,NA,2,0.5,0.5,5,4,54,2,NA
fcp-trial,88,466758,0.0-63.0-0.0,voc_e2,12124,"[{""event"":""fullscreenenter"",""trial"":1,""time"":4214}]",NA,NA,NA,NA,NA,3,#3386FF,#D89F1C,10,0,1,38,1,1236,37,1,338,10,1,experiment,NA,NA,1,0.7,0.3,2,3,55,2,NA
fcp-trial,89,470376,0.0-64.0-0.0,voc_e2,12124,"[{""event"":""fullscreenenter"",""trial"":1,""time"":4214}]",NA,NA,NA,NA,NA,5,#1CD855,#FA92F8,10,0,1,38,1,1727,37,1,382,10,1,experiment,NA,NA,0,0.9,0.1,0,1,56,2,NA
fcp-trial,90,473743,0.0-65.0-0.0,voc_e2,12124,"[{""event"":""fullscreenenter"",""trial"":1,""time"":4214}]",NA,NA,NA,NA,NA,3,#D8271C,#741CD8,10,10,0,38,1,1402,39,0,454,10,1,experiment,NA,NA,2,0.5,0.5,5,4,57,2,NA
fcp-trial,91,477332,0.0-66.0-0.0,voc_e2,12124,"[{""event"":""fullscreenenter"",""trial"":1,""time"":4214}]",NA,NA,NA,NA,NA,1,#FA92F8,#1CD855,0,10,0,38,1,1712.0000000000582,39,0,367,10,1,experiment,NA,NA,0,0.1,0.9,1,0,58,2,NA
fcp-trial,92,480242,0.0-67.0-0.0,voc_e2,12124,"[{""event"":""fullscreenenter"",""trial"":1,""time"":4214}]",NA,NA,NA,NA,NA,2,#D8271C,#741CD8,10,10,0,38,1,1024.9999999999418,39,0,378,10,1,experiment,NA,NA,2,0.5,0.5,5,4,59,2,NA
fcp-trial,93,483352,0.0-68.0-0.0,voc_e2,12124,"[{""event"":""fullscreenenter"",""trial"":1,""time"":4214}]",NA,NA,NA,NA,NA,2,#D89F1C,#3386FF,0,10,0,38,1,1268.0000000000582,39,0,331,10,1,experiment,NA,NA,1,0.3,0.7,3,2,60,2,NA
fcp-trial,94,486464,0.0-69.0-0.0,voc_e2,12124,"[{""event"":""fullscreenenter"",""trial"":1,""time"":4214}]",NA,NA,NA,NA,NA,0,#D8271C,#741CD8,0,0,0,38,1,1255.9999999999418,39,0,338,0,1,experiment,NA,NA,2,0.5,0.5,5,4,61,2,NA
fcp-trial,95,489267,0.0-70.0-0.0,voc_e2,12124,"[{""event"":""fullscreenenter"",""trial"":1,""time"":4214}]",NA,NA,NA,NA,NA,4,#D8271C,#741CD8,10,10,0,38,1,900,39,0,394,10,1,experiment,NA,NA,2,0.5,0.5,5,4,62,2,NA
fcp-trial,96,492510,0.0-71.0-0.0,voc_e2,12124,"[{""event"":""fullscreenenter"",""trial"":1,""time"":4214}]",NA,NA,NA,NA,NA,4,#FA92F8,#1CD855,10,10,0,38,1,1206,39,0,528,10,1,experiment,NA,NA,0,0.1,0.9,1,0,63,2,NA
fcp-trial,97,495461,0.0-72.0-0.0,voc_e2,12124,"[{""event"":""fullscreenenter"",""trial"":1,""time"":4214}]",NA,NA,NA,NA,NA,6,#741CD8,#D8271C,10,10,1,38,1,959.9999999998836,37,1,481.9999999999418,10,1,experiment,NA,NA,2,0.5,0.5,4,5,64,2,NA
fcp-trial,98,498476,0.0-73.0-0.0,voc_e2,12124,"[{""event"":""fullscreenenter"",""trial"":1,""time"":4214}]",NA,NA,NA,NA,NA,6,#FA92F8,#1CD855,0,0,0,38,1,1155.0000000001164,39,0,350.0000000000582,0,1,experiment,NA,NA,0,0.1,0.9,1,0,65,2,NA
fcp-trial,99,501166,0.0-74.0-0.0,voc_e2,12124,"[{""event"":""fullscreenenter"",""trial"":1,""time"":4214}]",NA,NA,NA,NA,NA,6,#D89F1C,#3386FF,0,10,0,38,1,910.9999999999418,39,0,271.0000000001164,10,1,experiment,NA,NA,1,0.3,0.7,3,2,66,2,NA
fcp-trial,100,504100,0.0-75.0-0.0,voc_e2,12124,"[{""event"":""fullscreenenter"",""trial"":1,""time"":4214}]",NA,NA,NA,NA,NA,3,#741CD8,#D8271C,0,10,1,38,1,1040,37,1,386,0,1,experiment,NA,NA,2,0.5,0.5,4,5,67,2,NA
fcp-trial,101,507165,0.0-76.0-0.0,voc_e2,12124,"[{""event"":""fullscreenenter"",""trial"":1,""time"":4214}]",NA,NA,NA,NA,NA,5,#1CD855,#FA92F8,10,0,1,38,1,1189,37,1,367,10,1,experiment,NA,NA,0,0.9,0.1,0,1,68,2,NA
fcp-trial,102,510145,0.0-77.0-0.0,voc_e2,12124,"[{""event"":""fullscreenenter"",""trial"":1,""time"":4214}]",NA,NA,NA,NA,NA,2,#FA92F8,#1CD855,0,10,0,38,1,1163,39,0,308,10,1,experiment,NA,NA,0,0.1,0.9,1,0,69,2,NA
fcp-trial,103,514022,0.0-78.0-0.0,voc_e2,12124,"[{""event"":""fullscreenenter"",""trial"":1,""time"":4214}]",NA,NA,NA,NA,NA,1,#D89F1C,#3386FF,0,10,0,38,1,2076,39,0,292,10,1,experiment,NA,NA,1,0.3,0.7,3,2,70,2,NA
fcp-trial,104,517405,0.0-79.0-0.0,voc_e2,12124,"[{""event"":""fullscreenenter"",""trial"":1,""time"":4214}]",NA,NA,NA,NA,NA,1,#741CD8,#D8271C,10,10,1,38,1,1478,37,1,395,10,1,experiment,NA,NA,2,0.5,0.5,4,5,71,2,NA
fcp-trial,105,520123,0.0-80.0-0.0,voc_e2,12124,"[{""event"":""fullscreenenter"",""trial"":1,""time"":4214}]",NA,NA,NA,NA,NA,2,#3386FF,#D89F1C,10,10,1,38,1,783,37,1,427,10,1,experiment,NA,NA,1,0.7,0.3,2,3,72,2,NA
fcp-trial,106,523584,0.0-81.0-0.0,voc_e2,12124,"[{""event"":""fullscreenenter"",""trial"":1,""time"":4214}]",NA,NA,NA,NA,NA,0,#741CD8,#D8271C,10,0,1,38,1,1289,37,1,662,10,1,experiment,NA,NA,2,0.5,0.5,4,5,73,2,NA
fcp-trial,107,528376,0.0-82.0-0.0,voc_e2,12124,"[{""event"":""fullscreenenter"",""trial"":1,""time"":4214}]",NA,NA,NA,NA,NA,3,#1CD855,#FA92F8,10,0,1,38,1,1543,37,1,1729,10,1,experiment,NA,NA,0,0.9,0.1,0,1,74,2,NA
fcp-trial,108,531456,0.0-83.0-0.0,voc_e2,12124,"[{""event"":""fullscreenenter"",""trial"":1,""time"":4214}]",NA,NA,NA,NA,NA,5,#D8271C,#741CD8,0,10,0,38,1,1306.0000000001164,39,0,265,10,1,experiment,NA,NA,2,0.5,0.5,5,4,75,2,NA
fcp-trial,109,535624,0.0-84.0-0.0,voc_e2,12124,"[{""event"":""fullscreenenter"",""trial"":1,""time"":4214}]",NA,NA,NA,NA,NA,4,#D89F1C,#3386FF,10,10,0,38,1,2345,39,0,315,10,1,experiment,NA,NA,1,0.3,0.7,3,2,76,2,NA
fcp-trial,110,539349,0.0-85.0-0.0,voc_e2,12124,"[{""event"":""fullscreenenter"",""trial"":1,""time"":4214}]",NA,NA,NA,NA,NA,0,#FA92F8,#1CD855,0,10,0,38,1,1763,39,0,452,10,1,experiment,NA,NA,0,0.1,0.9,1,0,77,2,NA
fcp-trial,111,542256,0.0-86.0-0.0,voc_e2,12124,"[{""event"":""fullscreenenter"",""trial"":1,""time"":4214}]",NA,NA,NA,NA,NA,2,#D8271C,#741CD8,10,10,0,38,1,879,39,0,510,10,1,experiment,NA,NA,2,0.5,0.5,5,4,78,2,NA
fcp-trial,112,545778,0.0-87.0-0.0,voc_e2,12124,"[{""event"":""fullscreenenter"",""trial"":1,""time"":4214}]",NA,NA,NA,NA,NA,4,#FA92F8,#1CD855,0,10,0,38,1,1612,39,0,399,10,1,experiment,NA,NA,0,0.1,0.9,1,0,79,2,NA
fcp-trial,113,549101,0.0-88.0-0.0,voc_e2,12124,"[{""event"":""fullscreenenter"",""trial"":1,""time"":4214}]",NA,NA,NA,NA,NA,0,#3386FF,#D89F1C,10,0,1,38,1,1297.9999999998836,37,1,514,10,1,experiment,NA,NA,1,0.7,0.3,2,3,80,2,NA
fcp-trial,114,552212,0.0-89.0-0.0,voc_e2,12124,"[{""event"":""fullscreenenter"",""trial"":1,""time"":4214}]",NA,NA,NA,NA,NA,1,#FA92F8,#1CD855,0,10,0,38,1,1049,39,0,553,10,1,experiment,NA,NA,0,0.1,0.9,1,0,81,2,NA
fcp-trial,115,554847,0.0-90.0-0.0,voc_e2,12124,"[{""event"":""fullscreenenter"",""trial"":1,""time"":4214}]",NA,NA,NA,NA,NA,3,#D89F1C,#3386FF,0,10,0,38,1,654,39,0,469,10,1,experiment,NA,NA,1,0.3,0.7,3,2,82,2,NA
fcp-trial,116,557592,0.0-91.0-0.0,voc_e2,12124,"[{""event"":""fullscreenenter"",""trial"":1,""time"":4214}]",NA,NA,NA,NA,NA,4,#D8271C,#741CD8,0,0,0,38,1,929,39,0,297,0,1,experiment,NA,NA,2,0.5,0.5,5,4,83,2,NA
fcp-trial,117,560657,0.0-92.0-0.0,voc_e2,12124,"[{""event"":""fullscreenenter"",""trial"":1,""time"":4214}]",NA,NA,NA,NA,NA,5,#D89F1C,#3386FF,10,0,0,38,1,1192,39,0,365.9999999998836,0,1,experiment,NA,NA,1,0.3,0.7,3,2,84,2,NA
fcp-trial,118,564189,0.0-93.0-0.0,voc_e2,12124,"[{""event"":""fullscreenenter"",""trial"":1,""time"":4214}]",NA,NA,NA,NA,NA,0,#D89F1C,#3386FF,0,10,0,38,1,1244,39,0,781.0000000001164,10,1,experiment,NA,NA,1,0.3,0.7,3,2,85,2,NA
fcp-trial,119,567562,0.0-94.0-0.0,voc_e2,12124,"[{""event"":""fullscreenenter"",""trial"":1,""time"":4214}]",NA,NA,NA,NA,NA,6,#1CD855,#FA92F8,10,0,1,38,1,1487,37,1,379,10,1,experiment,NA,NA,0,0.9,0.1,0,1,86,2,NA
fcp-trial,120,570975,0.0-95.0-0.0,voc_e2,12124,"[{""event"":""fullscreenenter"",""trial"":1,""time"":4214}]",NA,NA,NA,NA,NA,3,#D8271C,#741CD8,0,10,0,38,1,1424.0000000001164,39,0,480,10,1,experiment,NA,NA,2,0.5,0.5,5,4,87,2,NA
fcp-trial,121,573912,0.0-96.0-0.0,voc_e2,12124,"[{""event"":""fullscreenenter"",""trial"":1,""time"":4214}]",NA,NA,NA,NA,NA,6,#741CD8,#D8271C,10,0,1,38,1,966,37,1,459.0000000001164,10,1,experiment,NA,NA,2,0.5,0.5,4,5,88,2,NA
fcp-trial,122,576744,0.0-97.0-0.0,voc_e2,12124,"[{""event"":""fullscreenenter"",""trial"":1,""time"":4214}]",NA,NA,NA,NA,NA,5,#D8271C,#741CD8,0,0,0,38,1,995,39,0,327,0,1,experiment,NA,NA,2,0.5,0.5,5,4,89,2,NA
fcp-trial,123,579757,0.0-98.0-0.0,voc_e2,12124,"[{""event"":""fullscreenenter"",""trial"":1,""time"":4214}]",NA,NA,NA,NA,NA,2,#D89F1C,#3386FF,0,10,0,38,1,1185,39,0,318,10,1,experiment,NA,NA,1,0.3,0.7,3,2,90,2,NA
fcp-trial,124,582957,0.0-99.0-0.0,voc_e2,12124,"[{""event"":""fullscreenenter"",""trial"":1,""time"":4214}]",NA,NA,NA,NA,NA,3,#FA92F8,#1CD855,0,10,0,38,1,1350.0000000001164,39,0,343.9999999998836,10,1,experiment,NA,NA,0,0.1,0.9,1,0,91,3,NA
fcp-trial,125,585875,0.0-100.0-0.0,voc_e2,12124,"[{""event"":""fullscreenenter"",""trial"":1,""time"":4214}]",NA,NA,NA,NA,NA,4,#741CD8,#D8271C,10,0,1,38,1,965.9999999998836,37,1,443,10,1,experiment,NA,NA,2,0.5,0.5,4,5,92,3,NA
fcp-trial,126,589358,0.0-101.0-0.0,voc_e2,12124,"[{""event"":""fullscreenenter"",""trial"":1,""time"":4214}]",NA,NA,NA,NA,NA,1,#D89F1C,#3386FF,10,10,0,38,1,1548,39,0,426,10,1,experiment,NA,NA,1,0.3,0.7,3,2,93,3,NA
fcp-trial,127,593260,0.0-102.0-0.0,voc_e2,12124,"[{""event"":""fullscreenenter"",""trial"":1,""time"":4214}]",NA,NA,NA,NA,NA,2,#1CD855,#FA92F8,10,0,1,38,1,2118,37,1,277,10,1,experiment,NA,NA,0,0.9,0.1,0,1,94,3,NA
fcp-trial,128,596078,0.0-103.0-0.0,voc_e2,12124,"[{""event"":""fullscreenenter"",""trial"":1,""time"":4214}]",NA,NA,NA,NA,NA,5,#FA92F8,#1CD855,0,10,0,38,1,820,39,0,490,10,1,experiment,NA,NA,0,0.1,0.9,1,0,95,3,NA
fcp-trial,129,598862,0.0-104.0-0.0,voc_e2,12124,"[{""event"":""fullscreenenter"",""trial"":1,""time"":4214}]",NA,NA,NA,NA,NA,0,#741CD8,#D8271C,10,10,1,38,1,708,37,1,565,10,1,experiment,NA,NA,2,0.5,0.5,4,5,96,3,NA
fcp-trial,130,602882,0.0-105.0-0.0,voc_e2,12124,"[{""event"":""fullscreenenter"",""trial"":1,""time"":4214}]",NA,NA,NA,NA,NA,3,#D89F1C,#3386FF,0,10,0,38,1,1930,39,0,581,10,1,experiment,NA,NA,1,0.3,0.7,3,2,97,3,NA
fcp-trial,131,605423,0.0-106.0-0.0,voc_e2,12124,"[{""event"":""fullscreenenter"",""trial"":1,""time"":4214}]",NA,NA,NA,NA,NA,4,#D89F1C,#3386FF,0,10,0,38,1,675,39,0,349,10,1,experiment,NA,NA,1,0.3,0.7,3,2,98,3,NA
fcp-trial,132,608198,0.0-107.0-0.0,voc_e2,12124,"[{""event"":""fullscreenenter"",""trial"":1,""time"":4214}]",NA,NA,NA,NA,NA,1,#FA92F8,#1CD855,0,0,0,38,1,854,39,0,411.9999999998836,0,1,experiment,NA,NA,0,0.1,0.9,1,0,99,3,NA
fcp-trial,133,611008,0.0-108.0-0.0,voc_e2,12124,"[{""event"":""fullscreenenter"",""trial"":1,""time"":4214}]",NA,NA,NA,NA,NA,6,#3386FF,#D89F1C,10,0,1,38,1,970,37,1,331,10,1,experiment,NA,NA,1,0.7,0.3,2,3,100,3,NA
fcp-trial,134,614161,0.0-109.0-0.0,voc_e2,12124,"[{""event"":""fullscreenenter"",""trial"":1,""time"":4214}]",NA,NA,NA,NA,NA,2,#D8271C,#741CD8,0,10,0,38,1,1238.9999999998836,39,0,404.0000000001164,10,1,experiment,NA,NA,2,0.5,0.5,5,4,101,3,NA
fcp-trial,135,617258,0.0-110.0-0.0,voc_e2,12124,"[{""event"":""fullscreenenter"",""trial"":1,""time"":4214}]",NA,NA,NA,NA,NA,4,#1CD855,#FA92F8,10,0,1,38,1,1159,37,1,431,10,1,experiment,NA,NA,0,0.9,0.1,0,1,102,3,NA
fcp-trial,136,620394,0.0-111.0-0.0,voc_e2,12124,"[{""event"":""fullscreenenter"",""trial"":1,""time"":4214}]",NA,NA,NA,NA,NA,0,#1CD855,#FA92F8,10,0,1,38,1,1093,37,1,537,10,1,experiment,NA,NA,0,0.9,0.1,0,1,103,3,NA
fcp-trial,137,623809,0.0-112.0-0.0,voc_e2,12124,"[{""event"":""fullscreenenter"",""trial"":1,""time"":4214}]",NA,NA,NA,NA,NA,5,#3386FF,#D89F1C,10,0,1,38,1,1456,37,1,450,10,1,experiment,NA,NA,1,0.7,0.3,2,3,104,3,NA
fcp-trial,138,627013,0.0-113.0-0.0,voc_e2,12124,"[{""event"":""fullscreenenter"",""trial"":1,""time"":4214}]",NA,NA,NA,NA,NA,1,#D8271C,#741CD8,0,10,0,38,1,1211,39,0,482,10,1,experiment,NA,NA,2,0.5,0.5,5,4,105,3,NA
audio-instructions,139,632056,0.0-114.0,voc_e2,12124,"[{""event"":""fullscreenenter"",""trial"":1,""time"":4214}]",NA,600,static/audio/pause.wav,NA,0,NA,NA,NA,NA,NA,NA,NA,NA,NA,NA,NA,NA,NA,NA,NA,NA,NA,NA,NA,NA,NA,NA,NA,NA,NA
fcp-trial,140,635599,0.0-115.0-0.0,voc_e2,12124,"[{""event"":""fullscreenenter"",""trial"":1,""time"":4214}]",NA,NA,NA,NA,NA,3,#1CD855,#FA92F8,10,0,1,38,1,1341,37,1,689,10,1,experiment,NA,NA,0,0.9,0.1,0,1,106,3,NA
fcp-trial,141,639327,0.0-116.0-0.0,voc_e2,12124,"[{""event"":""fullscreenenter"",""trial"":1,""time"":4214}]",NA,NA,NA,NA,NA,6,#D89F1C,#3386FF,0,10,0,38,1,1825.9999999998836,39,0,380.9999999998836,10,1,experiment,NA,NA,1,0.3,0.7,3,2,107,3,NA
fcp-trial,142,642660,0.0-117.0-0.0,voc_e2,12124,"[{""event"":""fullscreenenter"",""trial"":1,""time"":4214}]",NA,NA,NA,NA,NA,4,#D8271C,#741CD8,10,0,0,38,1,1423,39,0,400,0,1,experiment,NA,NA,2,0.5,0.5,5,4,108,3,NA
fcp-trial,143,645757,0.0-118.0-0.0,voc_e2,12124,"[{""event"":""fullscreenenter"",""trial"":1,""time"":4214}]",NA,NA,NA,NA,NA,6,#FA92F8,#1CD855,0,10,0,38,1,1207,39,0,381,10,1,experiment,NA,NA,0,0.1,0.9,1,0,109,3,NA
fcp-trial,144,648980,0.0-119.0-0.0,voc_e2,12124,"[{""event"":""fullscreenenter"",""trial"":1,""time"":4214}]",NA,NA,NA,NA,NA,4,#FA92F8,#1CD855,0,10,0,38,1,1133,39,0,581,10,1,experiment,NA,NA,0,0.1,0.9,1,0,110,3,NA
fcp-trial,145,652392,0.0-120.0-0.0,voc_e2,12124,"[{""event"":""fullscreenenter"",""trial"":1,""time"":4214}]",NA,NA,NA,NA,NA,2,#3386FF,#D89F1C,10,0,1,38,1,1386,37,1,516,10,1,experiment,NA,NA,1,0.7,0.3,2,3,111,3,NA
fcp-trial,146,656741,0.0-121.0-0.0,voc_e2,12124,"[{""event"":""fullscreenenter"",""trial"":1,""time"":4214}]",NA,NA,NA,NA,NA,1,#1CD855,#FA92F8,10,0,1,38,1,1330,37,1,1509,10,1,experiment,NA,NA,0,0.9,0.1,0,1,112,3,NA
fcp-trial,147,660439,0.0-122.0-0.0,voc_e2,12124,"[{""event"":""fullscreenenter"",""trial"":1,""time"":4214}]",NA,NA,NA,NA,NA,1,#D8271C,#741CD8,10,0,0,38,1,1801,39,0,390,0,1,experiment,NA,NA,2,0.5,0.5,5,4,113,3,NA
fcp-trial,148,663295,0.0-123.0-0.0,voc_e2,12124,"[{""event"":""fullscreenenter"",""trial"":1,""time"":4214}]",NA,NA,NA,NA,NA,1,#D89F1C,#3386FF,0,0,0,38,1,1033.9999999998836,39,0,313,0,1,experiment,NA,NA,1,0.3,0.7,3,2,114,3,NA
fcp-trial,149,667307,0.0-124.0-0.0,voc_e2,12124,"[{""event"":""fullscreenenter"",""trial"":1,""time"":4214}]",NA,NA,NA,NA,NA,5,#741CD8,#D8271C,0,0,1,38,1,2061.0000000001164,37,1,442,0,1,experiment,NA,NA,2,0.5,0.5,4,5,115,3,NA
fcp-trial,150,671589,0.0-125.0-0.0,voc_e2,12124,"[{""event"":""fullscreenenter"",""trial"":1,""time"":4214}]",NA,NA,NA,NA,NA,2,#FA92F8,#1CD855,0,10,0,38,1,2394,39,0,378,10,1,experiment,NA,NA,0,0.1,0.9,1,0,116,3,NA
fcp-trial,151,675172,0.0-126.0-0.0,voc_e2,12124,"[{""event"":""fullscreenenter"",""trial"":1,""time"":4214}]",NA,NA,NA,NA,NA,2,#741CD8,#D8271C,10,10,1,38,1,1548,37,1,526,10,1,experiment,NA,NA,2,0.5,0.5,4,5,117,3,NA
fcp-trial,152,679460,0.0-127.0-0.0,voc_e2,12124,"[{""event"":""fullscreenenter"",""trial"":1,""time"":4214}]",NA,NA,NA,NA,NA,0,#D89F1C,#3386FF,0,10,0,38,1,2079,39,0,699.0000000001164,10,1,experiment,NA,NA,1,0.3,0.7,3,2,118,3,NA
fcp-trial,153,682607,0.0-128.0-0.0,voc_e2,12124,"[{""event"":""fullscreenenter"",""trial"":1,""time"":4214}]",NA,NA,NA,NA,NA,0,#D8271C,#741CD8,10,10,0,38,1,1227.9999999998836,39,0,408,10,1,experiment,NA,NA,2,0.5,0.5,5,4,119,3,NA
fcp-trial,154,685815,0.0-129.0-0.0,voc_e2,12124,"[{""event"":""fullscreenenter"",""trial"":1,""time"":4214}]",NA,NA,NA,NA,NA,3,#D89F1C,#3386FF,10,10,0,38,1,1200.0000000001164,39,0,499.0000000001164,10,1,experiment,NA,NA,1,0.3,0.7,3,2,120,3,NA
fcp-trial,155,688882,0.0-130.0-0.0,voc_e2,12124,"[{""event"":""fullscreenenter"",""trial"":1,""time"":4214}]",NA,NA,NA,NA,NA,5,#FA92F8,#1CD855,0,10,0,38,1,1119,39,0,437,10,1,experiment,NA,NA,0,0.1,0.9,1,0,121,3,NA
fcp-trial,156,691939,0.0-131.0-0.0,voc_e2,12124,"[{""event"":""fullscreenenter"",""trial"":1,""time"":4214}]",NA,NA,NA,NA,NA,4,#D89F1C,#3386FF,10,10,0,38,1,1115,39,0,431.9999999998836,10,1,experiment,NA,NA,1,0.3,0.7,3,2,122,3,NA
fcp-trial,157,695544,0.0-132.0-0.0,voc_e2,12124,"[{""event"":""fullscreenenter"",""trial"":1,""time"":4214}]",NA,NA,NA,NA,NA,3,#D8271C,#741CD8,10,10,0,38,1,1620,39,0,476,10,1,experiment,NA,NA,2,0.5,0.5,5,4,123,3,NA
fcp-trial,158,698842,0.0-133.0-0.0,voc_e2,12124,"[{""event"":""fullscreenenter"",""trial"":1,""time"":4214}]",NA,NA,NA,NA,NA,5,#D89F1C,#3386FF,10,10,0,38,1,1466,39,0,325.9999999998836,10,1,experiment,NA,NA,1,0.3,0.7,3,2,124,3,NA
fcp-trial,159,702627,0.0-134.0-0.0,voc_e2,12124,"[{""event"":""fullscreenenter"",""trial"":1,""time"":4214}]",NA,NA,NA,NA,NA,0,#FA92F8,#1CD855,0,10,0,38,1,1390.0000000001164,39,0,885,10,1,experiment,NA,NA,0,0.1,0.9,1,0,125,3,NA
fcp-trial,160,707242,0.0-135.0-0.0,voc_e2,12124,"[{""event"":""fullscreenenter"",""trial"":1,""time"":4214}]",NA,NA,NA,NA,NA,6,#741CD8,#D8271C,10,10,1,38,1,1512,37,1,1595.0000000001164,10,1,experiment,NA,NA,2,0.5,0.5,4,5,126,3,NA
fcp-trial,161,712454,0.0-136.0-0.0,voc_e2,12124,"[{""event"":""fullscreenenter"",""trial"":1,""time"":4214}]",NA,NA,NA,NA,NA,3,#3386FF,#D89F1C,10,0,1,38,1,3257,37,1,445.9999999998836,10,1,experiment,NA,NA,1,0.7,0.3,2,3,127,3,NA
fcp-trial,162,716527,0.0-137.0-0.0,voc_e2,12124,"[{""event"":""fullscreenenter"",""trial"":1,""time"":4214}]",NA,NA,NA,NA,NA,2,#1CD855,#FA92F8,10,0,1,38,1,2132.0000000001164,37,1,431,10,1,experiment,NA,NA,0,0.9,0.1,0,1,128,3,NA
fcp-trial,163,719626,0.0-138.0-0.0,voc_e2,12124,"[{""event"":""fullscreenenter"",""trial"":1,""time"":4214}]",NA,NA,NA,NA,NA,1,#FA92F8,#1CD855,0,10,0,38,1,1135,39,0,452,10,1,experiment,NA,NA,0,0.1,0.9,1,0,129,3,NA
fcp-trial,164,722893,0.0-139.0-0.0,voc_e2,12124,"[{""event"":""fullscreenenter"",""trial"":1,""time"":4214}]",NA,NA,NA,NA,NA,1,#741CD8,#D8271C,10,10,1,38,1,1179,37,1,577,10,1,experiment,NA,NA,2,0.5,0.5,4,5,130,3,NA
fcp-trial,165,727200,0.0-140.0-0.0,voc_e2,12124,"[{""event"":""fullscreenenter"",""trial"":1,""time"":4214}]",NA,NA,NA,NA,NA,6,#3386FF,#D89F1C,10,0,1,38,1,2328,37,1,468,10,1,experiment,NA,NA,1,0.7,0.3,2,3,131,3,NA
fcp-trial,166,731540,0.0-141.0-0.0,voc_e2,12124,"[{""event"":""fullscreenenter"",""trial"":1,""time"":4214}]",NA,NA,NA,NA,NA,5,#FA92F8,#1CD855,0,10,0,38,1,2382,39,0,439,10,1,experiment,NA,NA,0,0.1,0.9,1,0,132,3,NA
fcp-trial,167,735563,0.0-142.0-0.0,voc_e2,12124,"[{""event"":""fullscreenenter"",""trial"":1,""time"":4214}]",NA,NA,NA,NA,NA,5,#D8271C,#741CD8,0,0,0,40,0,1725,37,1,787,0,0,experiment,NA,NA,2,0.5,0.5,5,4,133,3,NA
fcp-trial,168,739229,0.0-143.0-0.0,voc_e2,12124,"[{""event"":""fullscreenenter"",""trial"":1,""time"":4214}]",NA,NA,NA,NA,NA,2,#3386FF,#D89F1C,10,0,1,38,1,1627,37,1,520,10,1,experiment,NA,NA,1,0.7,0.3,2,3,134,3,NA
fcp-trial,169,743005,0.0-144.0-0.0,voc_e2,12124,"[{""event"":""fullscreenenter"",""trial"":1,""time"":4214}]",NA,NA,NA,NA,NA,3,#1CD855,#FA92F8,10,0,1,38,1,1893,37,1,366,10,1,experiment,NA,NA,0,0.9,0.1,0,1,135,3,NA
fcp-trial,170,746127,0.0-145.0-0.0,voc_e2,12124,"[{""event"":""fullscreenenter"",""trial"":1,""time"":4214}]",NA,NA,NA,NA,NA,0,#741CD8,#D8271C,0,0,1,38,1,1121.9999999998836,37,1,491,0,1,experiment,NA,NA,2,0.5,0.5,4,5,136,4,NA
fcp-trial,171,749340,0.0-146.0-0.0,voc_e2,12124,"[{""event"":""fullscreenenter"",""trial"":1,""time"":4214}]",NA,NA,NA,NA,NA,4,#3386FF,#D89F1C,0,0,1,38,1,1201,37,1,502,0,1,experiment,NA,NA,1,0.7,0.3,2,3,137,4,NA
fcp-trial,172,752634,0.0-147.0-0.0,voc_e2,12124,"[{""event"":""fullscreenenter"",""trial"":1,""time"":4214}]",NA,NA,NA,NA,NA,6,#D8271C,#741CD8,10,10,0,40,0,1139,37,1,644.9999999998836,10,0,experiment,NA,NA,2,0.5,0.5,5,4,138,4,NA
fcp-trial,173,755638,0.0-148.0-0.0,voc_e2,12124,"[{""event"":""fullscreenenter"",""trial"":1,""time"":4214}]",NA,NA,NA,NA,NA,3,#741CD8,#D8271C,10,10,1,38,1,992,37,1,493,10,1,experiment,NA,NA,2,0.5,0.5,4,5,139,4,NA
fcp-trial,174,759339,0.0-149.0-0.0,voc_e2,12124,"[{""event"":""fullscreenenter"",""trial"":1,""time"":4214}]",NA,NA,NA,NA,NA,6,#FA92F8,#1CD855,10,10,0,38,1,1717,39,0,475.0000000001164,10,1,experiment,NA,NA,0,0.1,0.9,1,0,140,4,NA
fcp-trial,175,762671,0.0-150.0-0.0,voc_e2,12124,"[{""event"":""fullscreenenter"",""trial"":1,""time"":4214}]",NA,NA,NA,NA,NA,0,#D89F1C,#3386FF,0,10,0,38,1,1381,39,0,444,10,1,experiment,NA,NA,1,0.3,0.7,3,2,141,4,NA
fcp-trial,176,765958,0.0-151.0-0.0,voc_e2,12124,"[{""event"":""fullscreenenter"",""trial"":1,""time"":4214}]",NA,NA,NA,NA,NA,1,#3386FF,#D89F1C,0,0,1,38,1,1311,37,1,466,0,1,experiment,NA,NA,1,0.7,0.3,2,3,142,4,NA
fcp-trial,177,770010,0.0-152.0-0.0,voc_e2,12124,"[{""event"":""fullscreenenter"",""trial"":1,""time"":4214}]",NA,NA,NA,NA,NA,4,#741CD8,#D8271C,0,0,1,38,1,2091,37,1,452,0,1,experiment,NA,NA,2,0.5,0.5,4,5,143,4,NA
fcp-trial,178,773613,0.0-153.0-0.0,voc_e2,12124,"[{""event"":""fullscreenenter"",""trial"":1,""time"":4214}]",NA,NA,NA,NA,NA,0,#FA92F8,#1CD855,0,10,0,38,1,1341,39,0,753.9999999998836,10,1,experiment,NA,NA,0,0.1,0.9,1,0,144,4,NA
fcp-trial,179,777064,0.0-154.0-0.0,voc_e2,12124,"[{""event"":""fullscreenenter"",""trial"":1,""time"":4214}]",NA,NA,NA,NA,NA,2,#741CD8,#D8271C,10,0,1,38,1,1310,37,1,631,10,1,experiment,NA,NA,2,0.5,0.5,4,5,145,4,NA
fcp-trial,180,781000,0.0-155.0-0.0,voc_e2,12124,"[{""event"":""fullscreenenter"",""trial"":1,""time"":4214}]",NA,NA,NA,NA,NA,5,#D89F1C,#3386FF,0,0,0,38,1,1915,39,0,500,0,1,experiment,NA,NA,1,0.3,0.7,3,2,146,4,NA
fcp-trial,181,783946,0.0-156.0-0.0,voc_e2,12124,"[{""event"":""fullscreenenter"",""trial"":1,""time"":4214}]",NA,NA,NA,NA,NA,4,#FA92F8,#1CD855,0,10,0,38,1,1088,39,0,339.0000000001164,10,1,experiment,NA,NA,0,0.1,0.9,1,0,147,4,NA
fcp-trial,182,787500,0.0-157.0-0.0,voc_e2,12124,"[{""event"":""fullscreenenter"",""trial"":1,""time"":4214}]",NA,NA,NA,NA,NA,4,#D8271C,#741CD8,0,10,0,38,1,1623,39,0,423,10,1,experiment,NA,NA,2,0.5,0.5,5,4,148,4,NA
fcp-trial,183,790705,0.0-158.0-0.0,voc_e2,12124,"[{""event"":""fullscreenenter"",""trial"":1,""time"":4214}]",NA,NA,NA,NA,NA,1,#741CD8,#D8271C,0,10,1,38,1,1272.9999999998836,37,1,413,0,1,experiment,NA,NA,2,0.5,0.5,4,5,149,4,NA
fcp-trial,184,794533,0.0-159.0-0.0,voc_e2,12124,"[{""event"":""fullscreenenter"",""trial"":1,""time"":4214}]",NA,NA,NA,NA,NA,4,#D89F1C,#3386FF,10,0,0,38,1,1529,39,0,789.0000000001164,0,1,experiment,NA,NA,1,0.3,0.7,3,2,150,4,NA
fcp-trial,185,799199,0.0-160.0-0.0,voc_e2,12124,"[{""event"":""fullscreenenter"",""trial"":1,""time"":4214}]",NA,NA,NA,NA,NA,0,#1CD855,#FA92F8,10,0,1,38,1,2622,37,1,525,10,1,experiment,NA,NA,0,0.9,0.1,0,1,151,4,NA
fcp-trial,186,802039,0.0-161.0-0.0,voc_e2,12124,"[{""event"":""fullscreenenter"",""trial"":1,""time"":4214}]",NA,NA,NA,NA,NA,5,#FA92F8,#1CD855,0,10,0,38,1,889,39,0,432,10,1,experiment,NA,NA,0,0.1,0.9,1,0,152,4,NA
fcp-trial,187,807058,0.0-162.0-0.0,voc_e2,12124,"[{""event"":""fullscreenenter"",""trial"":1,""time"":4214}]",NA,NA,NA,NA,NA,1,#1CD855,#FA92F8,10,0,1,38,1,2520,37,1,989,10,1,experiment,NA,NA,0,0.9,0.1,0,1,153,4,NA
fcp-trial,188,810405,0.0-163.0-0.0,voc_e2,12124,"[{""event"":""fullscreenenter"",""trial"":1,""time"":4214}]",NA,NA,NA,NA,NA,3,#741CD8,#D8271C,10,10,1,38,1,1394,37,1,442,10,1,experiment,NA,NA,2,0.5,0.5,4,5,154,4,NA
fcp-trial,189,816942,0.0-164.0-0.0,voc_e2,12124,"[{""event"":""fullscreenenter"",""trial"":1,""time"":4214}]",NA,NA,NA,NA,NA,1,#3386FF,#D89F1C,10,10,1,38,1,3169,37,1,1861,10,1,experiment,NA,NA,1,0.7,0.3,2,3,155,4,NA
fcp-trial,190,821058,0.0-165.0-0.0,voc_e2,12124,"[{""event"":""fullscreenenter"",""trial"":1,""time"":4214}]",NA,NA,NA,NA,NA,2,#1CD855,#FA92F8,10,0,1,38,1,2152,37,1,455,10,1,experiment,NA,NA,0,0.9,0.1,0,1,156,4,NA
fcp-trial,191,824664,0.0-166.0-0.0,voc_e2,12124,"[{""event"":""fullscreenenter"",""trial"":1,""time"":4214}]",NA,NA,NA,NA,NA,6,#1CD855,#FA92F8,10,0,1,40,0,1468,37,1,625.9999999998836,10,1,experiment,NA,NA,0,0.9,0.1,0,1,157,4,NA
fcp-trial,192,827853,0.0-167.0-0.0,voc_e2,12124,"[{""event"":""fullscreenenter"",""trial"":1,""time"":4214}]",NA,NA,NA,NA,NA,6,#D8271C,#741CD8,0,10,0,40,0,1160,39,0,511,10,1,experiment,NA,NA,2,0.5,0.5,5,4,158,4,NA
fcp-trial,193,831105,0.0-168.0-0.0,voc_e2,12124,"[{""event"":""fullscreenenter"",""trial"":1,""time"":4214}]",NA,NA,NA,NA,NA,5,#3386FF,#D89F1C,0,10,1,40,0,1180,37,1,562.9999999998836,0,1,experiment,NA,NA,1,0.7,0.3,2,3,159,4,NA
fcp-trial,194,836582,0.0-169.0-0.0,voc_e2,12124,"[{""event"":""fullscreenenter"",""trial"":1,""time"":4214}]",NA,NA,NA,NA,NA,4,#FA92F8,#1CD855,0,10,0,38,1,3514,39,0,455,10,1,experiment,NA,NA,0,0.1,0.9,1,0,160,4,NA
fcp-trial,195,839772,0.0-170.0-0.0,voc_e2,12124,"[{""event"":""fullscreenenter"",""trial"":1,""time"":4214}]",NA,NA,NA,NA,NA,6,#D89F1C,#3386FF,0,10,0,40,0,1139,37,1,543,0,0,experiment,NA,NA,1,0.3,0.7,3,2,161,4,NA
fcp-trial,196,842876,0.0-171.0-0.0,voc_e2,12124,"[{""event"":""fullscreenenter"",""trial"":1,""time"":4214}]",NA,NA,NA,NA,NA,2,#D8271C,#741CD8,10,0,0,38,1,1127.0000000001164,39,0,469,0,1,experiment,NA,NA,2,0.5,0.5,5,4,162,4,NA
fcp-trial,197,845839,0.0-172.0-0.0,voc_e2,12124,"[{""event"":""fullscreenenter"",""trial"":1,""time"":4214}]",NA,NA,NA,NA,NA,5,#741CD8,#D8271C,0,10,1,40,0,984,37,1,470.0000000001164,0,1,experiment,NA,NA,2,0.5,0.5,4,5,163,4,NA
fcp-trial,198,848821,0.0-173.0-0.0,voc_e2,12124,"[{""event"":""fullscreenenter"",""trial"":1,""time"":4214}]",NA,NA,NA,NA,NA,2,#D89F1C,#3386FF,10,0,0,38,1,1001,39,0,472.0000000001164,0,1,experiment,NA,NA,1,0.3,0.7,3,2,164,4,NA
fcp-trial,199,851768,0.0-174.0-0.0,voc_e2,12124,"[{""event"":""fullscreenenter"",""trial"":1,""time"":4214}]",NA,NA,NA,NA,NA,3,#1CD855,#FA92F8,10,0,1,38,1,944.9999999998836,39,0,491,0,0,experiment,NA,NA,0,0.9,0.1,0,1,165,4,NA
fcp-trial,200,856573,0.0-175.0-0.0,voc_e2,12124,"[{""event"":""fullscreenenter"",""trial"":1,""time"":4214}]",NA,NA,NA,NA,NA,0,#3386FF,#D89F1C,0,0,1,40,0,2751,39,0,537,0,0,experiment,NA,NA,1,0.7,0.3,2,3,166,4,NA
fcp-trial,201,862626,0.0-176.0-0.0,voc_e2,12124,"[{""event"":""fullscreenenter"",""trial"":1,""time"":4214}]",NA,NA,NA,NA,NA,3,#3386FF,#D89F1C,10,0,1,40,0,4069,39,0,474,0,0,experiment,NA,NA,1,0.7,0.3,2,3,167,4,NA
fcp-trial,202,865744,0.0-177.0-0.0,voc_e2,12124,"[{""event"":""fullscreenenter"",""trial"":1,""time"":4214}]",NA,NA,NA,NA,NA,0,#D8271C,#741CD8,0,0,0,38,1,1125,39,0,484,0,1,experiment,NA,NA,2,0.5,0.5,5,4,168,4,NA
fcp-trial,203,869002,0.0-178.0-0.0,voc_e2,12124,"[{""event"":""fullscreenenter"",""trial"":1,""time"":4214}]",NA,NA,NA,NA,NA,1,#FA92F8,#1CD855,0,10,0,38,1,1293,39,0,456,10,1,experiment,NA,NA,0,0.1,0.9,1,0,169,4,NA
fcp-trial,204,872372,0.0-179.0-0.0,voc_e2,12124,"[{""event"":""fullscreenenter"",""trial"":1,""time"":4214}]",NA,NA,NA,NA,NA,4,#3386FF,#D89F1C,10,0,1,38,1,1374,37,1,478,10,1,experiment,NA,NA,1,0.7,0.3,2,3,170,4,NA
fcp-trial,205,875940,0.0-180.0-0.0,voc_e2,12124,"[{""event"":""fullscreenenter"",""trial"":1,""time"":4214}]",NA,NA,NA,NA,NA,2,#FA92F8,#1CD855,10,10,0,38,1,1361,39,0,699,10,1,experiment,NA,NA,0,0.1,0.9,1,0,171,4,NA
fcp-trial,206,880476,0.0-181.0-0.0,voc_e2,12124,"[{""event"":""fullscreenenter"",""trial"":1,""time"":4214}]",NA,NA,NA,NA,NA,3,#D89F1C,#3386FF,0,10,0,38,1,1911,39,0,1117.9999999998836,10,1,experiment,NA,NA,1,0.3,0.7,3,2,172,4,NA
fcp-trial,207,886109,0.0-182.0-0.0,voc_e2,12124,"[{""event"":""fullscreenenter"",""trial"":1,""time"":4214}]",NA,NA,NA,NA,NA,6,#1CD855,#FA92F8,10,0,1,40,0,2977.0000000001164,37,1,1150,10,1,experiment,NA,NA,0,0.9,0.1,0,1,173,4,NA
fcp-trial,208,889478,0.0-183.0-0.0,voc_e2,12124,"[{""event"":""fullscreenenter"",""trial"":1,""time"":4214}]",NA,NA,NA,NA,NA,5,#D89F1C,#3386FF,10,0,0,40,0,1349,37,1,511,10,0,experiment,NA,NA,1,0.3,0.7,3,2,174,4,NA
fcp-trial,209,892991,0.0-184.0-0.0,voc_e2,12124,"[{""event"":""fullscreenenter"",""trial"":1,""time"":4214}]",NA,NA,NA,NA,NA,3,#741CD8,#D8271C,0,10,1,38,1,1492,37,1,510,0,1,experiment,NA,NA,2,0.5,0.5,4,5,175,4,NA
fcp-trial,210,898998,0.0-185.0-0.0,voc_e2,12124,"[{""event"":""fullscreenenter"",""trial"":1,""time"":4214}]",NA,NA,NA,NA,NA,3,#FA92F8,#1CD855,0,10,0,38,1,4135,39,0,363,10,1,experiment,NA,NA,0,0.1,0.9,1,0,176,4,NA
fcp-trial,211,901974,0.0-186.0-0.0,voc_e2,12124,"[{""event"":""fullscreenenter"",""trial"":1,""time"":4214}]",NA,NA,NA,NA,NA,6,#D8271C,#741CD8,0,10,0,40,0,988,39,0,467,10,1,experiment,NA,NA,2,0.5,0.5,5,4,177,4,NA
fcp-trial,212,906273,0.0-187.0-0.0,voc_e2,12124,"[{""event"":""fullscreenenter"",""trial"":1,""time"":4214}]",NA,NA,NA,NA,NA,0,#FA92F8,#1CD855,0,10,0,38,1,2248.0000000001164,39,0,543,10,1,experiment,NA,NA,0,0.1,0.9,1,0,178,4,NA
fcp-trial,213,910394,0.0-188.0-0.0,voc_e2,12124,"[{""event"":""fullscreenenter"",""trial"":1,""time"":4214}]",NA,NA,NA,NA,NA,6,#3386FF,#D89F1C,10,10,1,40,0,2109,39,0,503,10,0,experiment,NA,NA,1,0.7,0.3,2,3,179,4,NA
fcp-trial,214,914303,0.0-189.0-0.0,voc_e2,12124,"[{""event"":""fullscreenenter"",""trial"":1,""time"":4214}]",NA,NA,NA,NA,NA,0,#D89F1C,#3386FF,0,10,0,38,1,1474,39,0,923.9999999998836,10,1,experiment,NA,NA,1,0.3,0.7,3,2,180,4,NA
fcp-trial,215,917422,0.0-190.0-0.0,voc_e2,12124,"[{""event"":""fullscreenenter"",""trial"":1,""time"":4214}]",NA,NA,NA,NA,NA,5,#D8271C,#741CD8,0,0,0,40,0,1157,39,0,443,0,1,experiment,NA,NA,2,0.5,0.5,5,4,181,5,NA
fcp-trial,216,921172,0.0-191.0-0.0,voc_e2,12124,"[{""event"":""fullscreenenter"",""trial"":1,""time"":4214}]",NA,NA,NA,NA,NA,1,#D8271C,#741CD8,0,10,0,38,1,1779,39,0,461,10,1,experiment,NA,NA,2,0.5,0.5,5,4,182,5,NA
fcp-trial,217,925996,0.0-192.0-0.0,voc_e2,12124,"[{""event"":""fullscreenenter"",""trial"":1,""time"":4214}]",NA,NA,NA,NA,NA,4,#1CD855,#FA92F8,10,0,1,38,1,1786.9999999998836,37,1,1524.9999999998836,10,1,experiment,NA,NA,0,0.9,0.1,0,1,183,5,NA
fcp-trial,218,928913,0.0-193.0-0.0,voc_e2,12124,"[{""event"":""fullscreenenter"",""trial"":1,""time"":4214}]",NA,NA,NA,NA,NA,0,#D8271C,#741CD8,0,0,0,38,1,932.0000000001164,39,0,467.9999999998836,0,1,experiment,NA,NA,2,0.5,0.5,5,4,184,5,NA
fcp-trial,219,932167,0.0-194.0-0.0,voc_e2,12124,"[{""event"":""fullscreenenter"",""trial"":1,""time"":4214}]",NA,NA,NA,NA,NA,1,#3386FF,#D89F1C,10,0,1,38,1,1305,37,1,439,10,1,experiment,NA,NA,1,0.7,0.3,2,3,185,5,NA
fcp-trial,220,935274,0.0-195.0-0.0,voc_e2,12124,"[{""event"":""fullscreenenter"",""trial"":1,""time"":4214}]",NA,NA,NA,NA,NA,5,#FA92F8,#1CD855,0,10,0,40,0,1110,39,0,479,10,1,experiment,NA,NA,0,0.1,0.9,1,0,186,5,NA
fcp-trial,221,938943,0.0-196.0-0.0,voc_e2,12124,"[{""event"":""fullscreenenter"",""trial"":1,""time"":4214}]",NA,NA,NA,NA,NA,4,#741CD8,#D8271C,10,10,1,38,1,1441,37,1,722,10,1,experiment,NA,NA,2,0.5,0.5,4,5,187,5,NA
fcp-trial,222,942074,0.0-197.0-0.0,voc_e2,12124,"[{""event"":""fullscreenenter"",""trial"":1,""time"":4214}]",NA,NA,NA,NA,NA,2,#D8271C,#741CD8,0,10,0,38,1,1049,39,0,576,10,1,experiment,NA,NA,2,0.5,0.5,5,4,188,5,NA
fcp-trial,223,945438,0.0-198.0-0.0,voc_e2,12124,"[{""event"":""fullscreenenter"",""trial"":1,""time"":4214}]",NA,NA,NA,NA,NA,2,#3386FF,#D89F1C,10,0,1,38,1,777.0000000001164,37,1,1079,10,1,experiment,NA,NA,1,0.7,0.3,2,3,189,5,NA
fcp-trial,224,948411,0.0-199.0-0.0,voc_e2,12124,"[{""event"":""fullscreenenter"",""trial"":1,""time"":4214}]",NA,NA,NA,NA,NA,2,#D89F1C,#3386FF,0,10,0,38,1,933.9999999998836,39,0,530.0000000001164,10,1,experiment,NA,NA,1,0.3,0.7,3,2,190,5,NA
fcp-trial,225,951392,0.0-200.0-0.0,voc_e2,12124,"[{""event"":""fullscreenenter"",""trial"":1,""time"":4214}]",NA,NA,NA,NA,NA,2,#FA92F8,#1CD855,0,10,0,38,1,721,39,0,751,10,1,experiment,NA,NA,0,0.1,0.9,1,0,191,5,NA
fcp-trial,226,954538,0.0-201.0-0.0,voc_e2,12124,"[{""event"":""fullscreenenter"",""trial"":1,""time"":4214}]",NA,NA,NA,NA,NA,5,#741CD8,#D8271C,10,10,1,40,0,1042,39,0,594,10,0,experiment,NA,NA,2,0.5,0.5,4,5,192,5,NA
fcp-trial,227,957804,0.0-202.0-0.0,voc_e2,12124,"[{""event"":""fullscreenenter"",""trial"":1,""time"":4214}]",NA,NA,NA,NA,NA,5,#3386FF,#D89F1C,10,0,1,40,0,1248,37,1,510,10,1,experiment,NA,NA,1,0.7,0.3,2,3,193,5,NA
fcp-trial,228,960606,0.0-203.0-0.0,voc_e2,12124,"[{""event"":""fullscreenenter"",""trial"":1,""time"":4214}]",NA,NA,NA,NA,NA,1,#D89F1C,#3386FF,10,10,0,38,1,794,39,0,497.9999999998836,10,1,experiment,NA,NA,1,0.3,0.7,3,2,194,5,NA
fcp-trial,229,963623,0.0-204.0-0.0,voc_e2,12124,"[{""event"":""fullscreenenter"",""trial"":1,""time"":4214}]",NA,NA,NA,NA,NA,6,#741CD8,#D8271C,10,10,1,40,0,865.9999999998836,37,1,641,10,1,experiment,NA,NA,2,0.5,0.5,4,5,195,5,NA
fcp-trial,230,966373,0.0-205.0-0.0,voc_e2,12124,"[{""event"":""fullscreenenter"",""trial"":1,""time"":4214}]",NA,NA,NA,NA,NA,5,#1CD855,#FA92F8,10,0,1,40,0,674.0000000001164,37,1,568,10,1,experiment,NA,NA,0,0.9,0.1,0,1,196,5,NA
fcp-trial,231,970004,0.0-206.0-0.0,voc_e2,12124,"[{""event"":""fullscreenenter"",""trial"":1,""time"":4214}]",NA,NA,NA,NA,NA,1,#FA92F8,#1CD855,0,10,0,38,1,1728,39,0,395.9999999998836,10,1,experiment,NA,NA,0,0.1,0.9,1,0,197,5,NA
fcp-trial,232,973271,0.0-207.0-0.0,voc_e2,12124,"[{""event"":""fullscreenenter"",""trial"":1,""time"":4214}]",NA,NA,NA,NA,NA,3,#D8271C,#741CD8,10,0,0,38,1,1195,39,0,562,0,1,experiment,NA,NA,2,0.5,0.5,5,4,198,5,NA
fcp-trial,233,977669,0.0-208.0-0.0,voc_e2,12124,"[{""event"":""fullscreenenter"",""trial"":1,""time"":4214}]",NA,NA,NA,NA,NA,3,#3386FF,#D89F1C,10,0,1,38,1,1331,37,1,1556,10,1,experiment,NA,NA,1,0.7,0.3,2,3,199,5,NA
fcp-trial,234,981194,0.0-209.0-0.0,voc_e2,12124,"[{""event"":""fullscreenenter"",""trial"":1,""time"":4214}]",NA,NA,NA,NA,NA,2,#D8271C,#741CD8,10,10,0,38,1,1519,39,0,487,10,1,experiment,NA,NA,2,0.5,0.5,5,4,200,5,NA
fcp-trial,235,984492,0.0-210.0-0.0,voc_e2,12124,"[{""event"":""fullscreenenter"",""trial"":1,""time"":4214}]",NA,NA,NA,NA,NA,3,#FA92F8,#1CD855,0,10,0,38,1,1278,39,0,509,10,1,experiment,NA,NA,0,0.1,0.9,1,0,201,5,NA
fcp-trial,236,987626,0.0-211.0-0.0,voc_e2,12124,"[{""event"":""fullscreenenter"",""trial"":1,""time"":4214}]",NA,NA,NA,NA,NA,0,#3386FF,#D89F1C,0,0,1,38,1,1206,37,1,418,0,1,experiment,NA,NA,1,0.7,0.3,2,3,202,5,NA
fcp-trial,237,990734,0.0-212.0-0.0,voc_e2,12124,"[{""event"":""fullscreenenter"",""trial"":1,""time"":4214}]",NA,NA,NA,NA,NA,0,#FA92F8,#1CD855,0,10,0,38,1,1142.0000000001164,39,0,455.0000000001164,10,1,experiment,NA,NA,0,0.1,0.9,1,0,203,5,NA
fcp-trial,238,993413,0.0-213.0-0.0,voc_e2,12124,"[{""event"":""fullscreenenter"",""trial"":1,""time"":4214}]",NA,NA,NA,NA,NA,1,#D8271C,#741CD8,10,10,0,38,1,739.9999999998836,39,0,419.9999999998836,10,1,experiment,NA,NA,2,0.5,0.5,5,4,204,5,NA
fcp-trial,239,996880,0.0-214.0-0.0,voc_e2,12124,"[{""event"":""fullscreenenter"",""trial"":1,""time"":4214}]",NA,NA,NA,NA,NA,4,#D89F1C,#3386FF,10,10,0,38,1,1543,39,0,418,10,1,experiment,NA,NA,1,0.3,0.7,3,2,205,5,NA
fcp-trial,240,1000190,0.0-215.0-0.0,voc_e2,12124,"[{""event"":""fullscreenenter"",""trial"":1,""time"":4214}]",NA,NA,NA,NA,NA,4,#1CD855,#FA92F8,10,0,1,38,1,1380.9999999998836,37,1,419.0000000001164,10,1,experiment,NA,NA,0,0.9,0.1,0,1,206,5,NA
fcp-trial,241,1003007,0.0-216.0-0.0,voc_e2,12124,"[{""event"":""fullscreenenter"",""trial"":1,""time"":4214}]",NA,NA,NA,NA,NA,0,#D8271C,#741CD8,0,10,0,38,1,866,39,0,442,10,1,experiment,NA,NA,2,0.5,0.5,5,4,207,5,NA
fcp-trial,242,1006149,0.0-217.0-0.0,voc_e2,12124,"[{""event"":""fullscreenenter"",""trial"":1,""time"":4214}]",NA,NA,NA,NA,NA,6,#FA92F8,#1CD855,0,10,0,40,0,1083.0000000001164,37,1,551.9999999998836,0,0,experiment,NA,NA,0,0.1,0.9,1,0,208,5,NA
fcp-trial,243,1009167,0.0-218.0-0.0,voc_e2,12124,"[{""event"":""fullscreenenter"",""trial"":1,""time"":4214}]",NA,NA,NA,NA,NA,6,#3386FF,#D89F1C,10,0,1,40,0,923,39,0,585.0000000001164,0,0,experiment,NA,NA,1,0.7,0.3,2,3,209,5,NA
fcp-trial,244,1012061,0.0-219.0-0.0,voc_e2,12124,"[{""event"":""fullscreenenter"",""trial"":1,""time"":4214}]",NA,NA,NA,NA,NA,4,#741CD8,#D8271C,10,10,1,38,1,878.0000000001164,37,1,495.9999999998836,10,1,experiment,NA,NA,2,0.5,0.5,4,5,210,5,NA
audio-instructions,245,1017088,0.0-220.0,voc_e2,12124,"[{""event"":""fullscreenenter"",""trial"":1,""time"":4214}]",NA,583.9999999998836,static/audio/pause.wav,NA,0,NA,NA,NA,NA,NA,NA,NA,NA,NA,NA,NA,NA,NA,NA,NA,NA,NA,NA,NA,NA,NA,NA,NA,NA,NA
fcp-trial,246,1020141,0.0-221.0-0.0,voc_e2,12124,"[{""event"":""fullscreenenter"",""trial"":1,""time"":4214}]",NA,NA,NA,NA,NA,2,#D8271C,#741CD8,0,0,0,38,1,1105,39,0,433.0000000002328,0,1,experiment,NA,NA,2,0.5,0.5,5,4,211,5,NA
fcp-trial,247,1024561,0.0-222.0-0.0,voc_e2,12124,"[{""event"":""fullscreenenter"",""trial"":1,""time"":4214}]",NA,NA,NA,NA,NA,0,#D89F1C,#3386FF,0,10,0,38,1,1493.9999999998836,39,0,1415.9999999998836,10,1,experiment,NA,NA,1,0.3,0.7,3,2,212,5,NA
fcp-trial,248,1027694,0.0-223.0-0.0,voc_e2,12124,"[{""event"":""fullscreenenter"",""trial"":1,""time"":4214}]",NA,NA,NA,NA,NA,6,#FA92F8,#1CD855,10,10,0,40,0,1159,39,0,467,10,1,experiment,NA,NA,0,0.1,0.9,1,0,213,5,NA
fcp-trial,249,1030439,0.0-224.0-0.0,voc_e2,12124,"[{""event"":""fullscreenenter"",""trial"":1,""time"":4214}]",NA,NA,NA,NA,NA,6,#D89F1C,#3386FF,0,10,0,40,0,694,37,1,542,0,0,experiment,NA,NA,1,0.3,0.7,3,2,214,5,NA
fcp-trial,250,1034265,0.0-225.0-0.0,voc_e2,12124,"[{""event"":""fullscreenenter"",""trial"":1,""time"":4214}]",NA,NA,NA,NA,NA,2,#1CD855,#FA92F8,10,0,1,38,1,870,37,1,1447.0000000002328,10,1,experiment,NA,NA,0,0.9,0.1,0,1,215,5,NA
fcp-trial,251,1037376,0.0-226.0-0.0,voc_e2,12124,"[{""event"":""fullscreenenter"",""trial"":1,""time"":4214}]",NA,NA,NA,NA,NA,0,#D8271C,#741CD8,0,10,0,38,1,1131,39,0,469,10,1,experiment,NA,NA,2,0.5,0.5,5,4,216,5,NA
fcp-trial,252,1040757,0.0-227.0-0.0,voc_e2,12124,"[{""event"":""fullscreenenter"",""trial"":1,""time"":4214}]",NA,NA,NA,NA,NA,4,#D89F1C,#3386FF,10,0,0,38,1,1390.0000000002328,39,0,482,0,1,experiment,NA,NA,1,0.3,0.7,3,2,217,5,NA
fcp-trial,253,1043713,0.0-228.0-0.0,voc_e2,12124,"[{""event"":""fullscreenenter"",""trial"":1,""time"":4214}]",NA,NA,NA,NA,NA,4,#741CD8,#D8271C,10,0,1,38,1,902,37,1,545,10,1,experiment,NA,NA,2,0.5,0.5,4,5,218,5,NA
fcp-trial,254,1047023,0.0-229.0-0.0,voc_e2,12124,"[{""event"":""fullscreenenter"",""trial"":1,""time"":4214}]",NA,NA,NA,NA,NA,3,#D89F1C,#3386FF,10,10,0,38,1,1059,39,0,735.0000000002328,10,1,experiment,NA,NA,1,0.3,0.7,3,2,219,5,NA
fcp-trial,255,1050660,0.0-230.0-0.0,voc_e2,12124,"[{""event"":""fullscreenenter"",""trial"":1,""time"":4214}]",NA,NA,NA,NA,NA,1,#1CD855,#FA92F8,10,0,1,38,1,1156,37,1,972.9999999997672,10,1,experiment,NA,NA,0,0.9,0.1,0,1,220,5,NA
fcp-trial,256,1054458,0.0-231.0-0.0,voc_e2,12124,"[{""event"":""fullscreenenter"",""trial"":1,""time"":4214}]",NA,NA,NA,NA,NA,3,#FA92F8,#1CD855,0,10,0,38,1,1225,39,0,1066,10,1,experiment,NA,NA,0,0.1,0.9,1,0,221,5,NA
fcp-trial,257,1057374,0.0-232.0-0.0,voc_e2,12124,"[{""event"":""fullscreenenter"",""trial"":1,""time"":4214}]",NA,NA,NA,NA,NA,3,#D8271C,#741CD8,0,0,0,38,1,896,39,0,511,0,1,experiment,NA,NA,2,0.5,0.5,5,4,222,5,NA
fcp-trial,258,1061473,0.0-233.0-0.0,voc_e2,12124,"[{""event"":""fullscreenenter"",""trial"":1,""time"":4214}]",NA,NA,NA,NA,NA,2,#3386FF,#D89F1C,0,10,1,38,1,1345.0000000002328,37,1,1246,0,1,experiment,NA,NA,1,0.7,0.3,2,3,223,5,NA
fcp-trial,259,1064224,0.0-234.0-0.0,voc_e2,12124,"[{""event"":""fullscreenenter"",""trial"":1,""time"":4214}]",NA,NA,NA,NA,NA,0,#FA92F8,#1CD855,0,10,0,38,1,777,39,0,465,10,1,experiment,NA,NA,0,0.1,0.9,1,0,224,5,NA
fcp-trial,260,1067490,0.0-235.0-0.0,voc_e2,12124,"[{""event"":""fullscreenenter"",""trial"":1,""time"":4214}]",NA,NA,NA,NA,NA,6,#741CD8,#D8271C,10,0,1,40,0,1182,39,0,576,0,0,experiment,NA,NA,2,0.5,0.5,4,5,225,5,NA
fcp-trial,261,1070639,0.0-236.0-0.0,voc_e2,12124,"[{""event"":""fullscreenenter"",""trial"":1,""time"":4214}]",NA,NA,NA,NA,NA,5,#3386FF,#D89F1C,0,0,1,40,0,1058,39,0,582,0,0,experiment,NA,NA,1,0.7,0.3,2,3,226,6,NA
fcp-trial,262,1075081,0.0-237.0-0.0,voc_e2,12124,"[{""event"":""fullscreenenter"",""trial"":1,""time"":4214}]",NA,NA,NA,NA,NA,4,#FA92F8,#1CD855,0,10,0,38,1,2614,39,0,318,10,1,experiment,NA,NA,0,0.1,0.9,1,0,227,6,NA
fcp-trial,263,1078091,0.0-238.0-0.0,voc_e2,12124,"[{""event"":""fullscreenenter"",""trial"":1,""time"":4214}]",NA,NA,NA,NA,NA,5,#741CD8,#D8271C,0,0,1,40,0,1045,39,0,448.0000000002328,0,0,experiment,NA,NA,2,0.5,0.5,4,5,228,6,NA
fcp-trial,264,1081311,0.0-239.0-0.0,voc_e2,12124,"[{""event"":""fullscreenenter"",""trial"":1,""time"":4214}]",NA,NA,NA,NA,NA,5,#1CD855,#FA92F8,10,0,1,40,0,1164,37,1,547,10,1,experiment,NA,NA,0,0.9,0.1,0,1,229,6,NA
fcp-trial,265,1084130,0.0-240.0-0.0,voc_e2,12124,"[{""event"":""fullscreenenter"",""trial"":1,""time"":4214}]",NA,NA,NA,NA,NA,1,#D8271C,#741CD8,0,0,0,40,0,687,39,0,623.0000000002328,0,1,experiment,NA,NA,2,0.5,0.5,5,4,230,6,NA
fcp-trial,266,1088316,0.0-241.0-0.0,voc_e2,12124,"[{""event"":""fullscreenenter"",""trial"":1,""time"":4214}]",NA,NA,NA,NA,NA,1,#3386FF,#D89F1C,10,0,1,38,1,1618,37,1,1059,10,1,experiment,NA,NA,1,0.7,0.3,2,3,231,6,NA
fcp-trial,267,1091279,0.0-242.0-0.0,voc_e2,12124,"[{""event"":""fullscreenenter"",""trial"":1,""time"":4214}]",NA,NA,NA,NA,NA,5,#FA92F8,#1CD855,0,10,0,40,0,958,39,0,485,10,1,experiment,NA,NA,0,0.1,0.9,1,0,232,6,NA
fcp-trial,268,1094645,0.0-243.0-0.0,voc_e2,12124,"[{""event"":""fullscreenenter"",""trial"":1,""time"":4214}]",NA,NA,NA,NA,NA,0,#3386FF,#D89F1C,0,0,1,38,1,1336,37,1,511,0,1,experiment,NA,NA,1,0.7,0.3,2,3,233,6,NA
fcp-trial,269,1097624,0.0-244.0-0.0,voc_e2,12124,"[{""event"":""fullscreenenter"",""trial"":1,""time"":4214}]",NA,NA,NA,NA,NA,6,#FA92F8,#1CD855,0,10,0,40,0,918,39,0,544,10,1,experiment,NA,NA,0,0.1,0.9,1,0,234,6,NA
fcp-trial,270,1101408,0.0-245.0-0.0,voc_e2,12124,"[{""event"":""fullscreenenter"",""trial"":1,""time"":4214}]",NA,NA,NA,NA,NA,0,#1CD855,#FA92F8,10,0,1,38,1,1117,37,1,1155,10,1,experiment,NA,NA,0,0.9,0.1,0,1,235,6,NA
fcp-trial,271,1104407,0.0-246.0-0.0,voc_e2,12124,"[{""event"":""fullscreenenter"",""trial"":1,""time"":4214}]",NA,NA,NA,NA,NA,6,#D8271C,#741CD8,0,10,0,40,0,906,39,0,582.9999999997672,10,1,experiment,NA,NA,2,0.5,0.5,5,4,236,6,NA
fcp-trial,272,1107474,0.0-247.0-0.0,voc_e2,12124,"[{""event"":""fullscreenenter"",""trial"":1,""time"":4214}]",NA,NA,NA,NA,NA,4,#741CD8,#D8271C,0,0,1,38,1,881,37,1,675,0,1,experiment,NA,NA,2,0.5,0.5,4,5,237,6,NA
fcp-trial,273,1112015,0.0-248.0-0.0,voc_e2,12124,"[{""event"":""fullscreenenter"",""trial"":1,""time"":4214}]",NA,NA,NA,NA,NA,4,#D89F1C,#3386FF,10,10,0,38,1,858,37,1,2175.000000000233,10,0,experiment,NA,NA,1,0.3,0.7,3,2,238,6,NA
fcp-trial,274,1115076,0.0-249.0-0.0,voc_e2,12124,"[{""event"":""fullscreenenter"",""trial"":1,""time"":4214}]",NA,NA,NA,NA,NA,3,#FA92F8,#1CD855,0,0,0,38,1,1026,39,0,514,0,1,experiment,NA,NA,0,0.1,0.9,1,0,239,6,NA
fcp-trial,275,1118676,0.0-250.0-0.0,voc_e2,12124,"[{""event"":""fullscreenenter"",""trial"":1,""time"":4214}]",NA,NA,NA,NA,NA,3,#3386FF,#D89F1C,10,0,1,38,1,1611,37,1,476.9999999997672,10,1,experiment,NA,NA,1,0.7,0.3,2,3,240,6,NA
fcp-trial,276,1121405,0.0-251.0-0.0,voc_e2,12124,"[{""event"":""fullscreenenter"",""trial"":1,""time"":4214}]",NA,NA,NA,NA,NA,1,#741CD8,#D8271C,0,10,1,38,1,722,37,1,497,0,1,experiment,NA,NA,2,0.5,0.5,4,5,241,6,NA
fcp-trial,277,1124312,0.0-252.0-0.0,voc_e2,12124,"[{""event"":""fullscreenenter"",""trial"":1,""time"":4214}]",NA,NA,NA,NA,NA,2,#3386FF,#D89F1C,0,10,1,38,1,935,37,1,460,0,1,experiment,NA,NA,1,0.7,0.3,2,3,242,6,NA
fcp-trial,278,1127258,0.0-253.0-0.0,voc_e2,12124,"[{""event"":""fullscreenenter"",""trial"":1,""time"":4214}]",NA,NA,NA,NA,NA,5,#3386FF,#D89F1C,10,0,1,40,0,945.0000000002328,39,0,482,0,0,experiment,NA,NA,1,0.7,0.3,2,3,243,6,NA
fcp-trial,279,1130388,0.0-254.0-0.0,voc_e2,12124,"[{""event"":""fullscreenenter"",""trial"":1,""time"":4214}]",NA,NA,NA,NA,NA,1,#FA92F8,#1CD855,0,10,0,38,1,1076,39,0,544,10,1,experiment,NA,NA,0,0.1,0.9,1,0,244,6,NA
fcp-trial,280,1133487,0.0-255.0-0.0,voc_e2,12124,"[{""event"":""fullscreenenter"",""trial"":1,""time"":4214}]",NA,NA,NA,NA,NA,4,#1CD855,#FA92F8,10,0,1,38,1,1090,37,1,501,10,1,experiment,NA,NA,0,0.9,0.1,0,1,245,6,NA
fcp-trial,281,1136289,0.0-256.0-0.0,voc_e2,12124,"[{""event"":""fullscreenenter"",""trial"":1,""time"":4214}]",NA,NA,NA,NA,NA,2,#741CD8,#D8271C,0,10,1,38,1,794,37,1,499,0,1,experiment,NA,NA,2,0.5,0.5,4,5,246,6,NA
fcp-trial,282,1139255,0.0-257.0-0.0,voc_e2,12124,"[{""event"":""fullscreenenter"",""trial"":1,""time"":4214}]",NA,NA,NA,NA,NA,6,#3386FF,#D89F1C,10,0,1,40,0,982,39,0,476.0000000002328,0,0,experiment,NA,NA,1,0.7,0.3,2,3,247,6,NA
fcp-trial,283,1142120,0.0-258.0-0.0,voc_e2,12124,"[{""event"":""fullscreenenter"",""trial"":1,""time"":4214}]",NA,NA,NA,NA,NA,2,#1CD855,#FA92F8,0,0,1,38,1,914,37,1,445,0,1,experiment,NA,NA,0,0.9,0.1,0,1,248,6,NA
fcp-trial,284,1145555,0.0-259.0-0.0,voc_e2,12124,"[{""event"":""fullscreenenter"",""trial"":1,""time"":4214}]",NA,NA,NA,NA,NA,3,#D8271C,#741CD8,0,0,0,38,1,1450,39,0,476,0,1,experiment,NA,NA,2,0.5,0.5,5,4,249,6,NA
fcp-trial,285,1148758,0.0-260.0-0.0,voc_e2,12124,"[{""event"":""fullscreenenter"",""trial"":1,""time"":4214}]",NA,NA,NA,NA,NA,5,#741CD8,#D8271C,10,0,1,40,0,1203.0000000002328,37,1,493,10,1,experiment,NA,NA,2,0.5,0.5,4,5,250,6,NA
fcp-trial,286,1152421,0.0-261.0-0.0,voc_e2,12124,"[{""event"":""fullscreenenter"",""trial"":1,""time"":4214}]",NA,NA,NA,NA,NA,1,#D89F1C,#3386FF,0,10,0,38,1,1241.9999999997672,39,0,911.0000000002328,10,1,experiment,NA,NA,1,0.3,0.7,3,2,251,6,NA
fcp-trial,287,1155810,0.0-262.0-0.0,voc_e2,12124,"[{""event"":""fullscreenenter"",""trial"":1,""time"":4214}]",NA,NA,NA,NA,NA,0,#741CD8,#D8271C,10,0,1,38,1,1230.9999999997672,37,1,649,10,1,experiment,NA,NA,2,0.5,0.5,4,5,252,6,NA
fcp-trial,288,1158784,0.0-263.0-0.0,voc_e2,12124,"[{""event"":""fullscreenenter"",""trial"":1,""time"":4214}]",NA,NA,NA,NA,NA,2,#741CD8,#D8271C,10,10,1,38,1,837,37,1,627,10,1,experiment,NA,NA,2,0.5,0.5,4,5,253,6,NA
fcp-trial,289,1162630,0.0-264.0-0.0,voc_e2,12124,"[{""event"":""fullscreenenter"",""trial"":1,""time"":4214}]",NA,NA,NA,NA,NA,1,#1CD855,#FA92F8,10,0,1,38,1,1490,37,1,836,10,1,experiment,NA,NA,0,0.9,0.1,0,1,254,6,NA
fcp-trial,290,1165694,0.0-265.0-0.0,voc_e2,12124,"[{""event"":""fullscreenenter"",""trial"":1,""time"":4214}]",NA,NA,NA,NA,NA,5,#FA92F8,#1CD855,0,10,0,40,0,1065,39,0,490,10,1,experiment,NA,NA,0,0.1,0.9,1,0,255,6,NA
fcp-trial,291,1169690,0.0-266.0-0.0,voc_e2,12124,"[{""event"":""fullscreenenter"",""trial"":1,""time"":4214}]",NA,NA,NA,NA,NA,1,#D89F1C,#3386FF,0,10,0,38,1,1360,39,0,1129,10,1,experiment,NA,NA,1,0.3,0.7,3,2,256,6,NA
fcp-trial,292,1172540,0.0-267.0-0.0,voc_e2,12124,"[{""event"":""fullscreenenter"",""trial"":1,""time"":4214}]",NA,NA,NA,NA,NA,1,#741CD8,#D8271C,10,0,1,38,1,752,37,1,589,10,1,experiment,NA,NA,2,0.5,0.5,4,5,257,6,NA
fcp-trial,293,1176427,0.0-268.0-0.0,voc_e2,12124,"[{""event"":""fullscreenenter"",""trial"":1,""time"":4214}]",NA,NA,NA,NA,NA,2,#3386FF,#D89F1C,10,0,1,38,1,848,37,1,1529,10,1,experiment,NA,NA,1,0.7,0.3,2,3,258,6,NA
fcp-trial,294,1179842,0.0-269.0-0.0,voc_e2,12124,"[{""event"":""fullscreenenter"",""trial"":1,""time"":4214}]",NA,NA,NA,NA,NA,3,#D89F1C,#3386FF,0,10,0,38,1,983,39,0,921.9999999997672,10,1,experiment,NA,NA,1,0.3,0.7,3,2,259,6,NA
fcp-trial,295,1182879,0.0-270.0-0.0,voc_e2,12124,"[{""event"":""fullscreenenter"",""trial"":1,""time"":4214}]",NA,NA,NA,NA,NA,0,#1CD855,#FA92F8,10,0,1,38,1,923,37,1,602,10,1,experiment,NA,NA,0,0.9,0.1,0,1,260,6,NA
fcp-trial,296,1185960,0.0-271.0-0.0,voc_e2,12124,"[{""event"":""fullscreenenter"",""trial"":1,""time"":4214}]",NA,NA,NA,NA,NA,6,#D8271C,#741CD8,10,0,0,40,0,1015,37,1,546,10,0,experiment,NA,NA,2,0.5,0.5,5,4,261,6,NA
fcp-trial,297,1189388,0.0-272.0-0.0,voc_e2,12124,"[{""event"":""fullscreenenter"",""trial"":1,""time"":4214}]",NA,NA,NA,NA,NA,0,#D89F1C,#3386FF,10,0,0,38,1,972,39,0,947,0,1,experiment,NA,NA,1,0.3,0.7,3,2,262,6,NA
fcp-trial,298,1192241,0.0-273.0-0.0,voc_e2,12124,"[{""event"":""fullscreenenter"",""trial"":1,""time"":4214}]",NA,NA,NA,NA,NA,4,#FA92F8,#1CD855,0,10,0,38,1,863,39,0,480,10,1,experiment,NA,NA,0,0.1,0.9,1,0,263,6,NA
fcp-trial,299,1195289,0.0-274.0-0.0,voc_e2,12124,"[{""event"":""fullscreenenter"",""trial"":1,""time"":4214}]",NA,NA,NA,NA,NA,3,#741CD8,#D8271C,10,10,1,38,1,858,37,1,680,10,1,experiment,NA,NA,2,0.5,0.5,4,5,264,6,NA
fcp-trial,300,1198341,0.0-275.0-0.0,voc_e2,12124,"[{""event"":""fullscreenenter"",""trial"":1,""time"":4214}]",NA,NA,NA,NA,NA,4,#D8271C,#741CD8,10,10,0,38,1,964,39,0,578,10,1,experiment,NA,NA,2,0.5,0.5,5,4,265,6,NA
fcp-trial,301,1202498,0.0-276.0-0.0,voc_e2,12124,"[{""event"":""fullscreenenter"",""trial"":1,""time"":4214}]",NA,NA,NA,NA,NA,4,#3386FF,#D89F1C,0,0,1,38,1,1523,37,1,1124,0,1,experiment,NA,NA,1,0.7,0.3,2,3,266,6,NA
fcp-trial,302,1205887,0.0-277.0-0.0,voc_e2,12124,"[{""event"":""fullscreenenter"",""trial"":1,""time"":4214}]",NA,NA,NA,NA,NA,2,#FA92F8,#1CD855,0,10,0,38,1,977.9999999997672,39,0,903,10,1,experiment,NA,NA,0,0.1,0.9,1,0,267,6,NA
fcp-trial,303,1209028,0.0-278.0-0.0,voc_e2,12124,"[{""event"":""fullscreenenter"",""trial"":1,""time"":4214}]",NA,NA,NA,NA,NA,5,#741CD8,#D8271C,0,0,1,40,0,1028,39,0,604,0,0,experiment,NA,NA,2,0.5,0.5,4,5,268,6,NA
fcp-trial,304,1211958,0.0-279.0-0.0,voc_e2,12124,"[{""event"":""fullscreenenter"",""trial"":1,""time"":4214}]",NA,NA,NA,NA,NA,6,#FA92F8,#1CD855,0,10,0,40,0,878,37,1,544,0,0,experiment,NA,NA,0,0.1,0.9,1,0,269,6,NA
fcp-trial,305,1214946,0.0-280.0-0.0,voc_e2,12124,"[{""event"":""fullscreenenter"",""trial"":1,""time"":4214}]",NA,NA,NA,NA,NA,6,#3386FF,#D89F1C,10,0,1,40,0,866,37,1,613,10,1,experiment,NA,NA,1,0.7,0.3,2,3,270,6,NA
fcp-trial,306,1218005,0.0-281.0-0.0,voc_e2,12124,"[{""event"":""fullscreenenter"",""trial"":1,""time"":4214}]",NA,NA,NA,NA,NA,5,#D89F1C,#3386FF,10,10,0,40,0,1075,39,0,466,10,1,experiment,NA,NA,1,0.3,0.7,3,2,271,7,NA
fcp-trial,307,1222253,0.0-282.0-0.0,voc_e2,12124,"[{""event"":""fullscreenenter"",""trial"":1,""time"":4214}]",NA,NA,NA,NA,NA,3,#FA92F8,#1CD855,0,10,0,38,1,948,37,1,1791,0,0,experiment,NA,NA,0,0.1,0.9,1,0,272,7,NA
fcp-trial,308,1225178,0.0-283.0-0.0,voc_e2,12124,"[{""event"":""fullscreenenter"",""trial"":1,""time"":4214}]",NA,NA,NA,NA,NA,0,#D8271C,#741CD8,10,10,0,38,1,890,39,0,525,10,1,experiment,NA,NA,2,0.5,0.5,5,4,273,7,NA
fcp-trial,309,1228467,0.0-284.0-0.0,voc_e2,12124,"[{""event"":""fullscreenenter"",""trial"":1,""time"":4214}]",NA,NA,NA,NA,NA,5,#FA92F8,#1CD855,0,10,0,40,0,1201,39,0,571,10,1,experiment,NA,NA,0,0.1,0.9,1,0,274,7,NA
fcp-trial,310,1231810,0.0-285.0-0.0,voc_e2,12124,"[{""event"":""fullscreenenter"",""trial"":1,""time"":4214}]",NA,NA,NA,NA,NA,4,#D8271C,#741CD8,10,10,0,38,1,954,39,0,882,10,1,experiment,NA,NA,2,0.5,0.5,5,4,275,7,NA
fcp-trial,311,1235661,0.0-286.0-0.0,voc_e2,12124,"[{""event"":""fullscreenenter"",""trial"":1,""time"":4214}]",NA,NA,NA,NA,NA,0,#FA92F8,#1CD855,10,10,0,38,1,1685,39,0,651,10,1,experiment,NA,NA,0,0.1,0.9,1,0,276,7,NA
fcp-trial,312,1238710,0.0-287.0-0.0,voc_e2,12124,"[{""event"":""fullscreenenter"",""trial"":1,""time"":4214}]",NA,NA,NA,NA,NA,3,#3386FF,#D89F1C,0,10,1,38,1,1050,37,1,493,0,1,experiment,NA,NA,1,0.7,0.3,2,3,277,7,NA
fcp-trial,313,1244008,0.0-288.0-0.0,voc_e2,12124,"[{""event"":""fullscreenenter"",""trial"":1,""time"":4214}]",NA,NA,NA,NA,NA,4,#1CD855,#FA92F8,10,10,1,38,1,1900,37,1,1892.9999999997672,10,1,experiment,NA,NA,0,0.9,0.1,0,1,278,7,NA
fcp-trial,314,1247003,0.0-289.0-0.0,voc_e2,12124,"[{""event"":""fullscreenenter"",""trial"":1,""time"":4214}]",NA,NA,NA,NA,NA,1,#D89F1C,#3386FF,0,0,0,38,1,911,39,0,575,0,1,experiment,NA,NA,1,0.3,0.7,3,2,279,7,NA
fcp-trial,315,1250236,0.0-290.0-0.0,voc_e2,12124,"[{""event"":""fullscreenenter"",""trial"":1,""time"":4214}]",NA,NA,NA,NA,NA,6,#D8271C,#741CD8,10,10,0,40,0,1267,39,0,459,10,1,experiment,NA,NA,2,0.5,0.5,5,4,280,7,NA
fcp-trial,316,1254163,0.0-291.0-0.0,voc_e2,12124,"[{""event"":""fullscreenenter"",""trial"":1,""time"":4214}]",NA,NA,NA,NA,NA,4,#3386FF,#D89F1C,10,0,1,38,1,1401,37,1,1019,10,1,experiment,NA,NA,1,0.7,0.3,2,3,281,7,NA
fcp-trial,317,1257426,0.0-292.0-0.0,voc_e2,12124,"[{""event"":""fullscreenenter"",""trial"":1,""time"":4214}]",NA,NA,NA,NA,NA,1,#1CD855,#FA92F8,10,0,1,38,1,1255,37,1,489,10,1,experiment,NA,NA,0,0.9,0.1,0,1,282,7,NA
fcp-trial,318,1260926,0.0-293.0-0.0,voc_e2,12124,"[{""event"":""fullscreenenter"",""trial"":1,""time"":4214}]",NA,NA,NA,NA,NA,2,#FA92F8,#1CD855,0,0,0,38,1,1356,39,0,626,0,1,experiment,NA,NA,0,0.1,0.9,1,0,283,7,NA
fcp-trial,319,1264288,0.0-294.0-0.0,voc_e2,12124,"[{""event"":""fullscreenenter"",""trial"":1,""time"":4214}]",NA,NA,NA,NA,NA,0,#D8271C,#741CD8,0,0,0,38,1,1331,39,0,512,0,1,experiment,NA,NA,2,0.5,0.5,5,4,284,7,NA
fcp-trial,320,1267000,0.0-295.0-0.0,voc_e2,12124,"[{""event"":""fullscreenenter"",""trial"":1,""time"":4214}]",NA,NA,NA,NA,NA,2,#3386FF,#D89F1C,10,10,1,38,1,728,37,1,476,10,1,experiment,NA,NA,1,0.7,0.3,2,3,285,7,NA
fcp-trial,321,1269567,0.0-296.0-0.0,voc_e2,12124,"[{""event"":""fullscreenenter"",""trial"":1,""time"":4214}]",NA,NA,NA,NA,NA,3,#D8271C,#741CD8,0,10,0,38,1,560,39,0,501,10,1,experiment,NA,NA,2,0.5,0.5,5,4,286,7,NA
fcp-trial,322,1272566,0.0-297.0-0.0,voc_e2,12124,"[{""event"":""fullscreenenter"",""trial"":1,""time"":4214}]",NA,NA,NA,NA,NA,0,#3386FF,#D89F1C,10,0,1,38,1,1065,37,1,427,10,1,experiment,NA,NA,1,0.7,0.3,2,3,287,7,NA
fcp-trial,323,1276435,0.0-298.0-0.0,voc_e2,12124,"[{""event"":""fullscreenenter"",""trial"":1,""time"":4214}]",NA,NA,NA,NA,NA,3,#FA92F8,#1CD855,0,0,0,38,1,1912,39,0,450,0,1,experiment,NA,NA,0,0.1,0.9,1,0,288,7,NA
fcp-trial,324,1279527,0.0-299.0-0.0,voc_e2,12124,"[{""event"":""fullscreenenter"",""trial"":1,""time"":4214}]",NA,NA,NA,NA,NA,5,#D89F1C,#3386FF,0,10,0,40,0,830.0000000002328,39,0,754,10,1,experiment,NA,NA,1,0.3,0.7,3,2,289,7,NA
fcp-trial,325,1282501,0.0-300.0-0.0,voc_e2,12124,"[{""event"":""fullscreenenter"",""trial"":1,""time"":4214}]",NA,NA,NA,NA,NA,5,#741CD8,#D8271C,0,0,1,40,0,835,37,1,620,0,1,experiment,NA,NA,2,0.5,0.5,4,5,290,7,NA
fcp-trial,326,1285365,0.0-301.0-0.0,voc_e2,12124,"[{""event"":""fullscreenenter"",""trial"":1,""time"":4214}]",NA,NA,NA,NA,NA,6,#FA92F8,#1CD855,0,0,0,40,0,919,39,0,438,0,1,experiment,NA,NA,0,0.1,0.9,1,0,291,7,NA
fcp-trial,327,1288191,0.0-302.0-0.0,voc_e2,12124,"[{""event"":""fullscreenenter"",""trial"":1,""time"":4214}]",NA,NA,NA,NA,NA,6,#3386FF,#D89F1C,0,0,1,40,0,850,39,0,468,0,0,experiment,NA,NA,1,0.7,0.3,2,3,292,7,NA
fcp-trial,328,1291009,0.0-303.0-0.0,voc_e2,12124,"[{""event"":""fullscreenenter"",""trial"":1,""time"":4214}]",NA,NA,NA,NA,NA,1,#D8271C,#741CD8,0,0,0,38,1,820,39,0,479,0,1,experiment,NA,NA,2,0.5,0.5,5,4,293,7,NA
fcp-trial,329,1293930,0.0-304.0-0.0,voc_e2,12124,"[{""event"":""fullscreenenter"",""trial"":1,""time"":4214}]",NA,NA,NA,NA,NA,2,#741CD8,#D8271C,0,0,1,38,1,813,37,1,595,0,1,experiment,NA,NA,2,0.5,0.5,4,5,294,7,NA
fcp-trial,330,1297050,0.0-305.0-0.0,voc_e2,12124,"[{""event"":""fullscreenenter"",""trial"":1,""time"":4214}]",NA,NA,NA,NA,NA,2,#D89F1C,#3386FF,10,10,0,38,1,804,39,0,806.9999999997672,10,1,experiment,NA,NA,1,0.3,0.7,3,2,295,7,NA
fcp-trial,331,1300117,0.0-306.0-0.0,voc_e2,12124,"[{""event"":""fullscreenenter"",""trial"":1,""time"":4214}]",NA,NA,NA,NA,NA,0,#3386FF,#D89F1C,10,0,1,38,1,943.9999999997672,37,1,613.0000000002328,10,1,experiment,NA,NA,1,0.7,0.3,2,3,296,7,NA
fcp-trial,332,1303663,0.0-307.0-0.0,voc_e2,12124,"[{""event"":""fullscreenenter"",""trial"":1,""time"":4214}]",NA,NA,NA,NA,NA,4,#D8271C,#741CD8,0,10,0,38,1,781,39,0,1254,10,1,experiment,NA,NA,2,0.5,0.5,5,4,297,7,NA
fcp-trial,333,1308017,0.0-308.0-0.0,voc_e2,12124,"[{""event"":""fullscreenenter"",""trial"":1,""time"":4214}]",NA,NA,NA,NA,NA,2,#FA92F8,#1CD855,0,10,0,38,1,1260,39,0,1584,10,1,experiment,NA,NA,0,0.1,0.9,1,0,298,7,NA
fcp-trial,334,1311148,0.0-309.0-0.0,voc_e2,12124,"[{""event"":""fullscreenenter"",""trial"":1,""time"":4214}]",NA,NA,NA,NA,NA,6,#D8271C,#741CD8,0,10,0,40,0,1021,37,1,597.9999999997672,0,0,experiment,NA,NA,2,0.5,0.5,5,4,299,7,NA
fcp-trial,335,1314300,0.0-310.0-0.0,voc_e2,12124,"[{""event"":""fullscreenenter"",""trial"":1,""time"":4214}]",NA,NA,NA,NA,NA,5,#FA92F8,#1CD855,0,10,0,40,0,1109,39,0,533,10,1,experiment,NA,NA,0,0.1,0.9,1,0,300,7,NA
fcp-trial,336,1317430,0.0-311.0-0.0,voc_e2,12124,"[{""event"":""fullscreenenter"",""trial"":1,""time"":4214}]",NA,NA,NA,NA,NA,5,#3386FF,#D89F1C,10,0,1,40,0,1129,39,0,494,0,0,experiment,NA,NA,1,0.7,0.3,2,3,301,7,NA
fcp-trial,337,1320264,0.0-312.0-0.0,voc_e2,12124,"[{""event"":""fullscreenenter"",""trial"":1,""time"":4214}]",NA,NA,NA,NA,NA,6,#3386FF,#D89F1C,0,10,1,40,0,816,39,0,511,10,0,experiment,NA,NA,1,0.7,0.3,2,3,302,7,NA
fcp-trial,338,1323307,0.0-313.0-0.0,voc_e2,12124,"[{""event"":""fullscreenenter"",""trial"":1,""time"":4214}]",NA,NA,NA,NA,NA,0,#D8271C,#741CD8,0,0,0,38,1,921,39,0,612.9999999997672,0,1,experiment,NA,NA,2,0.5,0.5,5,4,303,7,NA
fcp-trial,339,1326750,0.0-314.0-0.0,voc_e2,12124,"[{""event"":""fullscreenenter"",""trial"":1,""time"":4214}]",NA,NA,NA,NA,NA,3,#3386FF,#D89F1C,0,0,1,38,1,1517,37,1,416,0,1,experiment,NA,NA,1,0.7,0.3,2,3,304,7,NA
fcp-trial,340,1330125,0.0-315.0-0.0,voc_e2,12124,"[{""event"":""fullscreenenter"",""trial"":1,""time"":4214}]",NA,NA,NA,NA,NA,4,#FA92F8,#1CD855,0,10,0,38,1,1172,39,0,692,10,1,experiment,NA,NA,0,0.1,0.9,1,0,305,7,NA
fcp-trial,341,1332844,0.0-316.0-0.0,voc_e2,12124,"[{""event"":""fullscreenenter"",""trial"":1,""time"":4214}]",NA,NA,NA,NA,NA,2,#D8271C,#741CD8,0,10,0,38,1,742,39,0,458.9999999997672,10,1,experiment,NA,NA,2,0.5,0.5,5,4,306,7,NA
fcp-trial,342,1336038,0.0-317.0-0.0,voc_e2,12124,"[{""event"":""fullscreenenter"",""trial"":1,""time"":4214}]",NA,NA,NA,NA,NA,5,#741CD8,#D8271C,0,10,1,40,0,1146,39,0,538,10,0,experiment,NA,NA,2,0.5,0.5,4,5,307,7,NA
fcp-trial,343,1338935,0.0-318.0-0.0,voc_e2,12124,"[{""event"":""fullscreenenter"",""trial"":1,""time"":4214}]",NA,NA,NA,NA,NA,1,#FA92F8,#1CD855,0,10,0,38,1,918,39,0,470,10,1,experiment,NA,NA,0,0.1,0.9,1,0,308,7,NA
fcp-trial,344,1341623,0.0-319.0-0.0,voc_e2,12124,"[{""event"":""fullscreenenter"",""trial"":1,""time"":4214}]",NA,NA,NA,NA,NA,1,#D89F1C,#3386FF,0,10,0,38,1,719,39,0,460,10,1,experiment,NA,NA,1,0.3,0.7,3,2,309,7,NA
fcp-trial,345,1344531,0.0-320.0-0.0,voc_e2,12124,"[{""event"":""fullscreenenter"",""trial"":1,""time"":4214}]",NA,NA,NA,NA,NA,1,#741CD8,#D8271C,10,0,1,38,1,649,37,1,741,10,1,experiment,NA,NA,2,0.5,0.5,4,5,310,7,NA
fcp-trial,346,1347559,0.0-321.0-0.0,voc_e2,12124,"[{""event"":""fullscreenenter"",""trial"":1,""time"":4214}]",NA,NA,NA,NA,NA,3,#741CD8,#D8271C,10,10,1,38,1,849,37,1,670,10,1,experiment,NA,NA,2,0.5,0.5,4,5,311,7,NA
fcp-trial,347,1350196,0.0-322.0-0.0,voc_e2,12124,"[{""event"":""fullscreenenter"",""trial"":1,""time"":4214}]",NA,NA,NA,NA,NA,4,#D89F1C,#3386FF,0,0,0,38,1,592,39,0,527,0,1,experiment,NA,NA,1,0.3,0.7,3,2,312,7,NA
fcp-trial,348,1353438,0.0-323.0-0.0,voc_e2,12124,"[{""event"":""fullscreenenter"",""trial"":1,""time"":4214}]",NA,NA,NA,NA,NA,0,#1CD855,#FA92F8,10,0,1,38,1,1356,37,1,375,10,1,experiment,NA,NA,0,0.9,0.1,0,1,313,7,NA
fcp-trial,349,1356330,0.0-324.0-0.0,voc_e2,12124,"[{""event"":""fullscreenenter"",""trial"":1,""time"":4214}]",NA,NA,NA,NA,NA,6,#1CD855,#FA92F8,10,0,1,40,0,885,39,0,498,0,0,experiment,NA,NA,0,0.9,0.1,0,1,314,7,NA
fcp-trial,350,1359022,0.0-325.0-0.0,voc_e2,12124,"[{""event"":""fullscreenenter"",""trial"":1,""time"":4214}]",NA,NA,NA,NA,NA,3,#1CD855,#FA92F8,10,0,1,38,1,763.9999999997672,37,1,420,10,1,experiment,NA,NA,0,0.9,0.1,0,1,315,7,NA
audio-instructions,351,1365647,0.0-326.0,voc_e2,12124,"[{""event"":""fullscreenenter"",""trial"":1,""time"":4214}]",NA,989,static/audio/finished.wav,NA,0,NA,NA,NA,NA,NA,NA,NA,NA,NA,NA,NA,NA,NA,NA,NA,NA,NA,NA,NA,NA,NA,NA,NA,NA,NA
audio-instructions,352,1376979,0.0-327.0-0.0,voc_e2,12124,"[{""event"":""fullscreenenter"",""trial"":1,""time"":4214}]",NA,495.0000000002328,static/audio/explicit1.wav,NA,0,NA,NA,NA,NA,NA,NA,NA,NA,NA,NA,NA,NA,NA,NA,NA,NA,NA,NA,NA,NA,NA,NA,NA,NA,NA
audio-instructions,353,1385064,0.0-327.0-1.0,voc_e2,12124,"[{""event"":""fullscreenenter"",""trial"":1,""time"":4214}]",NA,488,static/audio/explicit2.wav,NA,0,NA,NA,NA,NA,NA,NA,NA,NA,NA,NA,NA,NA,NA,NA,NA,NA,NA,NA,NA,NA,NA,NA,NA,NA,NA
image-slider-response,354,1390913,0.0-328.0,voc_e2,12124,"[{""event"":""fullscreenenter"",""trial"":1,""time"":4214}]",NA,5847.000000000233,static/img/machines/machine1.png,NA,NA,NA,NA,NA,NA,NA,NA,NA,NA,NA,NA,NA,NA,NA,NA,explicit,NA,NA,NA,NA,NA,NA,NA,NA,NA,3
image-slider-response,355,1395248,0.0-329.0,voc_e2,12124,"[{""event"":""fullscreenenter"",""trial"":1,""time"":4214}]",NA,4333,static/img/machines/machine2.png,NA,NA,NA,NA,NA,NA,NA,NA,NA,NA,NA,NA,NA,NA,NA,NA,explicit,NA,NA,NA,NA,NA,NA,NA,NA,NA,7
image-slider-response,356,1398312,0.0-330.0,voc_e2,12124,"[{""event"":""fullscreenenter"",""trial"":1,""time"":4214}]",NA,3064,static/img/machines/machine6.png,NA,NA,NA,NA,NA,NA,NA,NA,NA,NA,NA,NA,NA,NA,NA,NA,explicit,NA,NA,NA,NA,NA,NA,NA,NA,NA,6
image-slider-response,357,1402112,0.0-331.0,voc_e2,12124,"[{""event"":""fullscreenenter"",""trial"":1,""time"":4214}]",NA,3799,static/img/machines/machine3.png,NA,NA,NA,NA,NA,NA,NA,NA,NA,NA,NA,NA,NA,NA,NA,NA,explicit,NA,NA,NA,NA,NA,NA,NA,NA,NA,6
image-slider-response,358,1404530,0.0-332.0,voc_e2,12124,"[{""event"":""fullscreenenter"",""trial"":1,""time"":4214}]",NA,2417,static/img/machines/machine4.png,NA,NA,NA,NA,NA,NA,NA,NA,NA,NA,NA,NA,NA,NA,NA,NA,explicit,NA,NA,NA,NA,NA,NA,NA,NA,NA,3
image-slider-response,359,1407664,0.0-333.0,voc_e2,12124,"[{""event"":""fullscreenenter"",""trial"":1,""time"":4214}]",NA,3133,static/img/machines/machine5.png,NA,NA,NA,NA,NA,NA,NA,NA,NA,NA,NA,NA,NA,NA,NA,NA,explicit,NA,NA,NA,NA,NA,NA,NA,NA,NA,2
