trial_type,trial_index,time_elapsed,internal_node_id,task_version,subject_id,interactions,success,rt,stimulus,key_press,button_pressed,offer,arcade_color_L,arcade_color_R,arcade_outcome_L,arcade_outcome_R,correct,stage_1_key,stage_1_choice,stage_1_rt,stage_2_key,stage_2_choice,stage_2_rt,stage_3_outcome,accuracy,phase,responses,num_errors,context,reward_prob_L,reward_prob_R,arcade_id_L,arcade_id_R,trial,block,response
pavlovia,0,8,0.0-0.0,voc_e2,12065,"[{""event"":""blur"",""trial"":0,""time"":0}]",NA,NA,NA,NA,NA,NA,NA,NA,NA,NA,NA,NA,NA,NA,NA,NA,NA,NA,NA,NA,NA,NA,NA,NA,NA,NA,NA,NA,NA,NA
fullscreen,1,291616,0.0-1.0,voc_e2,12065,"[{""event"":""blur"",""trial"":0,""time"":0},{""event"":""focus"",""trial"":1,""time"":288626},{""event"":""focus"",""trial"":1,""time"":288626},{""event"":""fullscreenenter"",""trial"":1,""time"":290653}]",TRUE,NA,NA,NA,NA,NA,NA,NA,NA,NA,NA,NA,NA,NA,NA,NA,NA,NA,NA,NA,NA,NA,NA,NA,NA,NA,NA,NA,NA,NA
audio-keyboard-response,2,294523,0.0-2.0,voc_e2,12065,"[{""event"":""blur"",""trial"":0,""time"":0},{""event"":""focus"",""trial"":1,""time"":288626},{""event"":""focus"",""trial"":1,""time"":288626},{""event"":""fullscreenenter"",""trial"":1,""time"":290653}]",NA,0,static/audio/beep_loop.wav,32,NA,NA,NA,NA,NA,NA,NA,NA,NA,NA,NA,NA,NA,NA,NA,NA,NA,NA,NA,NA,NA,NA,NA,NA,NA,NA
audio-test,3,296930,0.0-3.0,voc_e2,12065,"[{""event"":""blur"",""trial"":0,""time"":0},{""event"":""focus"",""trial"":1,""time"":288626},{""event"":""focus"",""trial"":1,""time"":288626},{""event"":""fullscreenenter"",""trial"":1,""time"":290653}]",NA,NA,static/audio/turtle.wav,NA,3,NA,NA,NA,NA,NA,NA,NA,NA,NA,NA,NA,NA,NA,NA,NA,NA,NA,NA,NA,NA,NA,NA,NA,NA,NA
audio-test,4,299059,0.0-4.0,voc_e2,12065,"[{""event"":""blur"",""trial"":0,""time"":0},{""event"":""focus"",""trial"":1,""time"":288626},{""event"":""focus"",""trial"":1,""time"":288626},{""event"":""fullscreenenter"",""trial"":1,""time"":290653}]",NA,NA,static/audio/shark.wav,NA,2,NA,NA,NA,NA,NA,NA,NA,NA,NA,NA,NA,NA,NA,NA,NA,NA,NA,NA,NA,NA,NA,NA,NA,NA,NA
audio-instructions,5,305912,0.0-5.0-0.0,voc_e2,12065,"[{""event"":""blur"",""trial"":0,""time"":0},{""event"":""focus"",""trial"":1,""time"":288626},{""event"":""focus"",""trial"":1,""time"":288626},{""event"":""fullscreenenter"",""trial"":1,""time"":290653}]",NA,1068,static/audio/instructions1.wav,NA,0,NA,NA,NA,NA,NA,NA,NA,NA,NA,NA,NA,NA,NA,NA,NA,NA,NA,NA,NA,NA,NA,NA,NA,NA,NA
audio-instructions,6,315145,0.0-5.0-1.0,voc_e2,12065,"[{""event"":""blur"",""trial"":0,""time"":0},{""event"":""focus"",""trial"":1,""time"":288626},{""event"":""focus"",""trial"":1,""time"":288626},{""event"":""fullscreenenter"",""trial"":1,""time"":290653}]",NA,2479,static/audio/instructions2.wav,NA,0,NA,NA,NA,NA,NA,NA,NA,NA,NA,NA,NA,NA,NA,NA,NA,NA,NA,NA,NA,NA,NA,NA,NA,NA,NA
audio-instructions,7,321614,0.0-5.0-2.0,voc_e2,12065,"[{""event"":""blur"",""trial"":0,""time"":0},{""event"":""focus"",""trial"":1,""time"":288626},{""event"":""focus"",""trial"":1,""time"":288626},{""event"":""fullscreenenter"",""trial"":1,""time"":290653}]",NA,626,static/audio/instructions3.wav,NA,0,NA,NA,NA,NA,NA,NA,NA,NA,NA,NA,NA,NA,NA,NA,NA,NA,NA,NA,NA,NA,NA,NA,NA,NA,NA
audio-instructions,8,336177,0.0-5.0-3.0,voc_e2,12065,"[{""event"":""blur"",""trial"":0,""time"":0},{""event"":""focus"",""trial"":1,""time"":288626},{""event"":""focus"",""trial"":1,""time"":288626},{""event"":""fullscreenenter"",""trial"":1,""time"":290653}]",NA,1337,static/audio/instructions4.wav,NA,0,NA,NA,NA,NA,NA,NA,NA,NA,NA,NA,NA,NA,NA,NA,NA,NA,NA,NA,NA,NA,NA,NA,NA,NA,NA
audio-instructions,9,346260,0.0-5.0-4.0,voc_e2,12065,"[{""event"":""blur"",""trial"":0,""time"":0},{""event"":""focus"",""trial"":1,""time"":288626},{""event"":""focus"",""trial"":1,""time"":288626},{""event"":""fullscreenenter"",""trial"":1,""time"":290653}]",NA,697,static/audio/instructions5.wav,NA,0,NA,NA,NA,NA,NA,NA,NA,NA,NA,NA,NA,NA,NA,NA,NA,NA,NA,NA,NA,NA,NA,NA,NA,NA,NA
fcp-practice,10,351105,0.0-5.0-5.0-0.0,voc_e2,12065,"[{""event"":""blur"",""trial"":0,""time"":0},{""event"":""focus"",""trial"":1,""time"":288626},{""event"":""focus"",""trial"":1,""time"":288626},{""event"":""fullscreenenter"",""trial"":1,""time"":290653}]",NA,NA,NA,NA,NA,NA,#EDC948,#46d3c8,10,0,1,null,null,null,37,1,3337,10,1,practice,NA,NA,NA,NA,NA,NA,NA,NA,NA,NA
fcp-practice,11,353195,0.0-5.0-5.0-1.0,voc_e2,12065,"[{""event"":""blur"",""trial"":0,""time"":0},{""event"":""focus"",""trial"":1,""time"":288626},{""event"":""focus"",""trial"":1,""time"":288626},{""event"":""fullscreenenter"",""trial"":1,""time"":290653}]",NA,NA,NA,NA,NA,NA,#EDC948,#46d3c8,10,0,1,null,null,null,37,1,568,10,1,practice,NA,NA,NA,NA,NA,NA,NA,NA,NA,NA
fcp-practice,12,355144,0.0-5.0-5.0-2.0,voc_e2,12065,"[{""event"":""blur"",""trial"":0,""time"":0},{""event"":""focus"",""trial"":1,""time"":288626},{""event"":""focus"",""trial"":1,""time"":288626},{""event"":""fullscreenenter"",""trial"":1,""time"":290653}]",NA,NA,NA,NA,NA,NA,#EDC948,#46d3c8,0,10,1,null,null,null,37,1,442,0,1,practice,NA,NA,NA,NA,NA,NA,NA,NA,NA,NA
fcp-practice,13,357123,0.0-5.0-5.0-3.0,voc_e2,12065,"[{""event"":""blur"",""trial"":0,""time"":0},{""event"":""focus"",""trial"":1,""time"":288626},{""event"":""focus"",""trial"":1,""time"":288626},{""event"":""fullscreenenter"",""trial"":1,""time"":290653}]",NA,NA,NA,NA,NA,NA,#EDC948,#46d3c8,10,0,1,null,null,null,37,1,470,10,1,practice,NA,NA,NA,NA,NA,NA,NA,NA,NA,NA
fcp-practice,14,358954,0.0-5.0-5.0-4.0,voc_e2,12065,"[{""event"":""blur"",""trial"":0,""time"":0},{""event"":""focus"",""trial"":1,""time"":288626},{""event"":""focus"",""trial"":1,""time"":288626},{""event"":""fullscreenenter"",""trial"":1,""time"":290653}]",NA,NA,NA,NA,NA,NA,#EDC948,#46d3c8,10,0,1,null,null,null,37,1,317.9999999999418,10,1,practice,NA,NA,NA,NA,NA,NA,NA,NA,NA,NA
audio-instructions,15,387364,0.0-5.0-6.0,voc_e2,12065,"[{""event"":""blur"",""trial"":0,""time"":0},{""event"":""focus"",""trial"":1,""time"":288626},{""event"":""focus"",""trial"":1,""time"":288626},{""event"":""fullscreenenter"",""trial"":1,""time"":290653}]",NA,10370,static/audio/instructions6.wav,NA,0,NA,NA,NA,NA,NA,NA,NA,NA,NA,NA,NA,NA,NA,NA,NA,NA,NA,NA,NA,NA,NA,NA,NA,NA,NA
audio-instructions,16,420027,0.0-5.0-7.0,voc_e2,12065,"[{""event"":""blur"",""trial"":0,""time"":0},{""event"":""focus"",""trial"":1,""time"":288626},{""event"":""focus"",""trial"":1,""time"":288626},{""event"":""fullscreenenter"",""trial"":1,""time"":290653}]",NA,13463,static/audio/instructions7.wav,NA,0,NA,NA,NA,NA,NA,NA,NA,NA,NA,NA,NA,NA,NA,NA,NA,NA,NA,NA,NA,NA,NA,NA,NA,NA,NA
audio-instructions,17,430377,0.0-5.0-8.0,voc_e2,12065,"[{""event"":""blur"",""trial"":0,""time"":0},{""event"":""focus"",""trial"":1,""time"":288626},{""event"":""focus"",""trial"":1,""time"":288626},{""event"":""fullscreenenter"",""trial"":1,""time"":290653}]",NA,877,static/audio/instructions8.wav,NA,0,NA,NA,NA,NA,NA,NA,NA,NA,NA,NA,NA,NA,NA,NA,NA,NA,NA,NA,NA,NA,NA,NA,NA,NA,NA
fcp-comprehension,18,439097,0.0-5.0-9.0,voc_e2,12065,"[{""event"":""blur"",""trial"":0,""time"":0},{""event"":""focus"",""trial"":1,""time"":288626},{""event"":""focus"",""trial"":1,""time"":288626},{""event"":""fullscreenenter"",""trial"":1,""time"":290653}]",NA,8715.000000000058,NA,NA,NA,NA,NA,NA,NA,NA,NA,NA,NA,NA,NA,NA,NA,NA,NA,NA,"true,true",0,NA,NA,NA,NA,NA,NA,NA,NA
audio-instructions,19,446527,0.0-6.0-0.0,voc_e2,12065,"[{""event"":""blur"",""trial"":0,""time"":0},{""event"":""focus"",""trial"":1,""time"":288626},{""event"":""focus"",""trial"":1,""time"":288626},{""event"":""fullscreenenter"",""trial"":1,""time"":290653}]",NA,1847,static/audio/instructions9.wav,NA,0,NA,NA,NA,NA,NA,NA,NA,NA,NA,NA,NA,NA,NA,NA,NA,NA,NA,NA,NA,NA,NA,NA,NA,NA,NA
audio-instructions,20,461493,0.0-6.0-1.0,voc_e2,12065,"[{""event"":""blur"",""trial"":0,""time"":0},{""event"":""focus"",""trial"":1,""time"":288626},{""event"":""focus"",""trial"":1,""time"":288626},{""event"":""fullscreenenter"",""trial"":1,""time"":290653}]",NA,2849,static/audio/instructions10.wav,NA,0,NA,NA,NA,NA,NA,NA,NA,NA,NA,NA,NA,NA,NA,NA,NA,NA,NA,NA,NA,NA,NA,NA,NA,NA,NA
fcp-trial,21,470759,0.0-6.0-2.0,voc_e2,12065,"[{""event"":""blur"",""trial"":0,""time"":0},{""event"":""focus"",""trial"":1,""time"":288626},{""event"":""focus"",""trial"":1,""time"":288626},{""event"":""fullscreenenter"",""trial"":1,""time"":290653}]",NA,NA,NA,NA,NA,0,#EDC948,#46d3c8,10,10,1,38,1,2482,39,0,5279,10,0,practice,NA,NA,NA,NA,NA,NA,NA,NA,NA,NA
audio-instructions,22,483427,0.0-6.0-3.0,voc_e2,12065,"[{""event"":""blur"",""trial"":0,""time"":0},{""event"":""focus"",""trial"":1,""time"":288626},{""event"":""focus"",""trial"":1,""time"":288626},{""event"":""fullscreenenter"",""trial"":1,""time"":290653}]",NA,1660,static/audio/instructions11.wav,NA,0,NA,NA,NA,NA,NA,NA,NA,NA,NA,NA,NA,NA,NA,NA,NA,NA,NA,NA,NA,NA,NA,NA,NA,NA,NA
fcp-trial,23,487536,0.0-6.0-4.0,voc_e2,12065,"[{""event"":""blur"",""trial"":0,""time"":0},{""event"":""focus"",""trial"":1,""time"":288626},{""event"":""focus"",""trial"":1,""time"":288626},{""event"":""fullscreenenter"",""trial"":1,""time"":290653}]",NA,NA,NA,NA,NA,6,#EDC948,#46d3c8,10,10,1,40,0,1357.0000000000582,37,1,1248,10,1,practice,NA,NA,NA,NA,NA,NA,NA,NA,NA,NA
audio-instructions,24,642117,0.0-6.0-5.0,voc_e2,12065,"[{""event"":""blur"",""trial"":0,""time"":0},{""event"":""focus"",""trial"":1,""time"":288626},{""event"":""focus"",""trial"":1,""time"":288626},{""event"":""fullscreenenter"",""trial"":1,""time"":290653}]",NA,135897,static/audio/instructions12.wav,NA,0,NA,NA,NA,NA,NA,NA,NA,NA,NA,NA,NA,NA,NA,NA,NA,NA,NA,NA,NA,NA,NA,NA,NA,NA,NA
audio-instructions,25,650364,0.0-6.0-6.0,voc_e2,12065,"[{""event"":""blur"",""trial"":0,""time"":0},{""event"":""focus"",""trial"":1,""time"":288626},{""event"":""focus"",""trial"":1,""time"":288626},{""event"":""fullscreenenter"",""trial"":1,""time"":290653}]",NA,653,static/audio/instructions13.wav,NA,0,NA,NA,NA,NA,NA,NA,NA,NA,NA,NA,NA,NA,NA,NA,NA,NA,NA,NA,NA,NA,NA,NA,NA,NA,NA
audio-instructions,26,659497,0.0-6.0-7.0,voc_e2,12065,"[{""event"":""blur"",""trial"":0,""time"":0},{""event"":""focus"",""trial"":1,""time"":288626},{""event"":""focus"",""trial"":1,""time"":288626},{""event"":""fullscreenenter"",""trial"":1,""time"":290653}]",NA,685,static/audio/instructions14.wav,NA,0,NA,NA,NA,NA,NA,NA,NA,NA,NA,NA,NA,NA,NA,NA,NA,NA,NA,NA,NA,NA,NA,NA,NA,NA,NA
audio-instructions,27,666865,0.0-7.0-0.0,voc_e2,12065,"[{""event"":""blur"",""trial"":0,""time"":0},{""event"":""focus"",""trial"":1,""time"":288626},{""event"":""focus"",""trial"":1,""time"":288626},{""event"":""fullscreenenter"",""trial"":1,""time"":290653}]",NA,456,static/audio/instructions15.wav,NA,0,NA,NA,NA,NA,NA,NA,NA,NA,NA,NA,NA,NA,NA,NA,NA,NA,NA,NA,NA,NA,NA,NA,NA,NA,NA
audio-instructions,28,675817,0.0-7.0-1.0,voc_e2,12065,"[{""event"":""blur"",""trial"":0,""time"":0},{""event"":""focus"",""trial"":1,""time"":288626},{""event"":""focus"",""trial"":1,""time"":288626},{""event"":""fullscreenenter"",""trial"":1,""time"":290653}]",NA,2124,static/audio/instructions16.wav,NA,0,NA,NA,NA,NA,NA,NA,NA,NA,NA,NA,NA,NA,NA,NA,NA,NA,NA,NA,NA,NA,NA,NA,NA,NA,NA
audio-instructions,29,683911,0.0-7.0-2.0,voc_e2,12065,"[{""event"":""blur"",""trial"":0,""time"":0},{""event"":""focus"",""trial"":1,""time"":288626},{""event"":""focus"",""trial"":1,""time"":288626},{""event"":""fullscreenenter"",""trial"":1,""time"":290653}]",NA,415,static/audio/instructions17.wav,NA,0,NA,NA,NA,NA,NA,NA,NA,NA,NA,NA,NA,NA,NA,NA,NA,NA,NA,NA,NA,NA,NA,NA,NA,NA,NA
audio-instructions,30,716545,0.0-7.0-3.0,voc_e2,12065,"[{""event"":""blur"",""trial"":0,""time"":0},{""event"":""focus"",""trial"":1,""time"":288626},{""event"":""focus"",""trial"":1,""time"":288626},{""event"":""fullscreenenter"",""trial"":1,""time"":290653}]",NA,24871,static/audio/instructions18.wav,NA,0,NA,NA,NA,NA,NA,NA,NA,NA,NA,NA,NA,NA,NA,NA,NA,NA,NA,NA,NA,NA,NA,NA,NA,NA,NA
audio-instructions,31,723699,0.0-7.0-4.0,voc_e2,12065,"[{""event"":""blur"",""trial"":0,""time"":0},{""event"":""focus"",""trial"":1,""time"":288626},{""event"":""focus"",""trial"":1,""time"":288626},{""event"":""fullscreenenter"",""trial"":1,""time"":290653}]",NA,411,static/audio/instructions19.wav,NA,0,NA,NA,NA,NA,NA,NA,NA,NA,NA,NA,NA,NA,NA,NA,NA,NA,NA,NA,NA,NA,NA,NA,NA,NA,NA
fcp-comprehension,32,736971,0.0-7.0-5.0,voc_e2,12065,"[{""event"":""blur"",""trial"":0,""time"":0},{""event"":""focus"",""trial"":1,""time"":288626},{""event"":""focus"",""trial"":1,""time"":288626},{""event"":""fullscreenenter"",""trial"":1,""time"":290653}]",NA,13270.999999999884,NA,NA,NA,NA,NA,NA,NA,NA,NA,NA,NA,NA,NA,NA,NA,NA,NA,NA,"false,false,false,true",0,NA,NA,NA,NA,NA,NA,NA,NA
audio-instructions,33,1145149,0.0-8.0,voc_e2,12065,"[{""event"":""blur"",""trial"":0,""time"":0},{""event"":""focus"",""trial"":1,""time"":288626},{""event"":""focus"",""trial"":1,""time"":288626},{""event"":""fullscreenenter"",""trial"":1,""time"":290653},{""event"":""blur"",""trial"":33,""time"":1037222},{""event"":""focus"",""trial"":33,""time"":1143059}]",NA,398974,static/audio/ready.wav,NA,0,NA,NA,NA,NA,NA,NA,NA,NA,NA,NA,NA,NA,NA,NA,NA,NA,NA,NA,NA,NA,NA,NA,NA,NA,NA
fcp-trial,34,1150078,0.0-9.0-0.0,voc_e2,12065,"[{""event"":""blur"",""trial"":0,""time"":0},{""event"":""focus"",""trial"":1,""time"":288626},{""event"":""focus"",""trial"":1,""time"":288626},{""event"":""fullscreenenter"",""trial"":1,""time"":290653},{""event"":""blur"",""trial"":33,""time"":1037222},{""event"":""focus"",""trial"":33,""time"":1143059}]",NA,NA,NA,NA,NA,2,#D8271C,#741CD8,10,0,1,38,1,1799,37,1,1622,10,1,experiment,NA,NA,2,0.5,0.5,4,5,1,1,NA
fcp-trial,35,1160009,0.0-10.0-0.0,voc_e2,12065,"[{""event"":""blur"",""trial"":0,""time"":0},{""event"":""focus"",""trial"":1,""time"":288626},{""event"":""focus"",""trial"":1,""time"":288626},{""event"":""fullscreenenter"",""trial"":1,""time"":290653},{""event"":""blur"",""trial"":33,""time"":1037222},{""event"":""focus"",""trial"":33,""time"":1143059}]",NA,NA,NA,NA,NA,2,#FA92F8,#1CD855,0,10,0,38,1,6847,39,0,1560.0000000002328,10,1,experiment,NA,NA,0,0.1,0.9,1,0,2,1,NA
fcp-trial,36,1166673,0.0-11.0-0.0,voc_e2,12065,"[{""event"":""blur"",""trial"":0,""time"":0},{""event"":""focus"",""trial"":1,""time"":288626},{""event"":""focus"",""trial"":1,""time"":288626},{""event"":""fullscreenenter"",""trial"":1,""time"":290653},{""event"":""blur"",""trial"":33,""time"":1037222},{""event"":""focus"",""trial"":33,""time"":1143059}]",NA,NA,NA,NA,NA,4,#FA92F8,#1CD855,0,10,0,38,1,2190,39,0,2967.000000000233,10,1,experiment,NA,NA,0,0.1,0.9,1,0,3,1,NA
fcp-trial,37,1172628,0.0-12.0-0.0,voc_e2,12065,"[{""event"":""blur"",""trial"":0,""time"":0},{""event"":""focus"",""trial"":1,""time"":288626},{""event"":""focus"",""trial"":1,""time"":288626},{""event"":""fullscreenenter"",""trial"":1,""time"":290653},{""event"":""blur"",""trial"":33,""time"":1037222},{""event"":""focus"",""trial"":33,""time"":1143059}]",NA,NA,NA,NA,NA,2,#D89F1C,#3386FF,10,0,1,38,1,2752,37,1,1695.9999999997672,10,1,experiment,NA,NA,1,0.7,0.3,2,3,4,1,NA
fcp-trial,38,1178196,0.0-13.0-0.0,voc_e2,12065,"[{""event"":""blur"",""trial"":0,""time"":0},{""event"":""focus"",""trial"":1,""time"":288626},{""event"":""focus"",""trial"":1,""time"":288626},{""event"":""fullscreenenter"",""trial"":1,""time"":290653},{""event"":""blur"",""trial"":33,""time"":1037222},{""event"":""focus"",""trial"":33,""time"":1143059}]",NA,NA,NA,NA,NA,6,#1CD855,#FA92F8,10,0,1,38,1,3460,37,1,587,10,1,experiment,NA,NA,0,0.9,0.1,0,1,5,1,NA
fcp-trial,39,1184213,0.0-14.0-0.0,voc_e2,12065,"[{""event"":""blur"",""trial"":0,""time"":0},{""event"":""focus"",""trial"":1,""time"":288626},{""event"":""focus"",""trial"":1,""time"":288626},{""event"":""fullscreenenter"",""trial"":1,""time"":290653},{""event"":""blur"",""trial"":33,""time"":1037222},{""event"":""focus"",""trial"":33,""time"":1143059}]",NA,NA,NA,NA,NA,6,#741CD8,#D8271C,10,0,0,40,0,3067.000000000233,39,0,1443,0,1,experiment,NA,NA,2,0.5,0.5,5,4,6,1,NA
fcp-trial,40,1191767,0.0-15.0-0.0,voc_e2,12065,"[{""event"":""blur"",""trial"":0,""time"":0},{""event"":""focus"",""trial"":1,""time"":288626},{""event"":""focus"",""trial"":1,""time"":288626},{""event"":""fullscreenenter"",""trial"":1,""time"":290653},{""event"":""blur"",""trial"":33,""time"":1037222},{""event"":""focus"",""trial"":33,""time"":1143059}]",NA,NA,NA,NA,NA,5,#D89F1C,#3386FF,0,10,1,38,1,4804,37,1,1242,0,1,experiment,NA,NA,1,0.7,0.3,2,3,7,1,NA
fcp-trial,41,1196344,0.0-16.0-0.0,voc_e2,12065,"[{""event"":""blur"",""trial"":0,""time"":0},{""event"":""focus"",""trial"":1,""time"":288626},{""event"":""focus"",""trial"":1,""time"":288626},{""event"":""fullscreenenter"",""trial"":1,""time"":290653},{""event"":""blur"",""trial"":33,""time"":1037222},{""event"":""focus"",""trial"":33,""time"":1143059}]",NA,NA,NA,NA,NA,3,#D8271C,#741CD8,10,0,1,38,1,2530,39,0,542,0,0,experiment,NA,NA,2,0.5,0.5,4,5,8,1,NA
fcp-trial,42,1203741,0.0-17.0-0.0,voc_e2,12065,"[{""event"":""blur"",""trial"":0,""time"":0},{""event"":""focus"",""trial"":1,""time"":288626},{""event"":""focus"",""trial"":1,""time"":288626},{""event"":""fullscreenenter"",""trial"":1,""time"":290653},{""event"":""blur"",""trial"":33,""time"":1037222},{""event"":""focus"",""trial"":33,""time"":1143059}]",NA,NA,NA,NA,NA,1,#FA92F8,#1CD855,0,10,0,38,1,4849,39,0,1034,10,1,experiment,NA,NA,0,0.1,0.9,1,0,9,1,NA
fcp-trial,43,1216850,0.0-18.0-0.0,voc_e2,12065,"[{""event"":""blur"",""trial"":0,""time"":0},{""event"":""focus"",""trial"":1,""time"":288626},{""event"":""focus"",""trial"":1,""time"":288626},{""event"":""fullscreenenter"",""trial"":1,""time"":290653},{""event"":""blur"",""trial"":33,""time"":1037222},{""event"":""focus"",""trial"":33,""time"":1143059}]",NA,NA,NA,NA,NA,6,#3386FF,#D89F1C,10,0,0,38,1,5932,39,0,5669,0,1,experiment,NA,NA,1,0.3,0.7,3,2,10,1,NA
fcp-trial,44,1221125,0.0-19.0-0.0,voc_e2,12065,"[{""event"":""blur"",""trial"":0,""time"":0},{""event"":""focus"",""trial"":1,""time"":288626},{""event"":""focus"",""trial"":1,""time"":288626},{""event"":""fullscreenenter"",""trial"":1,""time"":290653},{""event"":""blur"",""trial"":33,""time"":1037222},{""event"":""focus"",""trial"":33,""time"":1143059}]",NA,NA,NA,NA,NA,1,#D89F1C,#3386FF,10,0,1,38,1,1698,39,0,1072,0,0,experiment,NA,NA,1,0.7,0.3,2,3,11,1,NA
fcp-trial,45,1227646,0.0-20.0-0.0,voc_e2,12065,"[{""event"":""blur"",""trial"":0,""time"":0},{""event"":""focus"",""trial"":1,""time"":288626},{""event"":""focus"",""trial"":1,""time"":288626},{""event"":""fullscreenenter"",""trial"":1,""time"":290653},{""event"":""blur"",""trial"":33,""time"":1037222},{""event"":""focus"",""trial"":33,""time"":1143059}]",NA,NA,NA,NA,NA,1,#D8271C,#741CD8,10,10,1,38,1,3414,39,0,1597,10,0,experiment,NA,NA,2,0.5,0.5,4,5,12,1,NA
fcp-trial,46,1234850,0.0-21.0-0.0,voc_e2,12065,"[{""event"":""blur"",""trial"":0,""time"":0},{""event"":""focus"",""trial"":1,""time"":288626},{""event"":""focus"",""trial"":1,""time"":288626},{""event"":""fullscreenenter"",""trial"":1,""time"":290653},{""event"":""blur"",""trial"":33,""time"":1037222},{""event"":""focus"",""trial"":33,""time"":1143059}]",NA,NA,NA,NA,NA,3,#3386FF,#D89F1C,0,0,0,38,1,3715,37,1,1984,0,0,experiment,NA,NA,1,0.3,0.7,3,2,13,1,NA
fcp-trial,47,1243697,0.0-22.0-0.0,voc_e2,12065,"[{""event"":""blur"",""trial"":0,""time"":0},{""event"":""focus"",""trial"":1,""time"":288626},{""event"":""focus"",""trial"":1,""time"":288626},{""event"":""fullscreenenter"",""trial"":1,""time"":290653},{""event"":""blur"",""trial"":33,""time"":1037222},{""event"":""focus"",""trial"":33,""time"":1143059}]",NA,NA,NA,NA,NA,5,#1CD855,#FA92F8,10,0,1,38,1,5824.000000000233,37,1,1517,10,1,experiment,NA,NA,0,0.9,0.1,0,1,14,1,NA
fcp-trial,48,1249264,0.0-23.0-0.0,voc_e2,12065,"[{""event"":""blur"",""trial"":0,""time"":0},{""event"":""focus"",""trial"":1,""time"":288626},{""event"":""focus"",""trial"":1,""time"":288626},{""event"":""fullscreenenter"",""trial"":1,""time"":290653},{""event"":""blur"",""trial"":33,""time"":1037222},{""event"":""focus"",""trial"":33,""time"":1143059}]",NA,NA,NA,NA,NA,4,#3386FF,#D89F1C,0,10,0,38,1,2887,39,0,1175,10,1,experiment,NA,NA,1,0.3,0.7,3,2,15,1,NA
fcp-trial,49,1253432,0.0-24.0-0.0,voc_e2,12065,"[{""event"":""blur"",""trial"":0,""time"":0},{""event"":""focus"",""trial"":1,""time"":288626},{""event"":""focus"",""trial"":1,""time"":288626},{""event"":""fullscreenenter"",""trial"":1,""time"":290653},{""event"":""blur"",""trial"":33,""time"":1037222},{""event"":""focus"",""trial"":33,""time"":1143059}]",NA,NA,NA,NA,NA,0,#1CD855,#FA92F8,10,0,1,38,1,2263,37,1,400,10,1,experiment,NA,NA,0,0.9,0.1,0,1,16,1,NA
fcp-trial,50,1264570,0.0-25.0-0.0,voc_e2,12065,"[{""event"":""blur"",""trial"":0,""time"":0},{""event"":""focus"",""trial"":1,""time"":288626},{""event"":""focus"",""trial"":1,""time"":288626},{""event"":""fullscreenenter"",""trial"":1,""time"":290653},{""event"":""blur"",""trial"":33,""time"":1037222},{""event"":""focus"",""trial"":33,""time"":1143059}]",NA,NA,NA,NA,NA,4,#741CD8,#D8271C,0,10,0,38,1,4992,37,1,4638,0,0,experiment,NA,NA,2,0.5,0.5,5,4,17,1,NA
fcp-trial,51,1268871,0.0-26.0-0.0,voc_e2,12065,"[{""event"":""blur"",""trial"":0,""time"":0},{""event"":""focus"",""trial"":1,""time"":288626},{""event"":""focus"",""trial"":1,""time"":288626},{""event"":""fullscreenenter"",""trial"":1,""time"":290653},{""event"":""blur"",""trial"":33,""time"":1037222},{""event"":""focus"",""trial"":33,""time"":1143059}]",NA,NA,NA,NA,NA,0,#3386FF,#D89F1C,10,10,0,38,1,2322,39,0,472,10,1,experiment,NA,NA,1,0.3,0.7,3,2,18,1,NA
fcp-trial,52,1275031,0.0-27.0-0.0,voc_e2,12065,"[{""event"":""blur"",""trial"":0,""time"":0},{""event"":""focus"",""trial"":1,""time"":288626},{""event"":""focus"",""trial"":1,""time"":288626},{""event"":""fullscreenenter"",""trial"":1,""time"":290653},{""event"":""blur"",""trial"":33,""time"":1037222},{""event"":""focus"",""trial"":33,""time"":1143059}]",NA,NA,NA,NA,NA,0,#D8271C,#741CD8,10,0,1,38,1,3763.000000000233,37,1,891,10,1,experiment,NA,NA,2,0.5,0.5,4,5,19,1,NA
fcp-trial,53,1278873,0.0-28.0-0.0,voc_e2,12065,"[{""event"":""blur"",""trial"":0,""time"":0},{""event"":""focus"",""trial"":1,""time"":288626},{""event"":""focus"",""trial"":1,""time"":288626},{""event"":""fullscreenenter"",""trial"":1,""time"":290653},{""event"":""blur"",""trial"":33,""time"":1037222},{""event"":""focus"",""trial"":33,""time"":1143059}]",NA,NA,NA,NA,NA,5,#D8271C,#741CD8,0,10,1,38,1,1524,37,1,811,0,1,experiment,NA,NA,2,0.5,0.5,4,5,20,1,NA
fcp-trial,54,1283403,0.0-29.0-0.0,voc_e2,12065,"[{""event"":""blur"",""trial"":0,""time"":0},{""event"":""focus"",""trial"":1,""time"":288626},{""event"":""focus"",""trial"":1,""time"":288626},{""event"":""fullscreenenter"",""trial"":1,""time"":290653},{""event"":""blur"",""trial"":33,""time"":1037222},{""event"":""focus"",""trial"":33,""time"":1143059}]",NA,NA,NA,NA,NA,3,#1CD855,#FA92F8,0,0,1,38,1,2577,37,1,446.99999999976717,0,1,experiment,NA,NA,0,0.9,0.1,0,1,21,1,NA
fcp-trial,55,1288331,0.0-30.0-0.0,voc_e2,12065,"[{""event"":""blur"",""trial"":0,""time"":0},{""event"":""focus"",""trial"":1,""time"":288626},{""event"":""focus"",""trial"":1,""time"":288626},{""event"":""fullscreenenter"",""trial"":1,""time"":290653},{""event"":""blur"",""trial"":33,""time"":1037222},{""event"":""focus"",""trial"":33,""time"":1143059}]",NA,NA,NA,NA,NA,1,#D89F1C,#3386FF,10,10,1,38,1,2940,37,1,482.00000000023283,10,1,experiment,NA,NA,1,0.7,0.3,2,3,22,1,NA
fcp-trial,56,1292947,0.0-31.0-0.0,voc_e2,12065,"[{""event"":""blur"",""trial"":0,""time"":0},{""event"":""focus"",""trial"":1,""time"":288626},{""event"":""focus"",""trial"":1,""time"":288626},{""event"":""fullscreenenter"",""trial"":1,""time"":290653},{""event"":""blur"",""trial"":33,""time"":1037222},{""event"":""focus"",""trial"":33,""time"":1143059}]",NA,NA,NA,NA,NA,6,#D8271C,#741CD8,0,0,1,38,1,2061,39,0,1048.9999999997672,0,0,experiment,NA,NA,2,0.5,0.5,4,5,23,1,NA
fcp-trial,57,1298590,0.0-32.0-0.0,voc_e2,12065,"[{""event"":""blur"",""trial"":0,""time"":0},{""event"":""focus"",""trial"":1,""time"":288626},{""event"":""focus"",""trial"":1,""time"":288626},{""event"":""fullscreenenter"",""trial"":1,""time"":290653},{""event"":""blur"",""trial"":33,""time"":1037222},{""event"":""focus"",""trial"":33,""time"":1143059}]",NA,NA,NA,NA,NA,2,#3386FF,#D89F1C,0,10,0,38,1,2402,39,0,1735,10,1,experiment,NA,NA,1,0.3,0.7,3,2,24,1,NA
fcp-trial,58,1303174,0.0-33.0-0.0,voc_e2,12065,"[{""event"":""blur"",""trial"":0,""time"":0},{""event"":""focus"",""trial"":1,""time"":288626},{""event"":""focus"",""trial"":1,""time"":288626},{""event"":""fullscreenenter"",""trial"":1,""time"":290653},{""event"":""blur"",""trial"":33,""time"":1037222},{""event"":""focus"",""trial"":33,""time"":1143059}]",NA,NA,NA,NA,NA,6,#FA92F8,#1CD855,0,10,0,38,1,2603,39,0,475,10,1,experiment,NA,NA,0,0.1,0.9,1,0,25,1,NA
fcp-trial,59,1309099,0.0-34.0-0.0,voc_e2,12065,"[{""event"":""blur"",""trial"":0,""time"":0},{""event"":""focus"",""trial"":1,""time"":288626},{""event"":""focus"",""trial"":1,""time"":288626},{""event"":""fullscreenenter"",""trial"":1,""time"":290653},{""event"":""blur"",""trial"":33,""time"":1037222},{""event"":""focus"",""trial"":33,""time"":1143059}]",NA,NA,NA,NA,NA,3,#741CD8,#D8271C,10,10,0,40,0,3464,39,0,956.0000000002328,10,1,experiment,NA,NA,2,0.5,0.5,5,4,26,1,NA
fcp-trial,60,1318491,0.0-35.0-0.0,voc_e2,12065,"[{""event"":""blur"",""trial"":0,""time"":0},{""event"":""focus"",""trial"":1,""time"":288626},{""event"":""focus"",""trial"":1,""time"":288626},{""event"":""fullscreenenter"",""trial"":1,""time"":290653},{""event"":""blur"",""trial"":33,""time"":1037222},{""event"":""focus"",""trial"":33,""time"":1143059}]",NA,NA,NA,NA,NA,5,#D89F1C,#3386FF,10,0,1,38,1,7542,37,1,342,10,1,experiment,NA,NA,1,0.7,0.3,2,3,27,1,NA
fcp-trial,61,1323956,0.0-36.0-0.0,voc_e2,12065,"[{""event"":""blur"",""trial"":0,""time"":0},{""event"":""focus"",""trial"":1,""time"":288626},{""event"":""focus"",""trial"":1,""time"":288626},{""event"":""fullscreenenter"",""trial"":1,""time"":290653},{""event"":""blur"",""trial"":33,""time"":1037222},{""event"":""focus"",""trial"":33,""time"":1143059}]",NA,NA,NA,NA,NA,2,#FA92F8,#1CD855,10,10,0,38,1,3190.000000000233,39,0,768.0000000002328,10,1,experiment,NA,NA,0,0.1,0.9,1,0,28,1,NA
fcp-trial,62,1333147,0.0-37.0-0.0,voc_e2,12065,"[{""event"":""blur"",""trial"":0,""time"":0},{""event"":""focus"",""trial"":1,""time"":288626},{""event"":""focus"",""trial"":1,""time"":288626},{""event"":""fullscreenenter"",""trial"":1,""time"":290653},{""event"":""blur"",""trial"":33,""time"":1037222},{""event"":""focus"",""trial"":33,""time"":1143059}]",NA,NA,NA,NA,NA,5,#741CD8,#D8271C,0,0,0,38,1,6903,39,0,781.0000000002328,0,1,experiment,NA,NA,2,0.5,0.5,5,4,29,1,NA
fcp-trial,63,1339259,0.0-38.0-0.0,voc_e2,12065,"[{""event"":""blur"",""trial"":0,""time"":0},{""event"":""focus"",""trial"":1,""time"":288626},{""event"":""focus"",""trial"":1,""time"":288626},{""event"":""fullscreenenter"",""trial"":1,""time"":290653},{""event"":""blur"",""trial"":33,""time"":1037222},{""event"":""focus"",""trial"":33,""time"":1143059}]",NA,NA,NA,NA,NA,4,#3386FF,#D89F1C,10,0,0,38,1,4295,39,0,311,0,1,experiment,NA,NA,1,0.3,0.7,3,2,30,1,NA
fcp-trial,64,1346440,0.0-39.0-0.0,voc_e2,12065,"[{""event"":""blur"",""trial"":0,""time"":0},{""event"":""focus"",""trial"":1,""time"":288626},{""event"":""focus"",""trial"":1,""time"":288626},{""event"":""fullscreenenter"",""trial"":1,""time"":290653},{""event"":""blur"",""trial"":33,""time"":1037222},{""event"":""focus"",""trial"":33,""time"":1143059}]",NA,NA,NA,NA,NA,0,#D8271C,#741CD8,0,10,1,38,1,3359,37,1,2316,0,1,experiment,NA,NA,2,0.5,0.5,4,5,31,1,NA
fcp-trial,65,1350294,0.0-40.0-0.0,voc_e2,12065,"[{""event"":""blur"",""trial"":0,""time"":0},{""event"":""focus"",""trial"":1,""time"":288626},{""event"":""focus"",""trial"":1,""time"":288626},{""event"":""fullscreenenter"",""trial"":1,""time"":290653},{""event"":""blur"",""trial"":33,""time"":1037222},{""event"":""focus"",""trial"":33,""time"":1143059}]",NA,NA,NA,NA,NA,4,#FA92F8,#1CD855,0,10,0,38,1,1974,39,0,373,10,1,experiment,NA,NA,0,0.1,0.9,1,0,32,1,NA
fcp-trial,66,1353814,0.0-41.0-0.0,voc_e2,12065,"[{""event"":""blur"",""trial"":0,""time"":0},{""event"":""focus"",""trial"":1,""time"":288626},{""event"":""focus"",""trial"":1,""time"":288626},{""event"":""fullscreenenter"",""trial"":1,""time"":290653},{""event"":""blur"",""trial"":33,""time"":1037222},{""event"":""focus"",""trial"":33,""time"":1143059}]",NA,NA,NA,NA,NA,5,#FA92F8,#1CD855,0,10,0,38,1,1599,39,0,405,10,1,experiment,NA,NA,0,0.1,0.9,1,0,33,1,NA
fcp-trial,67,1359626,0.0-42.0-0.0,voc_e2,12065,"[{""event"":""blur"",""trial"":0,""time"":0},{""event"":""focus"",""trial"":1,""time"":288626},{""event"":""focus"",""trial"":1,""time"":288626},{""event"":""fullscreenenter"",""trial"":1,""time"":290653},{""event"":""blur"",""trial"":33,""time"":1037222},{""event"":""focus"",""trial"":33,""time"":1143059}]",NA,NA,NA,NA,NA,3,#D89F1C,#3386FF,10,10,1,38,1,3990,37,1,317,10,1,experiment,NA,NA,1,0.7,0.3,2,3,34,1,NA
fcp-trial,68,1364704,0.0-43.0-0.0,voc_e2,12065,"[{""event"":""blur"",""trial"":0,""time"":0},{""event"":""focus"",""trial"":1,""time"":288626},{""event"":""focus"",""trial"":1,""time"":288626},{""event"":""fullscreenenter"",""trial"":1,""time"":290653},{""event"":""blur"",""trial"":33,""time"":1037222},{""event"":""focus"",""trial"":33,""time"":1143059}]",NA,NA,NA,NA,NA,2,#D8271C,#741CD8,10,10,1,40,0,2946,39,0,627,10,0,experiment,NA,NA,2,0.5,0.5,4,5,35,1,NA
fcp-trial,69,1369550,0.0-44.0-0.0,voc_e2,12065,"[{""event"":""blur"",""trial"":0,""time"":0},{""event"":""focus"",""trial"":1,""time"":288626},{""event"":""focus"",""trial"":1,""time"":288626},{""event"":""fullscreenenter"",""trial"":1,""time"":290653},{""event"":""blur"",""trial"":33,""time"":1037222},{""event"":""focus"",""trial"":33,""time"":1143059}]",NA,NA,NA,NA,NA,1,#FA92F8,#1CD855,0,10,0,38,1,3079,39,0,259.99999999976717,10,1,experiment,NA,NA,0,0.1,0.9,1,0,36,1,NA
fcp-trial,70,1378797,0.0-45.0-0.0,voc_e2,12065,"[{""event"":""blur"",""trial"":0,""time"":0},{""event"":""focus"",""trial"":1,""time"":288626},{""event"":""focus"",""trial"":1,""time"":288626},{""event"":""fullscreenenter"",""trial"":1,""time"":290653},{""event"":""blur"",""trial"":33,""time"":1037222},{""event"":""focus"",""trial"":33,""time"":1143059}]",NA,NA,NA,NA,NA,4,#741CD8,#D8271C,0,10,0,40,0,7164,39,0,577,10,1,experiment,NA,NA,2,0.5,0.5,5,4,37,1,NA
fcp-trial,71,1383143,0.0-46.0-0.0,voc_e2,12065,"[{""event"":""blur"",""trial"":0,""time"":0},{""event"":""focus"",""trial"":1,""time"":288626},{""event"":""focus"",""trial"":1,""time"":288626},{""event"":""fullscreenenter"",""trial"":1,""time"":290653},{""event"":""blur"",""trial"":33,""time"":1037222},{""event"":""focus"",""trial"":33,""time"":1143059}]",NA,NA,NA,NA,NA,0,#FA92F8,#1CD855,0,10,0,38,1,2529,39,0,310,10,1,experiment,NA,NA,0,0.1,0.9,1,0,38,1,NA
fcp-trial,72,1392117,0.0-47.0-0.0,voc_e2,12065,"[{""event"":""blur"",""trial"":0,""time"":0},{""event"":""focus"",""trial"":1,""time"":288626},{""event"":""focus"",""trial"":1,""time"":288626},{""event"":""fullscreenenter"",""trial"":1,""time"":290653},{""event"":""blur"",""trial"":33,""time"":1037222},{""event"":""focus"",""trial"":33,""time"":1143059}]",NA,NA,NA,NA,NA,0,#D89F1C,#3386FF,0,0,1,38,1,7138,37,1,318.99999999976717,0,1,experiment,NA,NA,1,0.7,0.3,2,3,39,1,NA
fcp-trial,73,1396991,0.0-48.0-0.0,voc_e2,12065,"[{""event"":""blur"",""trial"":0,""time"":0},{""event"":""focus"",""trial"":1,""time"":288626},{""event"":""focus"",""trial"":1,""time"":288626},{""event"":""fullscreenenter"",""trial"":1,""time"":290653},{""event"":""blur"",""trial"":33,""time"":1037222},{""event"":""focus"",""trial"":33,""time"":1143059}]",NA,NA,NA,NA,NA,3,#1CD855,#FA92F8,0,0,1,38,1,2976,37,1,392.00000000023283,0,1,experiment,NA,NA,0,0.9,0.1,0,1,40,1,NA
fcp-trial,74,1408475,0.0-49.0-0.0,voc_e2,12065,"[{""event"":""blur"",""trial"":0,""time"":0},{""event"":""focus"",""trial"":1,""time"":288626},{""event"":""focus"",""trial"":1,""time"":288626},{""event"":""fullscreenenter"",""trial"":1,""time"":290653},{""event"":""blur"",""trial"":33,""time"":1037222},{""event"":""focus"",""trial"":33,""time"":1143059}]",NA,NA,NA,NA,NA,1,#D8271C,#741CD8,0,10,1,38,1,9612,37,1,365,0,1,experiment,NA,NA,2,0.5,0.5,4,5,41,1,NA
fcp-trial,75,1414564,0.0-50.0-0.0,voc_e2,12065,"[{""event"":""blur"",""trial"":0,""time"":0},{""event"":""focus"",""trial"":1,""time"":288626},{""event"":""focus"",""trial"":1,""time"":288626},{""event"":""fullscreenenter"",""trial"":1,""time"":290653},{""event"":""blur"",""trial"":33,""time"":1037222},{""event"":""focus"",""trial"":33,""time"":1143059}]",NA,NA,NA,NA,NA,6,#3386FF,#D89F1C,0,10,0,38,1,4222.000000000233,39,0,360.99999999976717,10,1,experiment,NA,NA,1,0.3,0.7,3,2,42,1,NA
fcp-trial,76,1418737,0.0-51.0-0.0,voc_e2,12065,"[{""event"":""blur"",""trial"":0,""time"":0},{""event"":""focus"",""trial"":1,""time"":288626},{""event"":""focus"",""trial"":1,""time"":288626},{""event"":""fullscreenenter"",""trial"":1,""time"":290653},{""event"":""blur"",""trial"":33,""time"":1037222},{""event"":""focus"",""trial"":33,""time"":1143059}]",NA,NA,NA,NA,NA,3,#1CD855,#FA92F8,10,0,1,38,1,2369,37,1,298,10,1,experiment,NA,NA,0,0.9,0.1,0,1,43,1,NA
fcp-trial,77,1424666,0.0-52.0-0.0,voc_e2,12065,"[{""event"":""blur"",""trial"":0,""time"":0},{""event"":""focus"",""trial"":1,""time"":288626},{""event"":""focus"",""trial"":1,""time"":288626},{""event"":""fullscreenenter"",""trial"":1,""time"":290653},{""event"":""blur"",""trial"":33,""time"":1037222},{""event"":""focus"",""trial"":33,""time"":1143059}]",NA,NA,NA,NA,NA,2,#D89F1C,#3386FF,10,0,1,38,1,4173,37,1,251,10,1,experiment,NA,NA,1,0.7,0.3,2,3,44,1,NA
fcp-trial,78,1431681,0.0-53.0-0.0,voc_e2,12065,"[{""event"":""blur"",""trial"":0,""time"":0},{""event"":""focus"",""trial"":1,""time"":288626},{""event"":""focus"",""trial"":1,""time"":288626},{""event"":""fullscreenenter"",""trial"":1,""time"":290653},{""event"":""blur"",""trial"":33,""time"":1037222},{""event"":""focus"",""trial"":33,""time"":1143059}]",NA,NA,NA,NA,NA,2,#741CD8,#D8271C,10,0,0,40,0,5027,39,0,482,0,1,experiment,NA,NA,2,0.5,0.5,5,4,45,1,NA
fcp-trial,79,1437056,0.0-54.0-0.0,voc_e2,12065,"[{""event"":""blur"",""trial"":0,""time"":0},{""event"":""focus"",""trial"":1,""time"":288626},{""event"":""focus"",""trial"":1,""time"":288626},{""event"":""fullscreenenter"",""trial"":1,""time"":290653},{""event"":""blur"",""trial"":33,""time"":1037222},{""event"":""focus"",""trial"":33,""time"":1143059}]",NA,NA,NA,NA,NA,2,#FA92F8,#1CD855,0,10,0,38,1,3603,39,0,265,10,1,experiment,NA,NA,0,0.1,0.9,1,0,46,2,NA
fcp-trial,80,1440590,0.0-55.0-0.0,voc_e2,12065,"[{""event"":""blur"",""trial"":0,""time"":0},{""event"":""focus"",""trial"":1,""time"":288626},{""event"":""focus"",""trial"":1,""time"":288626},{""event"":""fullscreenenter"",""trial"":1,""time"":290653},{""event"":""blur"",""trial"":33,""time"":1037222},{""event"":""focus"",""trial"":33,""time"":1143059}]",NA,NA,NA,NA,NA,0,#1CD855,#FA92F8,10,0,1,38,1,1638,37,1,391,10,1,experiment,NA,NA,0,0.9,0.1,0,1,47,2,NA
fcp-trial,81,1450531,0.0-56.0-0.0,voc_e2,12065,"[{""event"":""blur"",""trial"":0,""time"":0},{""event"":""focus"",""trial"":1,""time"":288626},{""event"":""focus"",""trial"":1,""time"":288626},{""event"":""fullscreenenter"",""trial"":1,""time"":290653},{""event"":""blur"",""trial"":33,""time"":1037222},{""event"":""focus"",""trial"":33,""time"":1143059}]",NA,NA,NA,NA,NA,4,#3386FF,#D89F1C,10,0,0,38,1,6893.000000000233,39,0,1541.9999999997672,0,1,experiment,NA,NA,1,0.3,0.7,3,2,48,2,NA
fcp-trial,82,1458171,0.0-57.0-0.0,voc_e2,12065,"[{""event"":""blur"",""trial"":0,""time"":0},{""event"":""focus"",""trial"":1,""time"":288626},{""event"":""focus"",""trial"":1,""time"":288626},{""event"":""fullscreenenter"",""trial"":1,""time"":290653},{""event"":""blur"",""trial"":33,""time"":1037222},{""event"":""focus"",""trial"":33,""time"":1143059}]",NA,NA,NA,NA,NA,1,#D8271C,#741CD8,10,10,1,40,0,5618,37,1,516,10,1,experiment,NA,NA,2,0.5,0.5,4,5,49,2,NA
fcp-trial,83,1463140,0.0-58.0-0.0,voc_e2,12065,"[{""event"":""blur"",""trial"":0,""time"":0},{""event"":""focus"",""trial"":1,""time"":288626},{""event"":""focus"",""trial"":1,""time"":288626},{""event"":""fullscreenenter"",""trial"":1,""time"":290653},{""event"":""blur"",""trial"":33,""time"":1037222},{""event"":""focus"",""trial"":33,""time"":1143059}]",NA,NA,NA,NA,NA,4,#FA92F8,#1CD855,0,10,0,38,1,3150,39,0,313,10,1,experiment,NA,NA,0,0.1,0.9,1,0,50,2,NA
fcp-trial,84,1478144,0.0-59.0-0.0,voc_e2,12065,"[{""event"":""blur"",""trial"":0,""time"":0},{""event"":""focus"",""trial"":1,""time"":288626},{""event"":""focus"",""trial"":1,""time"":288626},{""event"":""fullscreenenter"",""trial"":1,""time"":290653},{""event"":""blur"",""trial"":33,""time"":1037222},{""event"":""focus"",""trial"":33,""time"":1143059}]",NA,NA,NA,NA,NA,0,#D89F1C,#3386FF,10,0,1,null,null,null,null,null,null,NA,0,experiment,NA,NA,1,0.7,0.3,2,3,51,2,NA
fcp-trial,85,1484320,0.0-60.0-0.0,voc_e2,12065,"[{""event"":""blur"",""trial"":0,""time"":0},{""event"":""focus"",""trial"":1,""time"":288626},{""event"":""focus"",""trial"":1,""time"":288626},{""event"":""fullscreenenter"",""trial"":1,""time"":290653},{""event"":""blur"",""trial"":33,""time"":1037222},{""event"":""focus"",""trial"":33,""time"":1143059}]",NA,NA,NA,NA,NA,5,#741CD8,#D8271C,10,0,0,38,1,4347,39,0,323,0,1,experiment,NA,NA,2,0.5,0.5,5,4,52,2,NA
fcp-trial,86,1488198,0.0-61.0-0.0,voc_e2,12065,"[{""event"":""blur"",""trial"":0,""time"":0},{""event"":""focus"",""trial"":1,""time"":288626},{""event"":""focus"",""trial"":1,""time"":288626},{""event"":""fullscreenenter"",""trial"":1,""time"":290653},{""event"":""blur"",""trial"":33,""time"":1037222},{""event"":""focus"",""trial"":33,""time"":1143059}]",NA,NA,NA,NA,NA,1,#1CD855,#FA92F8,10,0,1,38,1,1707.9999999997672,37,1,666.0000000002328,10,1,experiment,NA,NA,0,0.9,0.1,0,1,53,2,NA
fcp-trial,87,1492248,0.0-62.0-0.0,voc_e2,12065,"[{""event"":""blur"",""trial"":0,""time"":0},{""event"":""focus"",""trial"":1,""time"":288626},{""event"":""focus"",""trial"":1,""time"":288626},{""event"":""fullscreenenter"",""trial"":1,""time"":290653},{""event"":""blur"",""trial"":33,""time"":1037222},{""event"":""focus"",""trial"":33,""time"":1143059}]",NA,NA,NA,NA,NA,4,#D8271C,#741CD8,0,0,1,40,0,1998,37,1,544,0,1,experiment,NA,NA,2,0.5,0.5,4,5,54,2,NA
fcp-trial,88,1496749,0.0-63.0-0.0,voc_e2,12065,"[{""event"":""blur"",""trial"":0,""time"":0},{""event"":""focus"",""trial"":1,""time"":288626},{""event"":""focus"",""trial"":1,""time"":288626},{""event"":""fullscreenenter"",""trial"":1,""time"":290653},{""event"":""blur"",""trial"":33,""time"":1037222},{""event"":""focus"",""trial"":33,""time"":1143059}]",NA,NA,NA,NA,NA,3,#D8271C,#741CD8,0,10,1,38,1,2679,39,0,318,10,0,experiment,NA,NA,2,0.5,0.5,4,5,55,2,NA
fcp-trial,89,1503686,0.0-64.0-0.0,voc_e2,12065,"[{""event"":""blur"",""trial"":0,""time"":0},{""event"":""focus"",""trial"":1,""time"":288626},{""event"":""focus"",""trial"":1,""time"":288626},{""event"":""fullscreenenter"",""trial"":1,""time"":290653},{""event"":""blur"",""trial"":33,""time"":1037222},{""event"":""focus"",""trial"":33,""time"":1143059}]",NA,NA,NA,NA,NA,1,#D89F1C,#3386FF,10,0,1,38,1,4793,37,1,636,10,1,experiment,NA,NA,1,0.7,0.3,2,3,56,2,NA
fcp-trial,90,1506939,0.0-65.0-0.0,voc_e2,12065,"[{""event"":""blur"",""trial"":0,""time"":0},{""event"":""focus"",""trial"":1,""time"":288626},{""event"":""focus"",""trial"":1,""time"":288626},{""event"":""fullscreenenter"",""trial"":1,""time"":290653},{""event"":""blur"",""trial"":33,""time"":1037222},{""event"":""focus"",""trial"":33,""time"":1143059}]",NA,NA,NA,NA,NA,5,#1CD855,#FA92F8,10,0,1,38,1,1317,37,1,430.00000000023283,10,1,experiment,NA,NA,0,0.9,0.1,0,1,57,2,NA
fcp-trial,91,1516559,0.0-66.0-0.0,voc_e2,12065,"[{""event"":""blur"",""trial"":0,""time"":0},{""event"":""focus"",""trial"":1,""time"":288626},{""event"":""focus"",""trial"":1,""time"":288626},{""event"":""fullscreenenter"",""trial"":1,""time"":290653},{""event"":""blur"",""trial"":33,""time"":1037222},{""event"":""focus"",""trial"":33,""time"":1143059}]",NA,NA,NA,NA,NA,6,#741CD8,#D8271C,10,10,0,38,1,6628,37,1,1485.9999999997672,10,0,experiment,NA,NA,2,0.5,0.5,5,4,58,2,NA
fcp-trial,92,1520109,0.0-67.0-0.0,voc_e2,12065,"[{""event"":""blur"",""trial"":0,""time"":0},{""event"":""focus"",""trial"":1,""time"":288626},{""event"":""focus"",""trial"":1,""time"":288626},{""event"":""fullscreenenter"",""trial"":1,""time"":290653},{""event"":""blur"",""trial"":33,""time"":1037222},{""event"":""focus"",""trial"":33,""time"":1143059}]",NA,NA,NA,NA,NA,6,#FA92F8,#1CD855,0,10,0,38,1,1768,39,0,275.99999999976717,10,1,experiment,NA,NA,0,0.1,0.9,1,0,59,2,NA
fcp-trial,93,1525920,0.0-68.0-0.0,voc_e2,12065,"[{""event"":""blur"",""trial"":0,""time"":0},{""event"":""focus"",""trial"":1,""time"":288626},{""event"":""focus"",""trial"":1,""time"":288626},{""event"":""fullscreenenter"",""trial"":1,""time"":290653},{""event"":""blur"",""trial"":33,""time"":1037222},{""event"":""focus"",""trial"":33,""time"":1143059}]",NA,NA,NA,NA,NA,0,#741CD8,#D8271C,10,0,0,38,1,4051,37,1,255,10,0,experiment,NA,NA,2,0.5,0.5,5,4,60,2,NA
fcp-trial,94,1530601,0.0-69.0-0.0,voc_e2,12065,"[{""event"":""blur"",""trial"":0,""time"":0},{""event"":""focus"",""trial"":1,""time"":288626},{""event"":""focus"",""trial"":1,""time"":288626},{""event"":""fullscreenenter"",""trial"":1,""time"":290653},{""event"":""blur"",""trial"":33,""time"":1037222},{""event"":""focus"",""trial"":33,""time"":1143059}]",NA,NA,NA,NA,NA,6,#D89F1C,#3386FF,10,0,1,40,0,2607,37,1,569.0000000002328,10,1,experiment,NA,NA,1,0.7,0.3,2,3,61,2,NA
fcp-trial,95,1535057,0.0-70.0-0.0,voc_e2,12065,"[{""event"":""blur"",""trial"":0,""time"":0},{""event"":""focus"",""trial"":1,""time"":288626},{""event"":""focus"",""trial"":1,""time"":288626},{""event"":""fullscreenenter"",""trial"":1,""time"":290653},{""event"":""blur"",""trial"":33,""time"":1037222},{""event"":""focus"",""trial"":33,""time"":1143059}]",NA,NA,NA,NA,NA,5,#D89F1C,#3386FF,10,0,1,38,1,2675,37,1,274,10,1,experiment,NA,NA,1,0.7,0.3,2,3,62,2,NA
fcp-trial,96,1540598,0.0-71.0-0.0,voc_e2,12065,"[{""event"":""blur"",""trial"":0,""time"":0},{""event"":""focus"",""trial"":1,""time"":288626},{""event"":""focus"",""trial"":1,""time"":288626},{""event"":""fullscreenenter"",""trial"":1,""time"":290653},{""event"":""blur"",""trial"":33,""time"":1037222},{""event"":""focus"",""trial"":33,""time"":1143059}]",NA,NA,NA,NA,NA,3,#3386FF,#D89F1C,0,10,0,40,0,3308,37,1,727,0,0,experiment,NA,NA,1,0.3,0.7,3,2,63,2,NA
fcp-trial,97,1545802,0.0-72.0-0.0,voc_e2,12065,"[{""event"":""blur"",""trial"":0,""time"":0},{""event"":""focus"",""trial"":1,""time"":288626},{""event"":""focus"",""trial"":1,""time"":288626},{""event"":""fullscreenenter"",""trial"":1,""time"":290653},{""event"":""blur"",""trial"":33,""time"":1037222},{""event"":""focus"",""trial"":33,""time"":1143059}]",NA,NA,NA,NA,NA,0,#1CD855,#FA92F8,10,0,1,38,1,3424,37,1,273,10,1,experiment,NA,NA,0,0.9,0.1,0,1,64,2,NA
fcp-trial,98,1550948,0.0-73.0-0.0,voc_e2,12065,"[{""event"":""blur"",""trial"":0,""time"":0},{""event"":""focus"",""trial"":1,""time"":288626},{""event"":""focus"",""trial"":1,""time"":288626},{""event"":""fullscreenenter"",""trial"":1,""time"":290653},{""event"":""blur"",""trial"":33,""time"":1037222},{""event"":""focus"",""trial"":33,""time"":1143059}]",NA,NA,NA,NA,NA,3,#D8271C,#741CD8,0,0,1,38,1,3024.000000000233,39,0,616,0,0,experiment,NA,NA,2,0.5,0.5,4,5,65,2,NA
fcp-trial,99,1555028,0.0-74.0-0.0,voc_e2,12065,"[{""event"":""blur"",""trial"":0,""time"":0},{""event"":""focus"",""trial"":1,""time"":288626},{""event"":""focus"",""trial"":1,""time"":288626},{""event"":""fullscreenenter"",""trial"":1,""time"":290653},{""event"":""blur"",""trial"":33,""time"":1037222},{""event"":""focus"",""trial"":33,""time"":1143059}]",NA,NA,NA,NA,NA,1,#D8271C,#741CD8,10,10,1,38,1,2147,39,0,426,10,0,experiment,NA,NA,2,0.5,0.5,4,5,66,2,NA
fcp-trial,100,1560675,0.0-75.0-0.0,voc_e2,12065,"[{""event"":""blur"",""trial"":0,""time"":0},{""event"":""focus"",""trial"":1,""time"":288626},{""event"":""focus"",""trial"":1,""time"":288626},{""event"":""fullscreenenter"",""trial"":1,""time"":290653},{""event"":""blur"",""trial"":33,""time"":1037222},{""event"":""focus"",""trial"":33,""time"":1143059}]",NA,NA,NA,NA,NA,5,#3386FF,#D89F1C,10,10,0,38,1,3525,39,0,608,10,1,experiment,NA,NA,1,0.3,0.7,3,2,67,2,NA
fcp-trial,101,1564283,0.0-76.0-0.0,voc_e2,12065,"[{""event"":""blur"",""trial"":0,""time"":0},{""event"":""focus"",""trial"":1,""time"":288626},{""event"":""focus"",""trial"":1,""time"":288626},{""event"":""fullscreenenter"",""trial"":1,""time"":290653},{""event"":""blur"",""trial"":33,""time"":1037222},{""event"":""focus"",""trial"":33,""time"":1143059}]",NA,NA,NA,NA,NA,4,#1CD855,#FA92F8,10,0,1,38,1,1785.0000000002328,37,1,317.00000000023283,10,1,experiment,NA,NA,0,0.9,0.1,0,1,68,2,NA
fcp-trial,102,1568817,0.0-77.0-0.0,voc_e2,12065,"[{""event"":""blur"",""trial"":0,""time"":0},{""event"":""focus"",""trial"":1,""time"":288626},{""event"":""focus"",""trial"":1,""time"":288626},{""event"":""fullscreenenter"",""trial"":1,""time"":290653},{""event"":""blur"",""trial"":33,""time"":1037222},{""event"":""focus"",""trial"":33,""time"":1143059}]",NA,NA,NA,NA,NA,2,#D89F1C,#3386FF,0,0,1,38,1,2759,37,1,267,0,1,experiment,NA,NA,1,0.7,0.3,2,3,69,2,NA
fcp-trial,103,1573038,0.0-78.0-0.0,voc_e2,12065,"[{""event"":""blur"",""trial"":0,""time"":0},{""event"":""focus"",""trial"":1,""time"":288626},{""event"":""focus"",""trial"":1,""time"":288626},{""event"":""fullscreenenter"",""trial"":1,""time"":290653},{""event"":""blur"",""trial"":33,""time"":1037222},{""event"":""focus"",""trial"":33,""time"":1143059}]",NA,NA,NA,NA,NA,0,#D89F1C,#3386FF,10,0,1,38,1,2436,37,1,276,10,1,experiment,NA,NA,1,0.7,0.3,2,3,70,2,NA
fcp-trial,104,1580033,0.0-79.0-0.0,voc_e2,12065,"[{""event"":""blur"",""trial"":0,""time"":0},{""event"":""focus"",""trial"":1,""time"":288626},{""event"":""focus"",""trial"":1,""time"":288626},{""event"":""fullscreenenter"",""trial"":1,""time"":290653},{""event"":""blur"",""trial"":33,""time"":1037222},{""event"":""focus"",""trial"":33,""time"":1143059}]",NA,NA,NA,NA,NA,5,#741CD8,#D8271C,0,10,0,40,0,4956,39,0,532.0000000002328,10,1,experiment,NA,NA,2,0.5,0.5,5,4,71,2,NA
fcp-trial,105,1584265,0.0-80.0-0.0,voc_e2,12065,"[{""event"":""blur"",""trial"":0,""time"":0},{""event"":""focus"",""trial"":1,""time"":288626},{""event"":""focus"",""trial"":1,""time"":288626},{""event"":""fullscreenenter"",""trial"":1,""time"":290653},{""event"":""blur"",""trial"":33,""time"":1037222},{""event"":""focus"",""trial"":33,""time"":1143059}]",NA,NA,NA,NA,NA,5,#FA92F8,#1CD855,0,10,0,38,1,2458,39,0,267,10,1,experiment,NA,NA,0,0.1,0.9,1,0,72,2,NA
fcp-trial,106,1589049,0.0-81.0-0.0,voc_e2,12065,"[{""event"":""blur"",""trial"":0,""time"":0},{""event"":""focus"",""trial"":1,""time"":288626},{""event"":""focus"",""trial"":1,""time"":288626},{""event"":""fullscreenenter"",""trial"":1,""time"":290653},{""event"":""blur"",""trial"":33,""time"":1037222},{""event"":""focus"",""trial"":33,""time"":1143059}]",NA,NA,NA,NA,NA,6,#FA92F8,#1CD855,0,10,0,38,1,2946,39,0,333,10,1,experiment,NA,NA,0,0.1,0.9,1,0,73,2,NA
fcp-trial,107,1595499,0.0-82.0-0.0,voc_e2,12065,"[{""event"":""blur"",""trial"":0,""time"":0},{""event"":""focus"",""trial"":1,""time"":288626},{""event"":""focus"",""trial"":1,""time"":288626},{""event"":""fullscreenenter"",""trial"":1,""time"":290653},{""event"":""blur"",""trial"":33,""time"":1037222},{""event"":""focus"",""trial"":33,""time"":1143059}]",NA,NA,NA,NA,NA,1,#D89F1C,#3386FF,10,0,1,38,1,4664,37,1,282,10,1,experiment,NA,NA,1,0.7,0.3,2,3,74,2,NA
fcp-trial,108,1599227,0.0-83.0-0.0,voc_e2,12065,"[{""event"":""blur"",""trial"":0,""time"":0},{""event"":""focus"",""trial"":1,""time"":288626},{""event"":""focus"",""trial"":1,""time"":288626},{""event"":""fullscreenenter"",""trial"":1,""time"":290653},{""event"":""blur"",""trial"":33,""time"":1037222},{""event"":""focus"",""trial"":33,""time"":1143059}]",NA,NA,NA,NA,NA,3,#3386FF,#D89F1C,10,10,0,38,1,1855,39,0,364,10,1,experiment,NA,NA,1,0.3,0.7,3,2,75,2,NA
fcp-trial,109,1604654,0.0-84.0-0.0,voc_e2,12065,"[{""event"":""blur"",""trial"":0,""time"":0},{""event"":""focus"",""trial"":1,""time"":288626},{""event"":""focus"",""trial"":1,""time"":288626},{""event"":""fullscreenenter"",""trial"":1,""time"":290653},{""event"":""blur"",""trial"":33,""time"":1037222},{""event"":""focus"",""trial"":33,""time"":1143059}]",NA,NA,NA,NA,NA,2,#D8271C,#741CD8,10,10,1,38,1,3589,39,0,332,10,0,experiment,NA,NA,2,0.5,0.5,4,5,76,2,NA
fcp-trial,110,1609775,0.0-85.0-0.0,voc_e2,12065,"[{""event"":""blur"",""trial"":0,""time"":0},{""event"":""focus"",""trial"":1,""time"":288626},{""event"":""focus"",""trial"":1,""time"":288626},{""event"":""fullscreenenter"",""trial"":1,""time"":290653},{""event"":""blur"",""trial"":33,""time"":1037222},{""event"":""focus"",""trial"":33,""time"":1143059}]",NA,NA,NA,NA,NA,2,#FA92F8,#1CD855,0,10,0,38,1,2959.000000000233,39,0,655.9999999997672,10,1,experiment,NA,NA,0,0.1,0.9,1,0,77,2,NA
fcp-trial,111,1615618,0.0-86.0-0.0,voc_e2,12065,"[{""event"":""blur"",""trial"":0,""time"":0},{""event"":""focus"",""trial"":1,""time"":288626},{""event"":""focus"",""trial"":1,""time"":288626},{""event"":""fullscreenenter"",""trial"":1,""time"":290653},{""event"":""blur"",""trial"":33,""time"":1037222},{""event"":""focus"",""trial"":33,""time"":1143059}]",NA,NA,NA,NA,NA,6,#3386FF,#D89F1C,0,0,0,40,0,3706,37,1,631.0000000002328,0,0,experiment,NA,NA,1,0.3,0.7,3,2,78,2,NA
fcp-trial,112,1620581,0.0-87.0-0.0,voc_e2,12065,"[{""event"":""blur"",""trial"":0,""time"":0},{""event"":""focus"",""trial"":1,""time"":288626},{""event"":""focus"",""trial"":1,""time"":288626},{""event"":""fullscreenenter"",""trial"":1,""time"":290653},{""event"":""blur"",""trial"":33,""time"":1037222},{""event"":""focus"",""trial"":33,""time"":1143059}]",NA,NA,NA,NA,NA,1,#1CD855,#FA92F8,10,0,1,40,0,1895,39,0,1562,0,0,experiment,NA,NA,0,0.9,0.1,0,1,79,2,NA
fcp-trial,113,1626119,0.0-88.0-0.0,voc_e2,12065,"[{""event"":""blur"",""trial"":0,""time"":0},{""event"":""focus"",""trial"":1,""time"":288626},{""event"":""focus"",""trial"":1,""time"":288626},{""event"":""fullscreenenter"",""trial"":1,""time"":290653},{""event"":""blur"",""trial"":33,""time"":1037222},{""event"":""focus"",""trial"":33,""time"":1143059}]",NA,NA,NA,NA,NA,0,#D8271C,#741CD8,0,10,1,38,1,3483.000000000233,39,0,549.9999999997672,10,0,experiment,NA,NA,2,0.5,0.5,4,5,80,2,NA
fcp-trial,114,1630391,0.0-89.0-0.0,voc_e2,12065,"[{""event"":""blur"",""trial"":0,""time"":0},{""event"":""focus"",""trial"":1,""time"":288626},{""event"":""focus"",""trial"":1,""time"":288626},{""event"":""fullscreenenter"",""trial"":1,""time"":290653},{""event"":""blur"",""trial"":33,""time"":1037222},{""event"":""focus"",""trial"":33,""time"":1143059}]",NA,NA,NA,NA,NA,4,#3386FF,#D89F1C,0,0,0,38,1,2402,39,0,364,0,1,experiment,NA,NA,1,0.3,0.7,3,2,81,2,NA
fcp-trial,115,1636539,0.0-90.0-0.0,voc_e2,12065,"[{""event"":""blur"",""trial"":0,""time"":0},{""event"":""focus"",""trial"":1,""time"":288626},{""event"":""focus"",""trial"":1,""time"":288626},{""event"":""fullscreenenter"",""trial"":1,""time"":290653},{""event"":""blur"",""trial"":33,""time"":1037222},{""event"":""focus"",""trial"":33,""time"":1143059}]",NA,NA,NA,NA,NA,3,#FA92F8,#1CD855,10,10,0,38,1,4309.000000000233,39,0,333.99999999976717,10,1,experiment,NA,NA,0,0.1,0.9,1,0,82,2,NA
fcp-trial,116,1640290,0.0-91.0-0.0,voc_e2,12065,"[{""event"":""blur"",""trial"":0,""time"":0},{""event"":""focus"",""trial"":1,""time"":288626},{""event"":""focus"",""trial"":1,""time"":288626},{""event"":""fullscreenenter"",""trial"":1,""time"":290653},{""event"":""blur"",""trial"":33,""time"":1037222},{""event"":""focus"",""trial"":33,""time"":1143059}]",NA,NA,NA,NA,NA,4,#741CD8,#D8271C,0,10,0,38,1,1890.0000000002328,37,1,354,0,0,experiment,NA,NA,2,0.5,0.5,5,4,83,2,NA
fcp-trial,117,1645129,0.0-92.0-0.0,voc_e2,12065,"[{""event"":""blur"",""trial"":0,""time"":0},{""event"":""focus"",""trial"":1,""time"":288626},{""event"":""focus"",""trial"":1,""time"":288626},{""event"":""fullscreenenter"",""trial"":1,""time"":290653},{""event"":""blur"",""trial"":33,""time"":1037222},{""event"":""focus"",""trial"":33,""time"":1143059}]",NA,NA,NA,NA,NA,6,#D8271C,#741CD8,0,0,1,40,0,2705.000000000233,39,0,625.9999999997672,0,0,experiment,NA,NA,2,0.5,0.5,4,5,84,2,NA
fcp-trial,118,1651772,0.0-93.0-0.0,voc_e2,12065,"[{""event"":""blur"",""trial"":0,""time"":0},{""event"":""focus"",""trial"":1,""time"":288626},{""event"":""focus"",""trial"":1,""time"":288626},{""event"":""fullscreenenter"",""trial"":1,""time"":290653},{""event"":""blur"",""trial"":33,""time"":1037222},{""event"":""focus"",""trial"":33,""time"":1143059}]",NA,NA,NA,NA,NA,5,#1CD855,#FA92F8,10,0,1,38,1,4676,37,1,448,10,1,experiment,NA,NA,0,0.9,0.1,0,1,85,2,NA
fcp-trial,119,1655769,0.0-94.0-0.0,voc_e2,12065,"[{""event"":""blur"",""trial"":0,""time"":0},{""event"":""focus"",""trial"":1,""time"":288626},{""event"":""focus"",""trial"":1,""time"":288626},{""event"":""fullscreenenter"",""trial"":1,""time"":290653},{""event"":""blur"",""trial"":33,""time"":1037222},{""event"":""focus"",""trial"":33,""time"":1143059}]",NA,NA,NA,NA,NA,3,#D8271C,#741CD8,10,10,1,38,1,2190.999999999767,39,0,295.99999999976717,10,0,experiment,NA,NA,2,0.5,0.5,4,5,86,2,NA
fcp-trial,120,1661972,0.0-95.0-0.0,voc_e2,12065,"[{""event"":""blur"",""trial"":0,""time"":0},{""event"":""focus"",""trial"":1,""time"":288626},{""event"":""focus"",""trial"":1,""time"":288626},{""event"":""fullscreenenter"",""trial"":1,""time"":290653},{""event"":""blur"",""trial"":33,""time"":1037222},{""event"":""focus"",""trial"":33,""time"":1143059}]",NA,NA,NA,NA,NA,0,#D89F1C,#3386FF,10,0,1,38,1,4427.999999999767,37,1,263,10,1,experiment,NA,NA,1,0.7,0.3,2,3,87,2,NA
fcp-trial,121,1665352,0.0-96.0-0.0,voc_e2,12065,"[{""event"":""blur"",""trial"":0,""time"":0},{""event"":""focus"",""trial"":1,""time"":288626},{""event"":""focus"",""trial"":1,""time"":288626},{""event"":""fullscreenenter"",""trial"":1,""time"":290653},{""event"":""blur"",""trial"":33,""time"":1037222},{""event"":""focus"",""trial"":33,""time"":1143059}]",NA,NA,NA,NA,NA,6,#D89F1C,#3386FF,10,10,1,38,1,1605,37,1,265,10,1,experiment,NA,NA,1,0.7,0.3,2,3,88,2,NA
fcp-trial,122,1669068,0.0-97.0-0.0,voc_e2,12065,"[{""event"":""blur"",""trial"":0,""time"":0},{""event"":""focus"",""trial"":1,""time"":288626},{""event"":""focus"",""trial"":1,""time"":288626},{""event"":""fullscreenenter"",""trial"":1,""time"":290653},{""event"":""blur"",""trial"":33,""time"":1037222},{""event"":""focus"",""trial"":33,""time"":1143059}]",NA,NA,NA,NA,NA,0,#FA92F8,#1CD855,0,10,0,38,1,1565,39,0,640.0000000002328,10,1,experiment,NA,NA,0,0.1,0.9,1,0,89,2,NA
fcp-trial,123,1676594,0.0-98.0-0.0,voc_e2,12065,"[{""event"":""blur"",""trial"":0,""time"":0},{""event"":""focus"",""trial"":1,""time"":288626},{""event"":""focus"",""trial"":1,""time"":288626},{""event"":""fullscreenenter"",""trial"":1,""time"":290653},{""event"":""blur"",""trial"":33,""time"":1037222},{""event"":""focus"",""trial"":33,""time"":1143059}]",NA,NA,NA,NA,NA,4,#741CD8,#D8271C,0,0,0,38,1,5410.999999999767,37,1,604,0,0,experiment,NA,NA,2,0.5,0.5,5,4,90,2,NA
fcp-trial,124,1681573,0.0-99.0-0.0,voc_e2,12065,"[{""event"":""blur"",""trial"":0,""time"":0},{""event"":""focus"",""trial"":1,""time"":288626},{""event"":""focus"",""trial"":1,""time"":288626},{""event"":""fullscreenenter"",""trial"":1,""time"":290653},{""event"":""blur"",""trial"":33,""time"":1037222},{""event"":""focus"",""trial"":33,""time"":1143059}]",NA,NA,NA,NA,NA,6,#D8271C,#741CD8,0,0,1,40,0,2859,39,0,593,0,0,experiment,NA,NA,2,0.5,0.5,4,5,91,3,NA
fcp-trial,125,1685659,0.0-100.0-0.0,voc_e2,12065,"[{""event"":""blur"",""trial"":0,""time"":0},{""event"":""focus"",""trial"":1,""time"":288626},{""event"":""focus"",""trial"":1,""time"":288626},{""event"":""fullscreenenter"",""trial"":1,""time"":290653},{""event"":""blur"",""trial"":33,""time"":1037222},{""event"":""focus"",""trial"":33,""time"":1143059}]",NA,NA,NA,NA,NA,1,#741CD8,#D8271C,10,10,0,38,1,1889,37,1,689,10,0,experiment,NA,NA,2,0.5,0.5,5,4,92,3,NA
fcp-trial,126,1691120,0.0-101.0-0.0,voc_e2,12065,"[{""event"":""blur"",""trial"":0,""time"":0},{""event"":""focus"",""trial"":1,""time"":288626},{""event"":""focus"",""trial"":1,""time"":288626},{""event"":""fullscreenenter"",""trial"":1,""time"":290653},{""event"":""blur"",""trial"":33,""time"":1037222},{""event"":""focus"",""trial"":33,""time"":1143059}]",NA,NA,NA,NA,NA,1,#3386FF,#D89F1C,10,10,0,38,1,3404,39,0,549,10,1,experiment,NA,NA,1,0.3,0.7,3,2,93,3,NA
fcp-trial,127,1694588,0.0-102.0-0.0,voc_e2,12065,"[{""event"":""blur"",""trial"":0,""time"":0},{""event"":""focus"",""trial"":1,""time"":288626},{""event"":""focus"",""trial"":1,""time"":288626},{""event"":""fullscreenenter"",""trial"":1,""time"":290653},{""event"":""blur"",""trial"":33,""time"":1037222},{""event"":""focus"",""trial"":33,""time"":1143059}]",NA,NA,NA,NA,NA,4,#1CD855,#FA92F8,10,0,1,38,1,1480,37,1,476,10,1,experiment,NA,NA,0,0.9,0.1,0,1,94,3,NA
fcp-trial,128,1698935,0.0-103.0-0.0,voc_e2,12065,"[{""event"":""blur"",""trial"":0,""time"":0},{""event"":""focus"",""trial"":1,""time"":288626},{""event"":""focus"",""trial"":1,""time"":288626},{""event"":""fullscreenenter"",""trial"":1,""time"":290653},{""event"":""blur"",""trial"":33,""time"":1037222},{""event"":""focus"",""trial"":33,""time"":1143059}]",NA,NA,NA,NA,NA,5,#D8271C,#741CD8,10,10,1,38,1,2289.999999999767,39,0,549,10,0,experiment,NA,NA,2,0.5,0.5,4,5,95,3,NA
fcp-trial,129,1701636,0.0-104.0-0.0,voc_e2,12065,"[{""event"":""blur"",""trial"":0,""time"":0},{""event"":""focus"",""trial"":1,""time"":288626},{""event"":""focus"",""trial"":1,""time"":288626},{""event"":""fullscreenenter"",""trial"":1,""time"":290653},{""event"":""blur"",""trial"":33,""time"":1037222},{""event"":""focus"",""trial"":33,""time"":1143059}]",NA,NA,NA,NA,NA,6,#1CD855,#FA92F8,10,0,1,38,1,896,37,1,295,10,1,experiment,NA,NA,0,0.9,0.1,0,1,96,3,NA
fcp-trial,130,1704355,0.0-105.0-0.0,voc_e2,12065,"[{""event"":""blur"",""trial"":0,""time"":0},{""event"":""focus"",""trial"":1,""time"":288626},{""event"":""focus"",""trial"":1,""time"":288626},{""event"":""fullscreenenter"",""trial"":1,""time"":290653},{""event"":""blur"",""trial"":33,""time"":1037222},{""event"":""focus"",""trial"":33,""time"":1143059}]",NA,NA,NA,NA,NA,3,#1CD855,#FA92F8,10,0,1,38,1,925,37,1,284.00000000023283,10,1,experiment,NA,NA,0,0.9,0.1,0,1,97,3,NA
fcp-trial,131,1708607,0.0-106.0-0.0,voc_e2,12065,"[{""event"":""blur"",""trial"":0,""time"":0},{""event"":""focus"",""trial"":1,""time"":288626},{""event"":""focus"",""trial"":1,""time"":288626},{""event"":""fullscreenenter"",""trial"":1,""time"":290653},{""event"":""blur"",""trial"":33,""time"":1037222},{""event"":""focus"",""trial"":33,""time"":1143059}]",NA,NA,NA,NA,NA,2,#3386FF,#D89F1C,0,10,0,38,1,2441,39,0,300.00000000023283,10,1,experiment,NA,NA,1,0.3,0.7,3,2,98,3,NA
fcp-trial,132,1712574,0.0-107.0-0.0,voc_e2,12065,"[{""event"":""blur"",""trial"":0,""time"":0},{""event"":""focus"",""trial"":1,""time"":288626},{""event"":""focus"",""trial"":1,""time"":288626},{""event"":""fullscreenenter"",""trial"":1,""time"":290653},{""event"":""blur"",""trial"":33,""time"":1037222},{""event"":""focus"",""trial"":33,""time"":1143059}]",NA,NA,NA,NA,NA,3,#D89F1C,#3386FF,10,10,1,38,1,1172.0000000002328,37,1,1285.9999999997672,10,1,experiment,NA,NA,1,0.7,0.3,2,3,99,3,NA
fcp-trial,133,1716519,0.0-108.0-0.0,voc_e2,12065,"[{""event"":""blur"",""trial"":0,""time"":0},{""event"":""focus"",""trial"":1,""time"":288626},{""event"":""focus"",""trial"":1,""time"":288626},{""event"":""fullscreenenter"",""trial"":1,""time"":290653},{""event"":""blur"",""trial"":33,""time"":1037222},{""event"":""focus"",""trial"":33,""time"":1143059}]",NA,NA,NA,NA,NA,0,#D8271C,#741CD8,0,0,1,38,1,2123,39,0,314,0,0,experiment,NA,NA,2,0.5,0.5,4,5,100,3,NA
fcp-trial,134,1719654,0.0-109.0-0.0,voc_e2,12065,"[{""event"":""blur"",""trial"":0,""time"":0},{""event"":""focus"",""trial"":1,""time"":288626},{""event"":""focus"",""trial"":1,""time"":288626},{""event"":""fullscreenenter"",""trial"":1,""time"":290653},{""event"":""blur"",""trial"":33,""time"":1037222},{""event"":""focus"",""trial"":33,""time"":1143059}]",NA,NA,NA,NA,NA,4,#3386FF,#D89F1C,10,10,0,38,1,808.9999999997672,39,0,815.0000000002328,10,1,experiment,NA,NA,1,0.3,0.7,3,2,101,3,NA
fcp-trial,135,1722344,0.0-110.0-0.0,voc_e2,12065,"[{""event"":""blur"",""trial"":0,""time"":0},{""event"":""focus"",""trial"":1,""time"":288626},{""event"":""focus"",""trial"":1,""time"":288626},{""event"":""fullscreenenter"",""trial"":1,""time"":290653},{""event"":""blur"",""trial"":33,""time"":1037222},{""event"":""focus"",""trial"":33,""time"":1143059}]",NA,NA,NA,NA,NA,1,#FA92F8,#1CD855,0,10,0,38,1,918,39,0,257.99999999976717,10,1,experiment,NA,NA,0,0.1,0.9,1,0,102,3,NA
fcp-trial,136,1727936,0.0-111.0-0.0,voc_e2,12065,"[{""event"":""blur"",""trial"":0,""time"":0},{""event"":""focus"",""trial"":1,""time"":288626},{""event"":""focus"",""trial"":1,""time"":288626},{""event"":""fullscreenenter"",""trial"":1,""time"":290653},{""event"":""blur"",""trial"":33,""time"":1037222},{""event"":""focus"",""trial"":33,""time"":1143059}]",NA,NA,NA,NA,NA,2,#D8271C,#741CD8,10,10,1,38,1,3198,39,0,877,10,0,experiment,NA,NA,2,0.5,0.5,4,5,103,3,NA
fcp-trial,137,1732860,0.0-112.0-0.0,voc_e2,12065,"[{""event"":""blur"",""trial"":0,""time"":0},{""event"":""focus"",""trial"":1,""time"":288626},{""event"":""focus"",""trial"":1,""time"":288626},{""event"":""fullscreenenter"",""trial"":1,""time"":290653},{""event"":""blur"",""trial"":33,""time"":1037222},{""event"":""focus"",""trial"":33,""time"":1143059}]",NA,NA,NA,NA,NA,5,#3386FF,#D89F1C,0,10,0,38,1,2656,39,0,756,10,1,experiment,NA,NA,1,0.3,0.7,3,2,104,3,NA
fcp-trial,138,1735637,0.0-113.0-0.0,voc_e2,12065,"[{""event"":""blur"",""trial"":0,""time"":0},{""event"":""focus"",""trial"":1,""time"":288626},{""event"":""focus"",""trial"":1,""time"":288626},{""event"":""fullscreenenter"",""trial"":1,""time"":290653},{""event"":""blur"",""trial"":33,""time"":1037222},{""event"":""focus"",""trial"":33,""time"":1143059}]",NA,NA,NA,NA,NA,2,#FA92F8,#1CD855,0,10,0,38,1,895,39,0,359.99999999976717,10,1,experiment,NA,NA,0,0.1,0.9,1,0,105,3,NA
audio-instructions,139,2040847,0.0-114.0,voc_e2,12065,"[{""event"":""blur"",""trial"":0,""time"":0},{""event"":""focus"",""trial"":1,""time"":288626},{""event"":""focus"",""trial"":1,""time"":288626},{""event"":""fullscreenenter"",""trial"":1,""time"":290653},{""event"":""blur"",""trial"":33,""time"":1037222},{""event"":""focus"",""trial"":33,""time"":1143059},{""event"":""blur"",""trial"":139,""time"":2034389},{""event"":""focus"",""trial"":139,""time"":2039320}]",NA,300794,static/audio/pause.wav,NA,0,NA,NA,NA,NA,NA,NA,NA,NA,NA,NA,NA,NA,NA,NA,NA,NA,NA,NA,NA,NA,NA,NA,NA,NA,NA
fcp-trial,140,2045666,0.0-115.0-0.0,voc_e2,12065,"[{""event"":""blur"",""trial"":0,""time"":0},{""event"":""focus"",""trial"":1,""time"":288626},{""event"":""focus"",""trial"":1,""time"":288626},{""event"":""fullscreenenter"",""trial"":1,""time"":290653},{""event"":""blur"",""trial"":33,""time"":1037222},{""event"":""focus"",""trial"":33,""time"":1143059},{""event"":""blur"",""trial"":139,""time"":2034389},{""event"":""focus"",""trial"":139,""time"":2039320}]",NA,NA,NA,NA,NA,2,#741CD8,#D8271C,10,0,0,38,1,2764.000000000233,37,1,549,10,0,experiment,NA,NA,2,0.5,0.5,5,4,106,3,NA
fcp-trial,141,2048152,0.0-116.0-0.0,voc_e2,12065,"[{""event"":""blur"",""trial"":0,""time"":0},{""event"":""focus"",""trial"":1,""time"":288626},{""event"":""focus"",""trial"":1,""time"":288626},{""event"":""fullscreenenter"",""trial"":1,""time"":290653},{""event"":""blur"",""trial"":33,""time"":1037222},{""event"":""focus"",""trial"":33,""time"":1143059},{""event"":""blur"",""trial"":139,""time"":2034389},{""event"":""focus"",""trial"":139,""time"":2039320}]",NA,NA,NA,NA,NA,5,#FA92F8,#1CD855,0,0,0,38,1,706.9999999997672,39,0,268.99999999976717,0,1,experiment,NA,NA,0,0.1,0.9,1,0,107,3,NA
fcp-trial,142,2052413,0.0-117.0-0.0,voc_e2,12065,"[{""event"":""blur"",""trial"":0,""time"":0},{""event"":""focus"",""trial"":1,""time"":288626},{""event"":""focus"",""trial"":1,""time"":288626},{""event"":""fullscreenenter"",""trial"":1,""time"":290653},{""event"":""blur"",""trial"":33,""time"":1037222},{""event"":""focus"",""trial"":33,""time"":1143059},{""event"":""blur"",""trial"":139,""time"":2034389},{""event"":""focus"",""trial"":139,""time"":2039320}]",NA,NA,NA,NA,NA,0,#D89F1C,#3386FF,0,0,1,38,1,2239.999999999767,37,1,514.0000000002328,0,1,experiment,NA,NA,1,0.7,0.3,2,3,108,3,NA
fcp-trial,143,2054900,0.0-118.0-0.0,voc_e2,12065,"[{""event"":""blur"",""trial"":0,""time"":0},{""event"":""focus"",""trial"":1,""time"":288626},{""event"":""focus"",""trial"":1,""time"":288626},{""event"":""fullscreenenter"",""trial"":1,""time"":290653},{""event"":""blur"",""trial"":33,""time"":1037222},{""event"":""focus"",""trial"":33,""time"":1143059},{""event"":""blur"",""trial"":139,""time"":2034389},{""event"":""focus"",""trial"":139,""time"":2039320}]",NA,NA,NA,NA,NA,3,#FA92F8,#1CD855,0,10,0,38,1,705,39,0,273,10,1,experiment,NA,NA,0,0.1,0.9,1,0,109,3,NA
fcp-trial,144,2058292,0.0-119.0-0.0,voc_e2,12065,"[{""event"":""blur"",""trial"":0,""time"":0},{""event"":""focus"",""trial"":1,""time"":288626},{""event"":""focus"",""trial"":1,""time"":288626},{""event"":""fullscreenenter"",""trial"":1,""time"":290653},{""event"":""blur"",""trial"":33,""time"":1037222},{""event"":""focus"",""trial"":33,""time"":1143059},{""event"":""blur"",""trial"":139,""time"":2034389},{""event"":""focus"",""trial"":139,""time"":2039320}]",NA,NA,NA,NA,NA,2,#D89F1C,#3386FF,0,0,1,38,1,913,37,1,971.9999999997672,0,1,experiment,NA,NA,1,0.7,0.3,2,3,110,3,NA
fcp-trial,145,2063680,0.0-120.0-0.0,voc_e2,12065,"[{""event"":""blur"",""trial"":0,""time"":0},{""event"":""focus"",""trial"":1,""time"":288626},{""event"":""focus"",""trial"":1,""time"":288626},{""event"":""fullscreenenter"",""trial"":1,""time"":290653},{""event"":""blur"",""trial"":33,""time"":1037222},{""event"":""focus"",""trial"":33,""time"":1143059},{""event"":""blur"",""trial"":139,""time"":2034389},{""event"":""focus"",""trial"":139,""time"":2039320}]",NA,NA,NA,NA,NA,0,#741CD8,#D8271C,0,0,0,38,1,980,37,1,2891,0,0,experiment,NA,NA,2,0.5,0.5,5,4,111,3,NA
fcp-trial,146,2066788,0.0-121.0-0.0,voc_e2,12065,"[{""event"":""blur"",""trial"":0,""time"":0},{""event"":""focus"",""trial"":1,""time"":288626},{""event"":""focus"",""trial"":1,""time"":288626},{""event"":""fullscreenenter"",""trial"":1,""time"":290653},{""event"":""blur"",""trial"":33,""time"":1037222},{""event"":""focus"",""trial"":33,""time"":1143059},{""event"":""blur"",""trial"":139,""time"":2034389},{""event"":""focus"",""trial"":139,""time"":2039320}]",NA,NA,NA,NA,NA,5,#741CD8,#D8271C,10,10,0,40,0,1026,39,0,572.9999999997672,10,1,experiment,NA,NA,2,0.5,0.5,5,4,112,3,NA
fcp-trial,147,2072000,0.0-122.0-0.0,voc_e2,12065,"[{""event"":""blur"",""trial"":0,""time"":0},{""event"":""focus"",""trial"":1,""time"":288626},{""event"":""focus"",""trial"":1,""time"":288626},{""event"":""fullscreenenter"",""trial"":1,""time"":290653},{""event"":""blur"",""trial"":33,""time"":1037222},{""event"":""focus"",""trial"":33,""time"":1143059},{""event"":""blur"",""trial"":139,""time"":2034389},{""event"":""focus"",""trial"":139,""time"":2039320}]",NA,NA,NA,NA,NA,4,#D89F1C,#3386FF,10,0,1,38,1,3279,37,1,414.00000000023283,10,1,experiment,NA,NA,1,0.7,0.3,2,3,113,3,NA
fcp-trial,148,2075070,0.0-123.0-0.0,voc_e2,12065,"[{""event"":""blur"",""trial"":0,""time"":0},{""event"":""focus"",""trial"":1,""time"":288626},{""event"":""focus"",""trial"":1,""time"":288626},{""event"":""fullscreenenter"",""trial"":1,""time"":290653},{""event"":""blur"",""trial"":33,""time"":1037222},{""event"":""focus"",""trial"":33,""time"":1143059},{""event"":""blur"",""trial"":139,""time"":2034389},{""event"":""focus"",""trial"":139,""time"":2039320}]",NA,NA,NA,NA,NA,4,#1CD855,#FA92F8,10,0,1,38,1,941.0000000002328,37,1,620,10,1,experiment,NA,NA,0,0.9,0.1,0,1,114,3,NA
fcp-trial,149,2077493,0.0-124.0-0.0,voc_e2,12065,"[{""event"":""blur"",""trial"":0,""time"":0},{""event"":""focus"",""trial"":1,""time"":288626},{""event"":""focus"",""trial"":1,""time"":288626},{""event"":""fullscreenenter"",""trial"":1,""time"":290653},{""event"":""blur"",""trial"":33,""time"":1037222},{""event"":""focus"",""trial"":33,""time"":1143059},{""event"":""blur"",""trial"":139,""time"":2034389},{""event"":""focus"",""trial"":139,""time"":2039320}]",NA,NA,NA,NA,NA,0,#1CD855,#FA92F8,10,0,1,38,1,585,37,1,328,10,1,experiment,NA,NA,0,0.9,0.1,0,1,115,3,NA
fcp-trial,150,2082263,0.0-125.0-0.0,voc_e2,12065,"[{""event"":""blur"",""trial"":0,""time"":0},{""event"":""focus"",""trial"":1,""time"":288626},{""event"":""focus"",""trial"":1,""time"":288626},{""event"":""fullscreenenter"",""trial"":1,""time"":290653},{""event"":""blur"",""trial"":33,""time"":1037222},{""event"":""focus"",""trial"":33,""time"":1143059},{""event"":""blur"",""trial"":139,""time"":2034389},{""event"":""focus"",""trial"":139,""time"":2039320}]",NA,NA,NA,NA,NA,6,#741CD8,#D8271C,0,10,0,38,1,940,37,1,2313.999999999767,0,0,experiment,NA,NA,2,0.5,0.5,5,4,116,3,NA
fcp-trial,151,2085581,0.0-126.0-0.0,voc_e2,12065,"[{""event"":""blur"",""trial"":0,""time"":0},{""event"":""focus"",""trial"":1,""time"":288626},{""event"":""focus"",""trial"":1,""time"":288626},{""event"":""fullscreenenter"",""trial"":1,""time"":290653},{""event"":""blur"",""trial"":33,""time"":1037222},{""event"":""focus"",""trial"":33,""time"":1143059},{""event"":""blur"",""trial"":139,""time"":2034389},{""event"":""focus"",""trial"":139,""time"":2039320}]",NA,NA,NA,NA,NA,3,#3386FF,#D89F1C,0,10,0,38,1,1227,39,0,579.9999999997672,10,1,experiment,NA,NA,1,0.3,0.7,3,2,117,3,NA
fcp-trial,152,2090735,0.0-127.0-0.0,voc_e2,12065,"[{""event"":""blur"",""trial"":0,""time"":0},{""event"":""focus"",""trial"":1,""time"":288626},{""event"":""focus"",""trial"":1,""time"":288626},{""event"":""fullscreenenter"",""trial"":1,""time"":290653},{""event"":""blur"",""trial"":33,""time"":1037222},{""event"":""focus"",""trial"":33,""time"":1143059},{""event"":""blur"",""trial"":139,""time"":2034389},{""event"":""focus"",""trial"":139,""time"":2039320}]",NA,NA,NA,NA,NA,1,#741CD8,#D8271C,0,0,0,38,1,2492.999999999767,37,1,1154,0,0,experiment,NA,NA,2,0.5,0.5,5,4,118,3,NA
fcp-trial,153,2093764,0.0-128.0-0.0,voc_e2,12065,"[{""event"":""blur"",""trial"":0,""time"":0},{""event"":""focus"",""trial"":1,""time"":288626},{""event"":""focus"",""trial"":1,""time"":288626},{""event"":""fullscreenenter"",""trial"":1,""time"":290653},{""event"":""blur"",""trial"":33,""time"":1037222},{""event"":""focus"",""trial"":33,""time"":1143059},{""event"":""blur"",""trial"":139,""time"":2034389},{""event"":""focus"",""trial"":139,""time"":2039320}]",NA,NA,NA,NA,NA,2,#1CD855,#FA92F8,10,0,1,38,1,1250,37,1,272.00000000046566,10,1,experiment,NA,NA,0,0.9,0.1,0,1,119,3,NA
fcp-trial,154,2096547,0.0-129.0-0.0,voc_e2,12065,"[{""event"":""blur"",""trial"":0,""time"":0},{""event"":""focus"",""trial"":1,""time"":288626},{""event"":""focus"",""trial"":1,""time"":288626},{""event"":""fullscreenenter"",""trial"":1,""time"":290653},{""event"":""blur"",""trial"":33,""time"":1037222},{""event"":""focus"",""trial"":33,""time"":1143059},{""event"":""blur"",""trial"":139,""time"":2034389},{""event"":""focus"",""trial"":139,""time"":2039320}]",NA,NA,NA,NA,NA,6,#1CD855,#FA92F8,10,0,1,38,1,817,37,1,458,10,1,experiment,NA,NA,0,0.9,0.1,0,1,120,3,NA
fcp-trial,155,2101553,0.0-130.0-0.0,voc_e2,12065,"[{""event"":""blur"",""trial"":0,""time"":0},{""event"":""focus"",""trial"":1,""time"":288626},{""event"":""focus"",""trial"":1,""time"":288626},{""event"":""fullscreenenter"",""trial"":1,""time"":290653},{""event"":""blur"",""trial"":33,""time"":1037222},{""event"":""focus"",""trial"":33,""time"":1143059},{""event"":""blur"",""trial"":139,""time"":2034389},{""event"":""focus"",""trial"":139,""time"":2039320}]",NA,NA,NA,NA,NA,3,#741CD8,#D8271C,0,0,0,38,1,1862,37,1,1634,0,0,experiment,NA,NA,2,0.5,0.5,5,4,121,3,NA
fcp-trial,156,2104555,0.0-131.0-0.0,voc_e2,12065,"[{""event"":""blur"",""trial"":0,""time"":0},{""event"":""focus"",""trial"":1,""time"":288626},{""event"":""focus"",""trial"":1,""time"":288626},{""event"":""fullscreenenter"",""trial"":1,""time"":290653},{""event"":""blur"",""trial"":33,""time"":1037222},{""event"":""focus"",""trial"":33,""time"":1143059},{""event"":""blur"",""trial"":139,""time"":2034389},{""event"":""focus"",""trial"":139,""time"":2039320}]",NA,NA,NA,NA,NA,1,#3386FF,#D89F1C,10,10,0,38,1,1209,39,0,285,10,1,experiment,NA,NA,1,0.3,0.7,3,2,122,3,NA
fcp-trial,157,2109106,0.0-132.0-0.0,voc_e2,12065,"[{""event"":""blur"",""trial"":0,""time"":0},{""event"":""focus"",""trial"":1,""time"":288626},{""event"":""focus"",""trial"":1,""time"":288626},{""event"":""fullscreenenter"",""trial"":1,""time"":290653},{""event"":""blur"",""trial"":33,""time"":1037222},{""event"":""focus"",""trial"":33,""time"":1143059},{""event"":""blur"",""trial"":139,""time"":2034389},{""event"":""focus"",""trial"":139,""time"":2039320}]",NA,NA,NA,NA,NA,6,#D89F1C,#3386FF,10,0,1,38,1,2411,37,1,622,10,1,experiment,NA,NA,1,0.7,0.3,2,3,123,3,NA
fcp-trial,158,2112064,0.0-133.0-0.0,voc_e2,12065,"[{""event"":""blur"",""trial"":0,""time"":0},{""event"":""focus"",""trial"":1,""time"":288626},{""event"":""focus"",""trial"":1,""time"":288626},{""event"":""fullscreenenter"",""trial"":1,""time"":290653},{""event"":""blur"",""trial"":33,""time"":1037222},{""event"":""focus"",""trial"":33,""time"":1143059},{""event"":""blur"",""trial"":139,""time"":2034389},{""event"":""focus"",""trial"":139,""time"":2039320}]",NA,NA,NA,NA,NA,4,#741CD8,#D8271C,0,10,0,40,0,847,37,1,591,0,0,experiment,NA,NA,2,0.5,0.5,5,4,124,3,NA
fcp-trial,159,2115148,0.0-134.0-0.0,voc_e2,12065,"[{""event"":""blur"",""trial"":0,""time"":0},{""event"":""focus"",""trial"":1,""time"":288626},{""event"":""focus"",""trial"":1,""time"":288626},{""event"":""fullscreenenter"",""trial"":1,""time"":290653},{""event"":""blur"",""trial"":33,""time"":1037222},{""event"":""focus"",""trial"":33,""time"":1143059},{""event"":""blur"",""trial"":139,""time"":2034389},{""event"":""focus"",""trial"":139,""time"":2039320}]",NA,NA,NA,NA,NA,1,#FA92F8,#1CD855,0,10,0,38,1,1029.9999999995343,39,0,545,10,1,experiment,NA,NA,0,0.1,0.9,1,0,125,3,NA
fcp-trial,160,2117839,0.0-135.0-0.0,voc_e2,12065,"[{""event"":""blur"",""trial"":0,""time"":0},{""event"":""focus"",""trial"":1,""time"":288626},{""event"":""focus"",""trial"":1,""time"":288626},{""event"":""fullscreenenter"",""trial"":1,""time"":290653},{""event"":""blur"",""trial"":33,""time"":1037222},{""event"":""focus"",""trial"":33,""time"":1143059},{""event"":""blur"",""trial"":139,""time"":2034389},{""event"":""focus"",""trial"":139,""time"":2039320}]",NA,NA,NA,NA,NA,5,#3386FF,#D89F1C,0,0,0,38,1,875,39,0,307,0,1,experiment,NA,NA,1,0.3,0.7,3,2,126,3,NA
fcp-trial,161,2121956,0.0-136.0-0.0,voc_e2,12065,"[{""event"":""blur"",""trial"":0,""time"":0},{""event"":""focus"",""trial"":1,""time"":288626},{""event"":""focus"",""trial"":1,""time"":288626},{""event"":""fullscreenenter"",""trial"":1,""time"":290653},{""event"":""blur"",""trial"":33,""time"":1037222},{""event"":""focus"",""trial"":33,""time"":1143059},{""event"":""blur"",""trial"":139,""time"":2034389},{""event"":""focus"",""trial"":139,""time"":2039320}]",NA,NA,NA,NA,NA,3,#D8271C,#741CD8,10,0,1,40,0,2009,39,0,587,0,0,experiment,NA,NA,2,0.5,0.5,4,5,127,3,NA
fcp-trial,162,2124654,0.0-137.0-0.0,voc_e2,12065,"[{""event"":""blur"",""trial"":0,""time"":0},{""event"":""focus"",""trial"":1,""time"":288626},{""event"":""focus"",""trial"":1,""time"":288626},{""event"":""fullscreenenter"",""trial"":1,""time"":290653},{""event"":""blur"",""trial"":33,""time"":1037222},{""event"":""focus"",""trial"":33,""time"":1143059},{""event"":""blur"",""trial"":139,""time"":2034389},{""event"":""focus"",""trial"":139,""time"":2039320}]",NA,NA,NA,NA,NA,3,#1CD855,#FA92F8,10,0,1,38,1,915,37,1,264,10,1,experiment,NA,NA,0,0.9,0.1,0,1,128,3,NA
fcp-trial,163,2127342,0.0-138.0-0.0,voc_e2,12065,"[{""event"":""blur"",""trial"":0,""time"":0},{""event"":""focus"",""trial"":1,""time"":288626},{""event"":""focus"",""trial"":1,""time"":288626},{""event"":""fullscreenenter"",""trial"":1,""time"":290653},{""event"":""blur"",""trial"":33,""time"":1037222},{""event"":""focus"",""trial"":33,""time"":1143059},{""event"":""blur"",""trial"":139,""time"":2034389},{""event"":""focus"",""trial"":139,""time"":2039320}]",NA,NA,NA,NA,NA,1,#D8271C,#741CD8,10,0,1,38,1,874,37,1,302,10,1,experiment,NA,NA,2,0.5,0.5,4,5,129,3,NA
fcp-trial,164,2130597,0.0-139.0-0.0,voc_e2,12065,"[{""event"":""blur"",""trial"":0,""time"":0},{""event"":""focus"",""trial"":1,""time"":288626},{""event"":""focus"",""trial"":1,""time"":288626},{""event"":""fullscreenenter"",""trial"":1,""time"":290653},{""event"":""blur"",""trial"":33,""time"":1037222},{""event"":""focus"",""trial"":33,""time"":1143059},{""event"":""blur"",""trial"":139,""time"":2034389},{""event"":""focus"",""trial"":139,""time"":2039320}]",NA,NA,NA,NA,NA,1,#D89F1C,#3386FF,10,0,1,38,1,986,37,1,747,10,1,experiment,NA,NA,1,0.7,0.3,2,3,130,3,NA
fcp-trial,165,2133625,0.0-140.0-0.0,voc_e2,12065,"[{""event"":""blur"",""trial"":0,""time"":0},{""event"":""focus"",""trial"":1,""time"":288626},{""event"":""focus"",""trial"":1,""time"":288626},{""event"":""fullscreenenter"",""trial"":1,""time"":290653},{""event"":""blur"",""trial"":33,""time"":1037222},{""event"":""focus"",""trial"":33,""time"":1143059},{""event"":""blur"",""trial"":139,""time"":2034389},{""event"":""focus"",""trial"":139,""time"":2039320}]",NA,NA,NA,NA,NA,2,#3386FF,#D89F1C,0,0,0,38,1,945,39,0,577,0,1,experiment,NA,NA,1,0.3,0.7,3,2,131,3,NA
fcp-trial,166,2136413,0.0-141.0-0.0,voc_e2,12065,"[{""event"":""blur"",""trial"":0,""time"":0},{""event"":""focus"",""trial"":1,""time"":288626},{""event"":""focus"",""trial"":1,""time"":288626},{""event"":""fullscreenenter"",""trial"":1,""time"":290653},{""event"":""blur"",""trial"":33,""time"":1037222},{""event"":""focus"",""trial"":33,""time"":1143059},{""event"":""blur"",""trial"":139,""time"":2034389},{""event"":""focus"",""trial"":139,""time"":2039320}]",NA,NA,NA,NA,NA,2,#1CD855,#FA92F8,10,0,1,38,1,723,37,1,549,10,1,experiment,NA,NA,0,0.9,0.1,0,1,132,3,NA
fcp-trial,167,2139238,0.0-142.0-0.0,voc_e2,12065,"[{""event"":""blur"",""trial"":0,""time"":0},{""event"":""focus"",""trial"":1,""time"":288626},{""event"":""focus"",""trial"":1,""time"":288626},{""event"":""fullscreenenter"",""trial"":1,""time"":290653},{""event"":""blur"",""trial"":33,""time"":1037222},{""event"":""focus"",""trial"":33,""time"":1143059},{""event"":""blur"",""trial"":139,""time"":2034389},{""event"":""focus"",""trial"":139,""time"":2039320}]",NA,NA,NA,NA,NA,5,#D8271C,#741CD8,10,10,1,38,1,863,37,1,451,10,1,experiment,NA,NA,2,0.5,0.5,4,5,133,3,NA
fcp-trial,168,2142062,0.0-143.0-0.0,voc_e2,12065,"[{""event"":""blur"",""trial"":0,""time"":0},{""event"":""focus"",""trial"":1,""time"":288626},{""event"":""focus"",""trial"":1,""time"":288626},{""event"":""fullscreenenter"",""trial"":1,""time"":290653},{""event"":""blur"",""trial"":33,""time"":1037222},{""event"":""focus"",""trial"":33,""time"":1143059},{""event"":""blur"",""trial"":139,""time"":2034389},{""event"":""focus"",""trial"":139,""time"":2039320}]",NA,NA,NA,NA,NA,6,#FA92F8,#1CD855,0,10,0,38,1,692,39,0,613,10,1,experiment,NA,NA,0,0.1,0.9,1,0,134,3,NA
fcp-trial,169,2145597,0.0-144.0-0.0,voc_e2,12065,"[{""event"":""blur"",""trial"":0,""time"":0},{""event"":""focus"",""trial"":1,""time"":288626},{""event"":""focus"",""trial"":1,""time"":288626},{""event"":""fullscreenenter"",""trial"":1,""time"":290653},{""event"":""blur"",""trial"":33,""time"":1037222},{""event"":""focus"",""trial"":33,""time"":1143059},{""event"":""blur"",""trial"":139,""time"":2034389},{""event"":""focus"",""trial"":139,""time"":2039320}]",NA,NA,NA,NA,NA,5,#D89F1C,#3386FF,0,0,1,38,1,1765,37,1,263,0,1,experiment,NA,NA,1,0.7,0.3,2,3,135,3,NA
fcp-trial,170,2148349,0.0-145.0-0.0,voc_e2,12065,"[{""event"":""blur"",""trial"":0,""time"":0},{""event"":""focus"",""trial"":1,""time"":288626},{""event"":""focus"",""trial"":1,""time"":288626},{""event"":""fullscreenenter"",""trial"":1,""time"":290653},{""event"":""blur"",""trial"":33,""time"":1037222},{""event"":""focus"",""trial"":33,""time"":1143059},{""event"":""blur"",""trial"":139,""time"":2034389},{""event"":""focus"",""trial"":139,""time"":2039320}]",NA,NA,NA,NA,NA,5,#FA92F8,#1CD855,0,10,0,38,1,718,39,0,526.0000000004657,10,1,experiment,NA,NA,0,0.1,0.9,1,0,136,4,NA
fcp-trial,171,2151455,0.0-146.0-0.0,voc_e2,12065,"[{""event"":""blur"",""trial"":0,""time"":0},{""event"":""focus"",""trial"":1,""time"":288626},{""event"":""focus"",""trial"":1,""time"":288626},{""event"":""fullscreenenter"",""trial"":1,""time"":290653},{""event"":""blur"",""trial"":33,""time"":1037222},{""event"":""focus"",""trial"":33,""time"":1143059},{""event"":""blur"",""trial"":139,""time"":2034389},{""event"":""focus"",""trial"":139,""time"":2039320}]",NA,NA,NA,NA,NA,2,#D8271C,#741CD8,10,10,1,38,1,1322,37,1,273.00000000046566,10,1,experiment,NA,NA,2,0.5,0.5,4,5,137,4,NA
fcp-trial,172,2157265,0.0-147.0-0.0,voc_e2,12065,"[{""event"":""blur"",""trial"":0,""time"":0},{""event"":""focus"",""trial"":1,""time"":288626},{""event"":""focus"",""trial"":1,""time"":288626},{""event"":""fullscreenenter"",""trial"":1,""time"":290653},{""event"":""blur"",""trial"":33,""time"":1037222},{""event"":""focus"",""trial"":33,""time"":1143059},{""event"":""blur"",""trial"":139,""time"":2034389},{""event"":""focus"",""trial"":139,""time"":2039320}]",NA,NA,NA,NA,NA,3,#D89F1C,#3386FF,10,0,1,38,1,3896,37,1,395,10,1,experiment,NA,NA,1,0.7,0.3,2,3,138,4,NA
fcp-trial,173,2159980,0.0-148.0-0.0,voc_e2,12065,"[{""event"":""blur"",""trial"":0,""time"":0},{""event"":""focus"",""trial"":1,""time"":288626},{""event"":""focus"",""trial"":1,""time"":288626},{""event"":""fullscreenenter"",""trial"":1,""time"":290653},{""event"":""blur"",""trial"":33,""time"":1037222},{""event"":""focus"",""trial"":33,""time"":1143059},{""event"":""blur"",""trial"":139,""time"":2034389},{""event"":""focus"",""trial"":139,""time"":2039320}]",NA,NA,NA,NA,NA,0,#FA92F8,#1CD855,0,10,0,38,1,748,39,0,458,10,1,experiment,NA,NA,0,0.1,0.9,1,0,139,4,NA
fcp-trial,174,2163558,0.0-149.0-0.0,voc_e2,12065,"[{""event"":""blur"",""trial"":0,""time"":0},{""event"":""focus"",""trial"":1,""time"":288626},{""event"":""focus"",""trial"":1,""time"":288626},{""event"":""fullscreenenter"",""trial"":1,""time"":290653},{""event"":""blur"",""trial"":33,""time"":1037222},{""event"":""focus"",""trial"":33,""time"":1143059},{""event"":""blur"",""trial"":139,""time"":2034389},{""event"":""focus"",""trial"":139,""time"":2039320}]",NA,NA,NA,NA,NA,6,#741CD8,#D8271C,10,10,0,38,1,1810,39,0,259,10,1,experiment,NA,NA,2,0.5,0.5,5,4,140,4,NA
fcp-trial,175,2166201,0.0-150.0-0.0,voc_e2,12065,"[{""event"":""blur"",""trial"":0,""time"":0},{""event"":""focus"",""trial"":1,""time"":288626},{""event"":""focus"",""trial"":1,""time"":288626},{""event"":""fullscreenenter"",""trial"":1,""time"":290653},{""event"":""blur"",""trial"":33,""time"":1037222},{""event"":""focus"",""trial"":33,""time"":1143059},{""event"":""blur"",""trial"":139,""time"":2034389},{""event"":""focus"",""trial"":139,""time"":2039320}]",NA,NA,NA,NA,NA,4,#3386FF,#D89F1C,10,0,0,38,1,805,39,0,319,0,1,experiment,NA,NA,1,0.3,0.7,3,2,141,4,NA
fcp-trial,176,2168839,0.0-151.0-0.0,voc_e2,12065,"[{""event"":""blur"",""trial"":0,""time"":0},{""event"":""focus"",""trial"":1,""time"":288626},{""event"":""focus"",""trial"":1,""time"":288626},{""event"":""fullscreenenter"",""trial"":1,""time"":290653},{""event"":""blur"",""trial"":33,""time"":1037222},{""event"":""focus"",""trial"":33,""time"":1143059},{""event"":""blur"",""trial"":139,""time"":2034389},{""event"":""focus"",""trial"":139,""time"":2039320}]",NA,NA,NA,NA,NA,4,#FA92F8,#1CD855,0,10,0,38,1,854,39,0,272,10,1,experiment,NA,NA,0,0.1,0.9,1,0,142,4,NA
fcp-trial,177,2172799,0.0-152.0-0.0,voc_e2,12065,"[{""event"":""blur"",""trial"":0,""time"":0},{""event"":""focus"",""trial"":1,""time"":288626},{""event"":""focus"",""trial"":1,""time"":288626},{""event"":""fullscreenenter"",""trial"":1,""time"":290653},{""event"":""blur"",""trial"":33,""time"":1037222},{""event"":""focus"",""trial"":33,""time"":1143059},{""event"":""blur"",""trial"":139,""time"":2034389},{""event"":""focus"",""trial"":139,""time"":2039320}]",NA,NA,NA,NA,NA,6,#D89F1C,#3386FF,10,0,1,40,0,1999,37,1,442,10,1,experiment,NA,NA,1,0.7,0.3,2,3,143,4,NA
fcp-trial,178,2176414,0.0-153.0-0.0,voc_e2,12065,"[{""event"":""blur"",""trial"":0,""time"":0},{""event"":""focus"",""trial"":1,""time"":288626},{""event"":""focus"",""trial"":1,""time"":288626},{""event"":""fullscreenenter"",""trial"":1,""time"":290653},{""event"":""blur"",""trial"":33,""time"":1037222},{""event"":""focus"",""trial"":33,""time"":1143059},{""event"":""blur"",""trial"":139,""time"":2034389},{""event"":""focus"",""trial"":139,""time"":2039320}]",NA,NA,NA,NA,NA,0,#3386FF,#D89F1C,0,10,0,38,1,1841,39,0,265,10,1,experiment,NA,NA,1,0.3,0.7,3,2,144,4,NA
fcp-trial,179,2180920,0.0-154.0-0.0,voc_e2,12065,"[{""event"":""blur"",""trial"":0,""time"":0},{""event"":""focus"",""trial"":1,""time"":288626},{""event"":""focus"",""trial"":1,""time"":288626},{""event"":""fullscreenenter"",""trial"":1,""time"":290653},{""event"":""blur"",""trial"":33,""time"":1037222},{""event"":""focus"",""trial"":33,""time"":1143059},{""event"":""blur"",""trial"":139,""time"":2034389},{""event"":""focus"",""trial"":139,""time"":2039320}]",NA,NA,NA,NA,NA,4,#D8271C,#741CD8,0,0,1,38,1,2745,37,1,251,0,1,experiment,NA,NA,2,0.5,0.5,4,5,145,4,NA
fcp-trial,180,2183798,0.0-155.0-0.0,voc_e2,12065,"[{""event"":""blur"",""trial"":0,""time"":0},{""event"":""focus"",""trial"":1,""time"":288626},{""event"":""focus"",""trial"":1,""time"":288626},{""event"":""fullscreenenter"",""trial"":1,""time"":290653},{""event"":""blur"",""trial"":33,""time"":1037222},{""event"":""focus"",""trial"":33,""time"":1143059},{""event"":""blur"",""trial"":139,""time"":2034389},{""event"":""focus"",""trial"":139,""time"":2039320}]",NA,NA,NA,NA,NA,0,#741CD8,#D8271C,10,0,0,38,1,837,37,1,533,10,0,experiment,NA,NA,2,0.5,0.5,5,4,146,4,NA
fcp-trial,181,2186347,0.0-156.0-0.0,voc_e2,12065,"[{""event"":""blur"",""trial"":0,""time"":0},{""event"":""focus"",""trial"":1,""time"":288626},{""event"":""focus"",""trial"":1,""time"":288626},{""event"":""fullscreenenter"",""trial"":1,""time"":290653},{""event"":""blur"",""trial"":33,""time"":1037222},{""event"":""focus"",""trial"":33,""time"":1143059},{""event"":""blur"",""trial"":139,""time"":2034389},{""event"":""focus"",""trial"":139,""time"":2039320}]",NA,NA,NA,NA,NA,1,#1CD855,#FA92F8,10,10,1,38,1,741,37,1,299,10,1,experiment,NA,NA,0,0.9,0.1,0,1,147,4,NA
fcp-trial,182,2190373,0.0-157.0-0.0,voc_e2,12065,"[{""event"":""blur"",""trial"":0,""time"":0},{""event"":""focus"",""trial"":1,""time"":288626},{""event"":""focus"",""trial"":1,""time"":288626},{""event"":""fullscreenenter"",""trial"":1,""time"":290653},{""event"":""blur"",""trial"":33,""time"":1037222},{""event"":""focus"",""trial"":33,""time"":1143059},{""event"":""blur"",""trial"":139,""time"":2034389},{""event"":""focus"",""trial"":139,""time"":2039320}]",NA,NA,NA,NA,NA,1,#D89F1C,#3386FF,0,0,1,38,1,2245,37,1,271,0,1,experiment,NA,NA,1,0.7,0.3,2,3,148,4,NA
fcp-trial,183,2193135,0.0-158.0-0.0,voc_e2,12065,"[{""event"":""blur"",""trial"":0,""time"":0},{""event"":""focus"",""trial"":1,""time"":288626},{""event"":""focus"",""trial"":1,""time"":288626},{""event"":""fullscreenenter"",""trial"":1,""time"":290653},{""event"":""blur"",""trial"":33,""time"":1037222},{""event"":""focus"",""trial"":33,""time"":1143059},{""event"":""blur"",""trial"":139,""time"":2034389},{""event"":""focus"",""trial"":139,""time"":2039320}]",NA,NA,NA,NA,NA,0,#1CD855,#FA92F8,10,0,1,38,1,686,37,1,551,10,1,experiment,NA,NA,0,0.9,0.1,0,1,149,4,NA
fcp-trial,184,2196591,0.0-159.0-0.0,voc_e2,12065,"[{""event"":""blur"",""trial"":0,""time"":0},{""event"":""focus"",""trial"":1,""time"":288626},{""event"":""focus"",""trial"":1,""time"":288626},{""event"":""fullscreenenter"",""trial"":1,""time"":290653},{""event"":""blur"",""trial"":33,""time"":1037222},{""event"":""focus"",""trial"":33,""time"":1143059},{""event"":""blur"",""trial"":139,""time"":2034389},{""event"":""focus"",""trial"":139,""time"":2039320}]",NA,NA,NA,NA,NA,1,#741CD8,#D8271C,10,0,0,38,1,932,39,0,1016,0,1,experiment,NA,NA,2,0.5,0.5,5,4,150,4,NA
fcp-trial,185,2199556,0.0-160.0-0.0,voc_e2,12065,"[{""event"":""blur"",""trial"":0,""time"":0},{""event"":""focus"",""trial"":1,""time"":288626},{""event"":""focus"",""trial"":1,""time"":288626},{""event"":""fullscreenenter"",""trial"":1,""time"":290653},{""event"":""blur"",""trial"":33,""time"":1037222},{""event"":""focus"",""trial"":33,""time"":1143059},{""event"":""blur"",""trial"":139,""time"":2034389},{""event"":""focus"",""trial"":139,""time"":2039320}]",NA,NA,NA,NA,NA,2,#FA92F8,#1CD855,0,10,0,38,1,1130.9999999995343,39,0,317,10,1,experiment,NA,NA,0,0.1,0.9,1,0,151,4,NA
fcp-trial,186,2203013,0.0-161.0-0.0,voc_e2,12065,"[{""event"":""blur"",""trial"":0,""time"":0},{""event"":""focus"",""trial"":1,""time"":288626},{""event"":""focus"",""trial"":1,""time"":288626},{""event"":""fullscreenenter"",""trial"":1,""time"":290653},{""event"":""blur"",""trial"":33,""time"":1037222},{""event"":""focus"",""trial"":33,""time"":1143059},{""event"":""blur"",""trial"":139,""time"":2034389},{""event"":""focus"",""trial"":139,""time"":2039320}]",NA,NA,NA,NA,NA,3,#D89F1C,#3386FF,10,0,1,38,1,1356,37,1,582,10,1,experiment,NA,NA,1,0.7,0.3,2,3,152,4,NA
fcp-trial,187,2205605,0.0-162.0-0.0,voc_e2,12065,"[{""event"":""blur"",""trial"":0,""time"":0},{""event"":""focus"",""trial"":1,""time"":288626},{""event"":""focus"",""trial"":1,""time"":288626},{""event"":""fullscreenenter"",""trial"":1,""time"":290653},{""event"":""blur"",""trial"":33,""time"":1037222},{""event"":""focus"",""trial"":33,""time"":1143059},{""event"":""blur"",""trial"":139,""time"":2034389},{""event"":""focus"",""trial"":139,""time"":2039320}]",NA,NA,NA,NA,NA,4,#D8271C,#741CD8,0,0,1,40,0,545,39,0,540,0,0,experiment,NA,NA,2,0.5,0.5,4,5,153,4,NA
fcp-trial,188,2208472,0.0-163.0-0.0,voc_e2,12065,"[{""event"":""blur"",""trial"":0,""time"":0},{""event"":""focus"",""trial"":1,""time"":288626},{""event"":""focus"",""trial"":1,""time"":288626},{""event"":""fullscreenenter"",""trial"":1,""time"":290653},{""event"":""blur"",""trial"":33,""time"":1037222},{""event"":""focus"",""trial"":33,""time"":1143059},{""event"":""blur"",""trial"":139,""time"":2034389},{""event"":""focus"",""trial"":139,""time"":2039320}]",NA,NA,NA,NA,NA,2,#D8271C,#741CD8,10,0,1,40,0,908,39,0,438,0,0,experiment,NA,NA,2,0.5,0.5,4,5,154,4,NA
fcp-trial,189,2211446,0.0-164.0-0.0,voc_e2,12065,"[{""event"":""blur"",""trial"":0,""time"":0},{""event"":""focus"",""trial"":1,""time"":288626},{""event"":""focus"",""trial"":1,""time"":288626},{""event"":""fullscreenenter"",""trial"":1,""time"":290653},{""event"":""blur"",""trial"":33,""time"":1037222},{""event"":""focus"",""trial"":33,""time"":1143059},{""event"":""blur"",""trial"":139,""time"":2034389},{""event"":""focus"",""trial"":139,""time"":2039320}]",NA,NA,NA,NA,NA,5,#3386FF,#D89F1C,10,10,0,38,1,805,39,0,648,10,1,experiment,NA,NA,1,0.3,0.7,3,2,155,4,NA
fcp-trial,190,2214132,0.0-165.0-0.0,voc_e2,12065,"[{""event"":""blur"",""trial"":0,""time"":0},{""event"":""focus"",""trial"":1,""time"":288626},{""event"":""focus"",""trial"":1,""time"":288626},{""event"":""fullscreenenter"",""trial"":1,""time"":290653},{""event"":""blur"",""trial"":33,""time"":1037222},{""event"":""focus"",""trial"":33,""time"":1143059},{""event"":""blur"",""trial"":139,""time"":2034389},{""event"":""focus"",""trial"":139,""time"":2039320}]",NA,NA,NA,NA,NA,3,#FA92F8,#1CD855,10,10,0,38,1,842,39,0,333.99999999953434,10,1,experiment,NA,NA,0,0.1,0.9,1,0,156,4,NA
fcp-trial,191,2218965,0.0-166.0-0.0,voc_e2,12065,"[{""event"":""blur"",""trial"":0,""time"":0},{""event"":""focus"",""trial"":1,""time"":288626},{""event"":""focus"",""trial"":1,""time"":288626},{""event"":""fullscreenenter"",""trial"":1,""time"":290653},{""event"":""blur"",""trial"":33,""time"":1037222},{""event"":""focus"",""trial"":33,""time"":1143059},{""event"":""blur"",""trial"":139,""time"":2034389},{""event"":""focus"",""trial"":139,""time"":2039320}]",NA,NA,NA,NA,NA,0,#741CD8,#D8271C,10,0,0,38,1,1475,39,0,1850,0,1,experiment,NA,NA,2,0.5,0.5,5,4,157,4,NA
fcp-trial,192,2221664,0.0-167.0-0.0,voc_e2,12065,"[{""event"":""blur"",""trial"":0,""time"":0},{""event"":""focus"",""trial"":1,""time"":288626},{""event"":""focus"",""trial"":1,""time"":288626},{""event"":""fullscreenenter"",""trial"":1,""time"":290653},{""event"":""blur"",""trial"":33,""time"":1037222},{""event"":""focus"",""trial"":33,""time"":1143059},{""event"":""blur"",""trial"":139,""time"":2034389},{""event"":""focus"",""trial"":139,""time"":2039320}]",NA,NA,NA,NA,NA,1,#1CD855,#FA92F8,10,0,1,38,1,814,37,1,377,10,1,experiment,NA,NA,0,0.9,0.1,0,1,158,4,NA
fcp-trial,193,2224338,0.0-168.0-0.0,voc_e2,12065,"[{""event"":""blur"",""trial"":0,""time"":0},{""event"":""focus"",""trial"":1,""time"":288626},{""event"":""focus"",""trial"":1,""time"":288626},{""event"":""fullscreenenter"",""trial"":1,""time"":290653},{""event"":""blur"",""trial"":33,""time"":1037222},{""event"":""focus"",""trial"":33,""time"":1143059},{""event"":""blur"",""trial"":139,""time"":2034389},{""event"":""focus"",""trial"":139,""time"":2039320}]",NA,NA,NA,NA,NA,5,#1CD855,#FA92F8,10,0,1,38,1,812.9999999995343,37,1,351,10,1,experiment,NA,NA,0,0.9,0.1,0,1,159,4,NA
fcp-trial,194,2229322,0.0-169.0-0.0,voc_e2,12065,"[{""event"":""blur"",""trial"":0,""time"":0},{""event"":""focus"",""trial"":1,""time"":288626},{""event"":""focus"",""trial"":1,""time"":288626},{""event"":""fullscreenenter"",""trial"":1,""time"":290653},{""event"":""blur"",""trial"":33,""time"":1037222},{""event"":""focus"",""trial"":33,""time"":1143059},{""event"":""blur"",""trial"":139,""time"":2034389},{""event"":""focus"",""trial"":139,""time"":2039320}]",NA,NA,NA,NA,NA,2,#D89F1C,#3386FF,10,0,1,38,1,3060,37,1,404,10,1,experiment,NA,NA,1,0.7,0.3,2,3,160,4,NA
fcp-trial,195,2232849,0.0-170.0-0.0,voc_e2,12065,"[{""event"":""blur"",""trial"":0,""time"":0},{""event"":""focus"",""trial"":1,""time"":288626},{""event"":""focus"",""trial"":1,""time"":288626},{""event"":""fullscreenenter"",""trial"":1,""time"":290653},{""event"":""blur"",""trial"":33,""time"":1037222},{""event"":""focus"",""trial"":33,""time"":1143059},{""event"":""blur"",""trial"":139,""time"":2034389},{""event"":""focus"",""trial"":139,""time"":2039320}]",NA,NA,NA,NA,NA,6,#741CD8,#D8271C,10,10,0,40,0,1541,37,1,467,10,0,experiment,NA,NA,2,0.5,0.5,5,4,161,4,NA
fcp-trial,196,2237302,0.0-171.0-0.0,voc_e2,12065,"[{""event"":""blur"",""trial"":0,""time"":0},{""event"":""focus"",""trial"":1,""time"":288626},{""event"":""focus"",""trial"":1,""time"":288626},{""event"":""fullscreenenter"",""trial"":1,""time"":290653},{""event"":""blur"",""trial"":33,""time"":1037222},{""event"":""focus"",""trial"":33,""time"":1143059},{""event"":""blur"",""trial"":139,""time"":2034389},{""event"":""focus"",""trial"":139,""time"":2039320}]",NA,NA,NA,NA,NA,3,#D8271C,#741CD8,0,10,1,38,1,2424,37,1,520,0,1,experiment,NA,NA,2,0.5,0.5,4,5,162,4,NA
fcp-trial,197,2242488,0.0-172.0-0.0,voc_e2,12065,"[{""event"":""blur"",""trial"":0,""time"":0},{""event"":""focus"",""trial"":1,""time"":288626},{""event"":""focus"",""trial"":1,""time"":288626},{""event"":""fullscreenenter"",""trial"":1,""time"":290653},{""event"":""blur"",""trial"":33,""time"":1037222},{""event"":""focus"",""trial"":33,""time"":1143059},{""event"":""blur"",""trial"":139,""time"":2034389},{""event"":""focus"",""trial"":139,""time"":2039320}]",NA,NA,NA,NA,NA,6,#3386FF,#D89F1C,0,0,0,38,1,3098,39,0,577,0,1,experiment,NA,NA,1,0.3,0.7,3,2,163,4,NA
fcp-trial,198,2246079,0.0-173.0-0.0,voc_e2,12065,"[{""event"":""blur"",""trial"":0,""time"":0},{""event"":""focus"",""trial"":1,""time"":288626},{""event"":""focus"",""trial"":1,""time"":288626},{""event"":""fullscreenenter"",""trial"":1,""time"":290653},{""event"":""blur"",""trial"":33,""time"":1037222},{""event"":""focus"",""trial"":33,""time"":1143059},{""event"":""blur"",""trial"":139,""time"":2034389},{""event"":""focus"",""trial"":139,""time"":2039320}]",NA,NA,NA,NA,NA,6,#FA92F8,#1CD855,0,10,0,38,1,1742,39,0,332,10,1,experiment,NA,NA,0,0.1,0.9,1,0,164,4,NA
fcp-trial,199,2249445,0.0-174.0-0.0,voc_e2,12065,"[{""event"":""blur"",""trial"":0,""time"":0},{""event"":""focus"",""trial"":1,""time"":288626},{""event"":""focus"",""trial"":1,""time"":288626},{""event"":""fullscreenenter"",""trial"":1,""time"":290653},{""event"":""blur"",""trial"":33,""time"":1037222},{""event"":""focus"",""trial"":33,""time"":1143059},{""event"":""blur"",""trial"":139,""time"":2034389},{""event"":""focus"",""trial"":139,""time"":2039320}]",NA,NA,NA,NA,NA,5,#D8271C,#741CD8,10,10,1,40,0,1420,39,0,440,10,0,experiment,NA,NA,2,0.5,0.5,4,5,165,4,NA
fcp-trial,200,2252513,0.0-175.0-0.0,voc_e2,12065,"[{""event"":""blur"",""trial"":0,""time"":0},{""event"":""focus"",""trial"":1,""time"":288626},{""event"":""focus"",""trial"":1,""time"":288626},{""event"":""fullscreenenter"",""trial"":1,""time"":290653},{""event"":""blur"",""trial"":33,""time"":1037222},{""event"":""focus"",""trial"":33,""time"":1143059},{""event"":""blur"",""trial"":139,""time"":2034389},{""event"":""focus"",""trial"":139,""time"":2039320}]",NA,NA,NA,NA,NA,0,#3386FF,#D89F1C,0,10,0,38,1,885,39,0,675,10,1,experiment,NA,NA,1,0.3,0.7,3,2,166,4,NA
fcp-trial,201,2255780,0.0-176.0-0.0,voc_e2,12065,"[{""event"":""blur"",""trial"":0,""time"":0},{""event"":""focus"",""trial"":1,""time"":288626},{""event"":""focus"",""trial"":1,""time"":288626},{""event"":""fullscreenenter"",""trial"":1,""time"":290653},{""event"":""blur"",""trial"":33,""time"":1037222},{""event"":""focus"",""trial"":33,""time"":1143059},{""event"":""blur"",""trial"":139,""time"":2034389},{""event"":""focus"",""trial"":139,""time"":2039320}]",NA,NA,NA,NA,NA,4,#3386FF,#D89F1C,10,10,0,38,1,1278,39,0,481,10,1,experiment,NA,NA,1,0.3,0.7,3,2,167,4,NA
fcp-trial,202,2258575,0.0-177.0-0.0,voc_e2,12065,"[{""event"":""blur"",""trial"":0,""time"":0},{""event"":""focus"",""trial"":1,""time"":288626},{""event"":""focus"",""trial"":1,""time"":288626},{""event"":""fullscreenenter"",""trial"":1,""time"":290653},{""event"":""blur"",""trial"":33,""time"":1037222},{""event"":""focus"",""trial"":33,""time"":1143059},{""event"":""blur"",""trial"":139,""time"":2034389},{""event"":""focus"",""trial"":139,""time"":2039320}]",NA,NA,NA,NA,NA,4,#1CD855,#FA92F8,10,0,1,38,1,857,37,1,427,10,1,experiment,NA,NA,0,0.9,0.1,0,1,168,4,NA
fcp-trial,203,2261580,0.0-178.0-0.0,voc_e2,12065,"[{""event"":""blur"",""trial"":0,""time"":0},{""event"":""focus"",""trial"":1,""time"":288626},{""event"":""focus"",""trial"":1,""time"":288626},{""event"":""fullscreenenter"",""trial"":1,""time"":290653},{""event"":""blur"",""trial"":33,""time"":1037222},{""event"":""focus"",""trial"":33,""time"":1143059},{""event"":""blur"",""trial"":139,""time"":2034389},{""event"":""focus"",""trial"":139,""time"":2039320}]",NA,NA,NA,NA,NA,4,#3386FF,#D89F1C,0,10,0,38,1,1153,39,0,331.99999999953434,10,1,experiment,NA,NA,1,0.3,0.7,3,2,169,4,NA
