trial_type,trial_index,time_elapsed,internal_node_id,task_version,subject_id,interactions,success,rt,stimulus,key_press,button_pressed,offer,arcade_color_L,arcade_color_R,arcade_outcome_L,arcade_outcome_R,correct,stage_1_key,stage_1_choice,stage_1_rt,stage_2_key,stage_2_choice,stage_2_rt,stage_3_outcome,accuracy,phase,responses,num_errors,context,reward_prob_L,reward_prob_R,arcade_id_L,arcade_id_R,trial,block,response
pavlovia,0,16,0.0-0.0,voc_e2,12122,[],NA,NA,NA,NA,NA,NA,NA,NA,NA,NA,NA,NA,NA,NA,NA,NA,NA,NA,NA,NA,NA,NA,NA,NA,NA,NA,NA,NA,NA,NA
fullscreen,1,3798,0.0-1.0,voc_e2,12122,"[{""event"":""fullscreenenter"",""trial"":1,""time"":2846}]",TRUE,NA,NA,NA,NA,NA,NA,NA,NA,NA,NA,NA,NA,NA,NA,NA,NA,NA,NA,NA,NA,NA,NA,NA,NA,NA,NA,NA,NA,NA
audio-keyboard-response,2,10103,0.0-2.0,voc_e2,12122,"[{""event"":""fullscreenenter"",""trial"":1,""time"":2846}]",NA,0,static/audio/beep_loop.wav,32,NA,NA,NA,NA,NA,NA,NA,NA,NA,NA,NA,NA,NA,NA,NA,NA,NA,NA,NA,NA,NA,NA,NA,NA,NA,NA
audio-test,3,11740,0.0-3.0,voc_e2,12122,"[{""event"":""fullscreenenter"",""trial"":1,""time"":2846}]",NA,NA,static/audio/turtle.wav,NA,3,NA,NA,NA,NA,NA,NA,NA,NA,NA,NA,NA,NA,NA,NA,NA,NA,NA,NA,NA,NA,NA,NA,NA,NA,NA
audio-test,4,15605,0.0-4.0,voc_e2,12122,"[{""event"":""fullscreenenter"",""trial"":1,""time"":2846}]",NA,NA,static/audio/shark.wav,NA,2,NA,NA,NA,NA,NA,NA,NA,NA,NA,NA,NA,NA,NA,NA,NA,NA,NA,NA,NA,NA,NA,NA,NA,NA,NA
audio-instructions,5,26039,0.0-5.0-0.0,voc_e2,12122,"[{""event"":""fullscreenenter"",""trial"":1,""time"":2846}]",NA,4650,static/audio/instructions1.wav,NA,0,NA,NA,NA,NA,NA,NA,NA,NA,NA,NA,NA,NA,NA,NA,NA,NA,NA,NA,NA,NA,NA,NA,NA,NA,NA
audio-instructions,6,37044,0.0-5.0-1.0,voc_e2,12122,"[{""event"":""fullscreenenter"",""trial"":1,""time"":2846}]",NA,4264,static/audio/instructions2.wav,NA,0,NA,NA,NA,NA,NA,NA,NA,NA,NA,NA,NA,NA,NA,NA,NA,NA,NA,NA,NA,NA,NA,NA,NA,NA,NA
audio-instructions,7,43691,0.0-5.0-2.0,voc_e2,12122,"[{""event"":""fullscreenenter"",""trial"":1,""time"":2846}]",NA,844,static/audio/instructions3.wav,NA,0,NA,NA,NA,NA,NA,NA,NA,NA,NA,NA,NA,NA,NA,NA,NA,NA,NA,NA,NA,NA,NA,NA,NA,NA,NA
audio-instructions,8,58928,0.0-5.0-3.0,voc_e2,12122,"[{""event"":""fullscreenenter"",""trial"":1,""time"":2846}]",NA,2008,static/audio/instructions4.wav,NA,0,NA,NA,NA,NA,NA,NA,NA,NA,NA,NA,NA,NA,NA,NA,NA,NA,NA,NA,NA,NA,NA,NA,NA,NA,NA
audio-instructions,9,68827,0.0-5.0-4.0,voc_e2,12122,"[{""event"":""fullscreenenter"",""trial"":1,""time"":2846}]",NA,508,static/audio/instructions5.wav,NA,0,NA,NA,NA,NA,NA,NA,NA,NA,NA,NA,NA,NA,NA,NA,NA,NA,NA,NA,NA,NA,NA,NA,NA,NA,NA
fcp-practice,10,71859,0.0-5.0-5.0-0.0,voc_e2,12122,"[{""event"":""fullscreenenter"",""trial"":1,""time"":2846}]",NA,NA,NA,NA,NA,NA,#EDC948,#46d3c8,10,0,1,null,null,null,37,1,1504,10,1,practice,NA,NA,NA,NA,NA,NA,NA,NA,NA,NA
fcp-practice,11,74297,0.0-5.0-5.0-1.0,voc_e2,12122,"[{""event"":""fullscreenenter"",""trial"":1,""time"":2846}]",NA,NA,NA,NA,NA,NA,#EDC948,#46d3c8,10,0,1,null,null,null,37,1,934,10,1,practice,NA,NA,NA,NA,NA,NA,NA,NA,NA,NA
fcp-practice,12,76405,0.0-5.0-5.0-2.0,voc_e2,12122,"[{""event"":""fullscreenenter"",""trial"":1,""time"":2846}]",NA,NA,NA,NA,NA,NA,#EDC948,#46d3c8,0,10,1,null,null,null,37,1,604,0,1,practice,NA,NA,NA,NA,NA,NA,NA,NA,NA,NA
fcp-practice,13,78663,0.0-5.0-5.0-3.0,voc_e2,12122,"[{""event"":""fullscreenenter"",""trial"":1,""time"":2846}]",NA,NA,NA,NA,NA,NA,#EDC948,#46d3c8,10,0,1,null,null,null,37,1,754,10,1,practice,NA,NA,NA,NA,NA,NA,NA,NA,NA,NA
fcp-practice,14,81018,0.0-5.0-5.0-4.0,voc_e2,12122,"[{""event"":""fullscreenenter"",""trial"":1,""time"":2846}]",NA,NA,NA,NA,NA,NA,#EDC948,#46d3c8,10,0,1,null,null,null,37,1,851,10,1,practice,NA,NA,NA,NA,NA,NA,NA,NA,NA,NA
audio-instructions,15,101005,0.0-5.0-6.0,voc_e2,12122,"[{""event"":""fullscreenenter"",""trial"":1,""time"":2846}]",NA,1980.0000000000143,static/audio/instructions6.wav,NA,0,NA,NA,NA,NA,NA,NA,NA,NA,NA,NA,NA,NA,NA,NA,NA,NA,NA,NA,NA,NA,NA,NA,NA,NA,NA
audio-instructions,16,121929,0.0-5.0-7.0,voc_e2,12122,"[{""event"":""fullscreenenter"",""trial"":1,""time"":2846}]",NA,1725,static/audio/instructions7.wav,NA,0,NA,NA,NA,NA,NA,NA,NA,NA,NA,NA,NA,NA,NA,NA,NA,NA,NA,NA,NA,NA,NA,NA,NA,NA,NA
audio-instructions,17,131879,0.0-5.0-8.0,voc_e2,12122,"[{""event"":""fullscreenenter"",""trial"":1,""time"":2846}]",NA,476,static/audio/instructions8.wav,NA,0,NA,NA,NA,NA,NA,NA,NA,NA,NA,NA,NA,NA,NA,NA,NA,NA,NA,NA,NA,NA,NA,NA,NA,NA,NA
fcp-comprehension,18,141425,0.0-5.0-9.0,voc_e2,12122,"[{""event"":""fullscreenenter"",""trial"":1,""time"":2846}]",NA,9544,NA,NA,NA,NA,NA,NA,NA,NA,NA,NA,NA,NA,NA,NA,NA,NA,NA,NA,"false,true",1,NA,NA,NA,NA,NA,NA,NA,NA
audio-instructions,19,146959,0.0-5.1-0.1,voc_e2,12122,"[{""event"":""fullscreenenter"",""trial"":1,""time"":2846}]",NA,755,static/audio/instructions1.wav,NA,0,NA,NA,NA,NA,NA,NA,NA,NA,NA,NA,NA,NA,NA,NA,NA,NA,NA,NA,NA,NA,NA,NA,NA,NA,NA
audio-instructions,20,156099,0.0-5.1-1.1,voc_e2,12122,"[{""event"":""fullscreenenter"",""trial"":1,""time"":2846}]",NA,2397,static/audio/instructions2.wav,NA,0,NA,NA,NA,NA,NA,NA,NA,NA,NA,NA,NA,NA,NA,NA,NA,NA,NA,NA,NA,NA,NA,NA,NA,NA,NA
audio-instructions,21,164871,0.0-5.1-2.1,voc_e2,12122,"[{""event"":""fullscreenenter"",""trial"":1,""time"":2846}]",NA,2971,static/audio/instructions3.wav,NA,0,NA,NA,NA,NA,NA,NA,NA,NA,NA,NA,NA,NA,NA,NA,NA,NA,NA,NA,NA,NA,NA,NA,NA,NA,NA
audio-instructions,22,181302,0.0-5.1-3.1,voc_e2,12122,"[{""event"":""fullscreenenter"",""trial"":1,""time"":2846}]",NA,3204,static/audio/instructions4.wav,NA,0,NA,NA,NA,NA,NA,NA,NA,NA,NA,NA,NA,NA,NA,NA,NA,NA,NA,NA,NA,NA,NA,NA,NA,NA,NA
audio-instructions,23,191877,0.0-5.1-4.1,voc_e2,12122,"[{""event"":""fullscreenenter"",""trial"":1,""time"":2846}]",NA,1183,static/audio/instructions5.wav,NA,0,NA,NA,NA,NA,NA,NA,NA,NA,NA,NA,NA,NA,NA,NA,NA,NA,NA,NA,NA,NA,NA,NA,NA,NA,NA
fcp-practice,24,194336,0.0-5.1-5.1-0.1,voc_e2,12122,"[{""event"":""fullscreenenter"",""trial"":1,""time"":2846}]",NA,NA,NA,NA,NA,NA,#EDC948,#46d3c8,10,0,1,null,null,null,37,1,940,10,1,practice,NA,NA,NA,NA,NA,NA,NA,NA,NA,NA
fcp-practice,25,196186,0.0-5.1-5.1-1.1,voc_e2,12122,"[{""event"":""fullscreenenter"",""trial"":1,""time"":2846}]",NA,NA,NA,NA,NA,NA,#EDC948,#46d3c8,10,0,1,null,null,null,37,1,344,10,1,practice,NA,NA,NA,NA,NA,NA,NA,NA,NA,NA
fcp-practice,26,198132,0.0-5.1-5.1-2.1,voc_e2,12122,"[{""event"":""fullscreenenter"",""trial"":1,""time"":2846}]",NA,NA,NA,NA,NA,NA,#EDC948,#46d3c8,0,10,1,null,null,null,37,1,442.0000000000291,0,1,practice,NA,NA,NA,NA,NA,NA,NA,NA,NA,NA
fcp-practice,27,199997,0.0-5.1-5.1-3.1,voc_e2,12122,"[{""event"":""fullscreenenter"",""trial"":1,""time"":2846}]",NA,NA,NA,NA,NA,NA,#EDC948,#46d3c8,10,0,1,null,null,null,37,1,361,10,1,practice,NA,NA,NA,NA,NA,NA,NA,NA,NA,NA
fcp-practice,28,202007,0.0-5.1-5.1-4.1,voc_e2,12122,"[{""event"":""fullscreenenter"",""trial"":1,""time"":2846}]",NA,NA,NA,NA,NA,NA,#EDC948,#46d3c8,10,0,1,null,null,null,37,1,495.0000000000291,10,1,practice,NA,NA,NA,NA,NA,NA,NA,NA,NA,NA
audio-instructions,29,221312,0.0-5.1-6.1,voc_e2,12122,"[{""event"":""fullscreenenter"",""trial"":1,""time"":2846}]",NA,1296,static/audio/instructions6.wav,NA,0,NA,NA,NA,NA,NA,NA,NA,NA,NA,NA,NA,NA,NA,NA,NA,NA,NA,NA,NA,NA,NA,NA,NA,NA,NA
audio-instructions,30,242202,0.0-5.1-7.1,voc_e2,12122,"[{""event"":""fullscreenenter"",""trial"":1,""time"":2846}]",NA,1689,static/audio/instructions7.wav,NA,0,NA,NA,NA,NA,NA,NA,NA,NA,NA,NA,NA,NA,NA,NA,NA,NA,NA,NA,NA,NA,NA,NA,NA,NA,NA
audio-instructions,31,254552,0.0-5.1-8.1,voc_e2,12122,"[{""event"":""fullscreenenter"",""trial"":1,""time"":2846}]",NA,2877,static/audio/instructions8.wav,NA,0,NA,NA,NA,NA,NA,NA,NA,NA,NA,NA,NA,NA,NA,NA,NA,NA,NA,NA,NA,NA,NA,NA,NA,NA,NA
fcp-comprehension,32,267759,0.0-5.1-9.1,voc_e2,12122,"[{""event"":""fullscreenenter"",""trial"":1,""time"":2846}]",NA,13206,NA,NA,NA,NA,NA,NA,NA,NA,NA,NA,NA,NA,NA,NA,NA,NA,NA,NA,"true,true",0,NA,NA,NA,NA,NA,NA,NA,NA
audio-instructions,33,274622,0.0-6.0-0.0,voc_e2,12122,"[{""event"":""fullscreenenter"",""trial"":1,""time"":2846}]",NA,1314,static/audio/instructions9.wav,NA,0,NA,NA,NA,NA,NA,NA,NA,NA,NA,NA,NA,NA,NA,NA,NA,NA,NA,NA,NA,NA,NA,NA,NA,NA,NA
audio-instructions,34,287472,0.0-6.0-1.0,voc_e2,12122,"[{""event"":""fullscreenenter"",""trial"":1,""time"":2846}]",NA,730.9999999999418,static/audio/instructions10.wav,NA,0,NA,NA,NA,NA,NA,NA,NA,NA,NA,NA,NA,NA,NA,NA,NA,NA,NA,NA,NA,NA,NA,NA,NA,NA,NA
fcp-trial,35,302477,0.0-6.0-2.0,voc_e2,12122,"[{""event"":""fullscreenenter"",""trial"":1,""time"":2846}]",NA,NA,NA,NA,NA,0,#EDC948,#46d3c8,10,10,1,null,null,null,null,null,null,NA,0,practice,NA,NA,NA,NA,NA,NA,NA,NA,NA,NA
audio-instructions,36,315644,0.0-6.0-3.0,voc_e2,12122,"[{""event"":""fullscreenenter"",""trial"":1,""time"":2846}]",NA,2157.999999999942,static/audio/instructions11.wav,NA,0,NA,NA,NA,NA,NA,NA,NA,NA,NA,NA,NA,NA,NA,NA,NA,NA,NA,NA,NA,NA,NA,NA,NA,NA,NA
fcp-trial,37,319911,0.0-6.0-4.0,voc_e2,12122,"[{""event"":""fullscreenenter"",""trial"":1,""time"":2846}]",NA,NA,NA,NA,NA,6,#EDC948,#46d3c8,10,10,1,40,0,627,37,1,2127,10,1,practice,NA,NA,NA,NA,NA,NA,NA,NA,NA,NA
audio-instructions,38,339854,0.0-6.0-5.0,voc_e2,12122,"[{""event"":""fullscreenenter"",""trial"":1,""time"":2846}]",NA,1252,static/audio/instructions12.wav,NA,0,NA,NA,NA,NA,NA,NA,NA,NA,NA,NA,NA,NA,NA,NA,NA,NA,NA,NA,NA,NA,NA,NA,NA,NA,NA
audio-instructions,39,347898,0.0-6.0-6.0,voc_e2,12122,"[{""event"":""fullscreenenter"",""trial"":1,""time"":2846}]",NA,448,static/audio/instructions13.wav,NA,0,NA,NA,NA,NA,NA,NA,NA,NA,NA,NA,NA,NA,NA,NA,NA,NA,NA,NA,NA,NA,NA,NA,NA,NA,NA
audio-instructions,40,356758,0.0-6.0-7.0,voc_e2,12122,"[{""event"":""fullscreenenter"",""trial"":1,""time"":2846}]",NA,412,static/audio/instructions14.wav,NA,0,NA,NA,NA,NA,NA,NA,NA,NA,NA,NA,NA,NA,NA,NA,NA,NA,NA,NA,NA,NA,NA,NA,NA,NA,NA
audio-instructions,41,364179,0.0-7.0-0.0,voc_e2,12122,"[{""event"":""fullscreenenter"",""trial"":1,""time"":2846}]",NA,507,static/audio/instructions15.wav,NA,0,NA,NA,NA,NA,NA,NA,NA,NA,NA,NA,NA,NA,NA,NA,NA,NA,NA,NA,NA,NA,NA,NA,NA,NA,NA
audio-instructions,42,371452,0.0-7.0-1.0,voc_e2,12122,"[{""event"":""fullscreenenter"",""trial"":1,""time"":2846}]",NA,447.9999999999418,static/audio/instructions16.wav,NA,0,NA,NA,NA,NA,NA,NA,NA,NA,NA,NA,NA,NA,NA,NA,NA,NA,NA,NA,NA,NA,NA,NA,NA,NA,NA
audio-instructions,43,379543,0.0-7.0-2.0,voc_e2,12122,"[{""event"":""fullscreenenter"",""trial"":1,""time"":2846}]",NA,411,static/audio/instructions17.wav,NA,0,NA,NA,NA,NA,NA,NA,NA,NA,NA,NA,NA,NA,NA,NA,NA,NA,NA,NA,NA,NA,NA,NA,NA,NA,NA
audio-instructions,44,387800,0.0-7.0-3.0,voc_e2,12122,"[{""event"":""fullscreenenter"",""trial"":1,""time"":2846}]",NA,491,static/audio/instructions18.wav,NA,0,NA,NA,NA,NA,NA,NA,NA,NA,NA,NA,NA,NA,NA,NA,NA,NA,NA,NA,NA,NA,NA,NA,NA,NA,NA
audio-instructions,45,396311,0.0-7.0-4.0,voc_e2,12122,"[{""event"":""fullscreenenter"",""trial"":1,""time"":2846}]",NA,1769,static/audio/instructions19.wav,NA,0,NA,NA,NA,NA,NA,NA,NA,NA,NA,NA,NA,NA,NA,NA,NA,NA,NA,NA,NA,NA,NA,NA,NA,NA,NA
fcp-comprehension,46,414998,0.0-7.0-5.0,voc_e2,12122,"[{""event"":""fullscreenenter"",""trial"":1,""time"":2846}]",NA,18686,NA,NA,NA,NA,NA,NA,NA,NA,NA,NA,NA,NA,NA,NA,NA,NA,NA,NA,"false,false,false,true",0,NA,NA,NA,NA,NA,NA,NA,NA
audio-instructions,47,427475,0.0-8.0,voc_e2,12122,"[{""event"":""fullscreenenter"",""trial"":1,""time"":2846}]",NA,3258,static/audio/ready.wav,NA,0,NA,NA,NA,NA,NA,NA,NA,NA,NA,NA,NA,NA,NA,NA,NA,NA,NA,NA,NA,NA,NA,NA,NA,NA,NA
fcp-trial,48,433233,0.0-9.0-0.0,voc_e2,12122,"[{""event"":""fullscreenenter"",""trial"":1,""time"":2846}]",NA,NA,NA,NA,NA,3,#741CD8,#D8271C,0,10,1,38,1,2825,39,0,1411,10,0,experiment,NA,NA,2,0.5,0.5,4,5,1,1,NA
fcp-trial,49,438821,0.0-10.0-0.0,voc_e2,12122,"[{""event"":""fullscreenenter"",""trial"":1,""time"":2846}]",NA,NA,NA,NA,NA,3,#1CD855,#FA92F8,0,10,0,38,1,3354.999999999942,37,1,725.9999999999418,0,0,experiment,NA,NA,0,0.1,0.9,1,0,2,1,NA
fcp-trial,50,443122,0.0-11.0-0.0,voc_e2,12122,"[{""event"":""fullscreenenter"",""trial"":1,""time"":2846}]",NA,NA,NA,NA,NA,6,#FA92F8,#1CD855,10,0,1,38,1,2022,37,1,773,10,1,experiment,NA,NA,0,0.9,0.1,0,1,3,1,NA
fcp-trial,51,447672,0.0-12.0-0.0,voc_e2,12122,"[{""event"":""fullscreenenter"",""trial"":1,""time"":2846}]",NA,NA,NA,NA,NA,6,#D89F1C,#3386FF,0,10,0,38,1,2340,37,1,704,0,0,experiment,NA,NA,1,0.3,0.7,3,2,4,1,NA
fcp-trial,52,453240,0.0-13.0-0.0,voc_e2,12122,"[{""event"":""fullscreenenter"",""trial"":1,""time"":2846}]",NA,NA,NA,NA,NA,5,#741CD8,#D8271C,0,0,1,40,0,2714,39,0,1347.0000000000582,0,0,experiment,NA,NA,2,0.5,0.5,4,5,5,1,NA
fcp-trial,53,457588,0.0-14.0-0.0,voc_e2,12122,"[{""event"":""fullscreenenter"",""trial"":1,""time"":2846}]",NA,NA,NA,NA,NA,1,#741CD8,#D8271C,10,0,1,38,1,1726,37,1,1116,10,1,experiment,NA,NA,2,0.5,0.5,4,5,6,1,NA
fcp-trial,54,462173,0.0-15.0-0.0,voc_e2,12122,"[{""event"":""fullscreenenter"",""trial"":1,""time"":2846}]",NA,NA,NA,NA,NA,5,#1CD855,#FA92F8,0,10,0,40,0,2210.000000000058,37,1,867,0,0,experiment,NA,NA,0,0.1,0.9,1,0,7,1,NA
fcp-trial,55,466295,0.0-16.0-0.0,voc_e2,12122,"[{""event"":""fullscreenenter"",""trial"":1,""time"":2846}]",NA,NA,NA,NA,NA,2,#D8271C,#741CD8,10,0,0,38,1,1919.9999999999418,39,0,695,0,1,experiment,NA,NA,2,0.5,0.5,5,4,8,1,NA
fcp-trial,56,470078,0.0-17.0-0.0,voc_e2,12122,"[{""event"":""fullscreenenter"",""trial"":1,""time"":2846}]",NA,NA,NA,NA,NA,1,#3386FF,#D89F1C,10,0,1,38,1,1632,37,1,645,10,1,experiment,NA,NA,1,0.7,0.3,2,3,9,1,NA
fcp-trial,57,473848,0.0-18.0-0.0,voc_e2,12122,"[{""event"":""fullscreenenter"",""trial"":1,""time"":2846}]",NA,NA,NA,NA,NA,2,#3386FF,#D89F1C,10,0,1,38,1,1673,37,1,575,10,1,experiment,NA,NA,1,0.7,0.3,2,3,10,1,NA
fcp-trial,58,477778,0.0-19.0-0.0,voc_e2,12122,"[{""event"":""fullscreenenter"",""trial"":1,""time"":2846}]",NA,NA,NA,NA,NA,4,#1CD855,#FA92F8,0,10,0,38,1,1816,39,0,594,10,1,experiment,NA,NA,0,0.1,0.9,1,0,11,1,NA
fcp-trial,59,483789,0.0-20.0-0.0,voc_e2,12122,"[{""event"":""fullscreenenter"",""trial"":1,""time"":2846}]",NA,NA,NA,NA,NA,2,#1CD855,#FA92F8,0,10,0,38,1,2237,39,0,2253,10,1,experiment,NA,NA,0,0.1,0.9,1,0,12,1,NA
fcp-trial,60,487480,0.0-21.0-0.0,voc_e2,12122,"[{""event"":""fullscreenenter"",""trial"":1,""time"":2846}]",NA,NA,NA,NA,NA,4,#741CD8,#D8271C,10,0,1,38,1,1696,39,0,487,0,0,experiment,NA,NA,2,0.5,0.5,4,5,13,1,NA
fcp-trial,61,491113,0.0-22.0-0.0,voc_e2,12122,"[{""event"":""fullscreenenter"",""trial"":1,""time"":2846}]",NA,NA,NA,NA,NA,0,#3386FF,#D89F1C,10,0,1,38,1,1393,37,1,723.0000000000582,10,1,experiment,NA,NA,1,0.7,0.3,2,3,14,1,NA
fcp-trial,62,496338,0.0-23.0-0.0,voc_e2,12122,"[{""event"":""fullscreenenter"",""trial"":1,""time"":2846}]",NA,NA,NA,NA,NA,0,#1CD855,#FA92F8,0,10,0,38,1,2075.000000000058,39,0,1633,10,1,experiment,NA,NA,0,0.1,0.9,1,0,15,1,NA
fcp-trial,63,500857,0.0-24.0-0.0,voc_e2,12122,"[{""event"":""fullscreenenter"",""trial"":1,""time"":2846}]",NA,NA,NA,NA,NA,6,#D8271C,#741CD8,10,10,0,40,0,2169,37,1,841.9999999999418,10,0,experiment,NA,NA,2,0.5,0.5,5,4,16,1,NA
fcp-trial,64,504917,0.0-25.0-0.0,voc_e2,12122,"[{""event"":""fullscreenenter"",""trial"":1,""time"":2846}]",NA,NA,NA,NA,NA,5,#D89F1C,#3386FF,0,10,0,38,1,1889,39,0,665,10,1,experiment,NA,NA,1,0.3,0.7,3,2,17,1,NA
fcp-trial,65,508643,0.0-26.0-0.0,voc_e2,12122,"[{""event"":""fullscreenenter"",""trial"":1,""time"":2846}]",NA,NA,NA,NA,NA,1,#1CD855,#FA92F8,0,10,0,38,1,1610,39,0,610,10,1,experiment,NA,NA,0,0.1,0.9,1,0,18,1,NA
fcp-trial,66,512468,0.0-27.0-0.0,voc_e2,12122,"[{""event"":""fullscreenenter"",""trial"":1,""time"":2846}]",NA,NA,NA,NA,NA,4,#D89F1C,#3386FF,0,0,0,38,1,1866,39,0,452,0,1,experiment,NA,NA,1,0.3,0.7,3,2,19,1,NA
fcp-trial,67,518056,0.0-28.0-0.0,voc_e2,12122,"[{""event"":""fullscreenenter"",""trial"":1,""time"":2846}]",NA,NA,NA,NA,NA,0,#741CD8,#D8271C,10,10,1,38,1,2198,37,1,1883,10,1,experiment,NA,NA,2,0.5,0.5,4,5,20,1,NA
fcp-trial,68,521675,0.0-29.0-0.0,voc_e2,12122,"[{""event"":""fullscreenenter"",""trial"":1,""time"":2846}]",NA,NA,NA,NA,NA,3,#D89F1C,#3386FF,0,10,0,38,1,1594,39,0,518.0000000001164,10,1,experiment,NA,NA,1,0.3,0.7,3,2,21,1,NA
fcp-trial,69,525428,0.0-30.0-0.0,voc_e2,12122,"[{""event"":""fullscreenenter"",""trial"":1,""time"":2846}]",NA,NA,NA,NA,NA,1,#FA92F8,#1CD855,10,0,1,38,1,1752,37,1,495,10,1,experiment,NA,NA,0,0.9,0.1,0,1,22,1,NA
fcp-trial,70,528789,0.0-31.0-0.0,voc_e2,12122,"[{""event"":""fullscreenenter"",""trial"":1,""time"":2846}]",NA,NA,NA,NA,NA,0,#FA92F8,#1CD855,10,0,1,38,1,1199,37,1,655,10,1,experiment,NA,NA,0,0.9,0.1,0,1,23,1,NA
fcp-trial,71,533016,0.0-32.0-0.0,voc_e2,12122,"[{""event"":""fullscreenenter"",""trial"":1,""time"":2846}]",NA,NA,NA,NA,NA,0,#3386FF,#D89F1C,10,10,1,38,1,2228.9999999998836,37,1,492,10,1,experiment,NA,NA,1,0.7,0.3,2,3,24,1,NA
fcp-trial,72,537489,0.0-33.0-0.0,voc_e2,12122,"[{""event"":""fullscreenenter"",""trial"":1,""time"":2846}]",NA,NA,NA,NA,NA,1,#D8271C,#741CD8,0,10,0,38,1,1684,39,0,1283,10,1,experiment,NA,NA,2,0.5,0.5,5,4,25,1,NA
fcp-trial,73,540878,0.0-34.0-0.0,voc_e2,12122,"[{""event"":""fullscreenenter"",""trial"":1,""time"":2846}]",NA,NA,NA,NA,NA,0,#741CD8,#D8271C,10,10,1,38,1,1278,37,1,603,10,1,experiment,NA,NA,2,0.5,0.5,4,5,26,1,NA
fcp-trial,74,544161,0.0-35.0-0.0,voc_e2,12122,"[{""event"":""fullscreenenter"",""trial"":1,""time"":2846}]",NA,NA,NA,NA,NA,2,#3386FF,#D89F1C,10,10,1,38,1,1272,37,1,503,10,1,experiment,NA,NA,1,0.7,0.3,2,3,27,1,NA
fcp-trial,75,547923,0.0-36.0-0.0,voc_e2,12122,"[{""event"":""fullscreenenter"",""trial"":1,""time"":2846}]",NA,NA,NA,NA,NA,6,#FA92F8,#1CD855,10,0,1,38,1,1634,37,1,620,10,1,experiment,NA,NA,0,0.9,0.1,0,1,28,1,NA
fcp-trial,76,552533,0.0-37.0-0.0,voc_e2,12122,"[{""event"":""fullscreenenter"",""trial"":1,""time"":2846}]",NA,NA,NA,NA,NA,5,#D8271C,#741CD8,10,10,0,40,0,2430,39,0,673,10,1,experiment,NA,NA,2,0.5,0.5,5,4,29,1,NA
fcp-trial,77,556383,0.0-38.0-0.0,voc_e2,12122,"[{""event"":""fullscreenenter"",""trial"":1,""time"":2846}]",NA,NA,NA,NA,NA,1,#D89F1C,#3386FF,10,10,0,38,1,1612.0000000001164,39,0,732.9999999998836,10,1,experiment,NA,NA,1,0.3,0.7,3,2,30,1,NA
fcp-trial,78,560239,0.0-39.0-0.0,voc_e2,12122,"[{""event"":""fullscreenenter"",""trial"":1,""time"":2846}]",NA,NA,NA,NA,NA,6,#3386FF,#D89F1C,10,0,1,40,0,1511.0000000001164,39,0,837.9999999998836,0,0,experiment,NA,NA,1,0.7,0.3,2,3,31,1,NA
fcp-trial,79,564883,0.0-40.0-0.0,voc_e2,12122,"[{""event"":""fullscreenenter"",""trial"":1,""time"":2846}]",NA,NA,NA,NA,NA,3,#FA92F8,#1CD855,10,0,1,38,1,1618,37,1,1518,10,1,experiment,NA,NA,0,0.9,0.1,0,1,32,1,NA
fcp-trial,80,568838,0.0-41.0-0.0,voc_e2,12122,"[{""event"":""fullscreenenter"",""trial"":1,""time"":2846}]",NA,NA,NA,NA,NA,5,#1CD855,#FA92F8,10,10,0,40,0,1887,39,0,560,10,1,experiment,NA,NA,0,0.1,0.9,1,0,33,1,NA
fcp-trial,81,572622,0.0-42.0-0.0,voc_e2,12122,"[{""event"":""fullscreenenter"",""trial"":1,""time"":2846}]",NA,NA,NA,NA,NA,4,#D8271C,#741CD8,10,0,0,38,1,1657,39,0,621.0000000001164,0,1,experiment,NA,NA,2,0.5,0.5,5,4,34,1,NA
fcp-trial,82,576462,0.0-43.0-0.0,voc_e2,12122,"[{""event"":""fullscreenenter"",""trial"":1,""time"":2846}]",NA,NA,NA,NA,NA,5,#D89F1C,#3386FF,10,10,0,40,0,1426,37,1,905,10,0,experiment,NA,NA,1,0.3,0.7,3,2,35,1,NA
fcp-trial,83,580529,0.0-44.0-0.0,voc_e2,12122,"[{""event"":""fullscreenenter"",""trial"":1,""time"":2846}]",NA,NA,NA,NA,NA,2,#1CD855,#FA92F8,0,10,0,38,1,1746,39,0,799,10,1,experiment,NA,NA,0,0.1,0.9,1,0,36,1,NA
fcp-trial,84,585100,0.0-45.0-0.0,voc_e2,12122,"[{""event"":""fullscreenenter"",""trial"":1,""time"":2846}]",NA,NA,NA,NA,NA,4,#3386FF,#D89F1C,10,0,1,38,1,1705,37,1,1360,10,1,experiment,NA,NA,1,0.7,0.3,2,3,37,1,NA
fcp-trial,85,589106,0.0-46.0-0.0,voc_e2,12122,"[{""event"":""fullscreenenter"",""trial"":1,""time"":2846}]",NA,NA,NA,NA,NA,3,#D8271C,#741CD8,0,10,0,38,1,1766,39,0,722,10,1,experiment,NA,NA,2,0.5,0.5,5,4,38,1,NA
fcp-trial,86,592614,0.0-47.0-0.0,voc_e2,12122,"[{""event"":""fullscreenenter"",""trial"":1,""time"":2846}]",NA,NA,NA,NA,NA,3,#D89F1C,#3386FF,0,0,0,38,1,1365,39,0,635,0,1,experiment,NA,NA,1,0.3,0.7,3,2,39,1,NA
fcp-trial,87,596174,0.0-48.0-0.0,voc_e2,12122,"[{""event"":""fullscreenenter"",""trial"":1,""time"":2846}]",NA,NA,NA,NA,NA,4,#1CD855,#FA92F8,0,10,0,38,1,1565,39,0,476,10,1,experiment,NA,NA,0,0.1,0.9,1,0,40,1,NA
fcp-trial,88,599855,0.0-49.0-0.0,voc_e2,12122,"[{""event"":""fullscreenenter"",""trial"":1,""time"":2846}]",NA,NA,NA,NA,NA,6,#741CD8,#D8271C,10,0,1,40,0,1400,37,1,775,10,1,experiment,NA,NA,2,0.5,0.5,4,5,41,1,NA
fcp-trial,89,604645,0.0-50.0-0.0,voc_e2,12122,"[{""event"":""fullscreenenter"",""trial"":1,""time"":2846}]",NA,NA,NA,NA,NA,2,#D8271C,#741CD8,10,0,0,38,1,1859,39,0,1425,0,1,experiment,NA,NA,2,0.5,0.5,5,4,42,1,NA
fcp-trial,90,607779,0.0-51.0-0.0,voc_e2,12122,"[{""event"":""fullscreenenter"",""trial"":1,""time"":2846}]",NA,NA,NA,NA,NA,2,#FA92F8,#1CD855,10,0,1,38,1,1104.9999999998836,37,1,522,10,1,experiment,NA,NA,0,0.9,0.1,0,1,43,1,NA
fcp-trial,91,611100,0.0-52.0-0.0,voc_e2,12122,"[{""event"":""fullscreenenter"",""trial"":1,""time"":2846}]",NA,NA,NA,NA,NA,1,#3386FF,#D89F1C,10,0,1,38,1,1254,37,1,546,10,1,experiment,NA,NA,1,0.7,0.3,2,3,44,1,NA
fcp-trial,92,614668,0.0-53.0-0.0,voc_e2,12122,"[{""event"":""fullscreenenter"",""trial"":1,""time"":2846}]",NA,NA,NA,NA,NA,4,#FA92F8,#1CD855,10,0,1,38,1,1582,37,1,466,10,1,experiment,NA,NA,0,0.9,0.1,0,1,45,1,NA
fcp-trial,93,618234,0.0-54.0-0.0,voc_e2,12122,"[{""event"":""fullscreenenter"",""trial"":1,""time"":2846}]",NA,NA,NA,NA,NA,5,#D89F1C,#3386FF,0,0,0,40,0,1422,39,0,635.9999999998836,0,1,experiment,NA,NA,1,0.3,0.7,3,2,46,2,NA
fcp-trial,94,622073,0.0-55.0-0.0,voc_e2,12122,"[{""event"":""fullscreenenter"",""trial"":1,""time"":2846}]",NA,NA,NA,NA,NA,6,#741CD8,#D8271C,0,0,1,40,0,1621,37,1,711,0,1,experiment,NA,NA,2,0.5,0.5,4,5,47,2,NA
fcp-trial,95,625812,0.0-56.0-0.0,voc_e2,12122,"[{""event"":""fullscreenenter"",""trial"":1,""time"":2846}]",NA,NA,NA,NA,NA,0,#D89F1C,#3386FF,0,10,0,38,1,1749,39,0,482,10,1,experiment,NA,NA,1,0.3,0.7,3,2,48,2,NA
fcp-trial,96,629419,0.0-57.0-0.0,voc_e2,12122,"[{""event"":""fullscreenenter"",""trial"":1,""time"":2846}]",NA,NA,NA,NA,NA,3,#FA92F8,#1CD855,10,10,1,38,1,1388,37,1,713,10,1,experiment,NA,NA,0,0.9,0.1,0,1,49,2,NA
fcp-trial,97,632811,0.0-58.0-0.0,voc_e2,12122,"[{""event"":""fullscreenenter"",""trial"":1,""time"":2846}]",NA,NA,NA,NA,NA,4,#741CD8,#D8271C,0,10,1,38,1,1341.9999999998836,37,1,543,0,1,experiment,NA,NA,2,0.5,0.5,4,5,50,2,NA
fcp-trial,98,636074,0.0-59.0-0.0,voc_e2,12122,"[{""event"":""fullscreenenter"",""trial"":1,""time"":2846}]",NA,NA,NA,NA,NA,2,#741CD8,#D8271C,10,10,1,38,1,1206,37,1,549,10,1,experiment,NA,NA,2,0.5,0.5,4,5,51,2,NA
fcp-trial,99,639641,0.0-60.0-0.0,voc_e2,12122,"[{""event"":""fullscreenenter"",""trial"":1,""time"":2846}]",NA,NA,NA,NA,NA,6,#D89F1C,#3386FF,0,10,0,40,0,1338,39,0,722,10,1,experiment,NA,NA,1,0.3,0.7,3,2,52,2,NA
fcp-trial,100,644393,0.0-61.0-0.0,voc_e2,12122,"[{""event"":""fullscreenenter"",""trial"":1,""time"":2846}]",NA,NA,NA,NA,NA,1,#1CD855,#FA92F8,0,10,0,38,1,1582,39,0,1660,10,1,experiment,NA,NA,0,0.1,0.9,1,0,53,2,NA
fcp-trial,101,647852,0.0-62.0-0.0,voc_e2,12122,"[{""event"":""fullscreenenter"",""trial"":1,""time"":2846}]",NA,NA,NA,NA,NA,0,#D8271C,#741CD8,0,10,0,38,1,1323,39,0,628.9999999998836,10,1,experiment,NA,NA,2,0.5,0.5,5,4,54,2,NA
fcp-trial,102,651711,0.0-63.0-0.0,voc_e2,12122,"[{""event"":""fullscreenenter"",""trial"":1,""time"":2846}]",NA,NA,NA,NA,NA,0,#1CD855,#FA92F8,0,0,0,38,1,1365,39,0,986.9999999998836,0,1,experiment,NA,NA,0,0.1,0.9,1,0,55,2,NA
fcp-trial,103,655117,0.0-64.0-0.0,voc_e2,12122,"[{""event"":""fullscreenenter"",""trial"":1,""time"":2846}]",NA,NA,NA,NA,NA,4,#3386FF,#D89F1C,0,0,1,38,1,1241,37,1,658.0000000001164,0,1,experiment,NA,NA,1,0.7,0.3,2,3,56,2,NA
fcp-trial,104,658427,0.0-65.0-0.0,voc_e2,12122,"[{""event"":""fullscreenenter"",""trial"":1,""time"":2846}]",NA,NA,NA,NA,NA,1,#D8271C,#741CD8,0,10,0,38,1,1236,39,0,565,10,1,experiment,NA,NA,2,0.5,0.5,5,4,57,2,NA
fcp-trial,105,661945,0.0-66.0-0.0,voc_e2,12122,"[{""event"":""fullscreenenter"",""trial"":1,""time"":2846}]",NA,NA,NA,NA,NA,5,#FA92F8,#1CD855,10,10,1,40,0,1281,39,0,730.0000000001164,10,0,experiment,NA,NA,0,0.9,0.1,0,1,58,2,NA
fcp-trial,106,665456,0.0-67.0-0.0,voc_e2,12122,"[{""event"":""fullscreenenter"",""trial"":1,""time"":2846}]",NA,NA,NA,NA,NA,5,#741CD8,#D8271C,0,0,1,40,0,1165,39,0,838.9999999998836,0,0,experiment,NA,NA,2,0.5,0.5,4,5,59,2,NA
fcp-trial,107,669106,0.0-68.0-0.0,voc_e2,12122,"[{""event"":""fullscreenenter"",""trial"":1,""time"":2846}]",NA,NA,NA,NA,NA,3,#3386FF,#D89F1C,10,0,1,38,1,1482,37,1,660,10,1,experiment,NA,NA,1,0.7,0.3,2,3,60,2,NA
fcp-trial,108,672629,0.0-69.0-0.0,voc_e2,12122,"[{""event"":""fullscreenenter"",""trial"":1,""time"":2846}]",NA,NA,NA,NA,NA,3,#D8271C,#741CD8,10,0,0,38,1,1445,39,0,570.0000000001164,0,1,experiment,NA,NA,2,0.5,0.5,5,4,61,2,NA
fcp-trial,109,676575,0.0-70.0-0.0,voc_e2,12122,"[{""event"":""fullscreenenter"",""trial"":1,""time"":2846}]",NA,NA,NA,NA,NA,2,#3386FF,#D89F1C,10,0,1,38,1,1333.0000000001164,37,1,1105.0000000001164,10,1,experiment,NA,NA,1,0.7,0.3,2,3,62,2,NA
fcp-trial,110,680034,0.0-71.0-0.0,voc_e2,12122,"[{""event"":""fullscreenenter"",""trial"":1,""time"":2846}]",NA,NA,NA,NA,NA,6,#FA92F8,#1CD855,10,0,1,40,0,1226,37,1,726,10,1,experiment,NA,NA,0,0.9,0.1,0,1,63,2,NA
fcp-trial,111,683673,0.0-72.0-0.0,voc_e2,12122,"[{""event"":""fullscreenenter"",""trial"":1,""time"":2846}]",NA,NA,NA,NA,NA,5,#3386FF,#D89F1C,10,0,1,40,0,1461,37,1,671,10,1,experiment,NA,NA,1,0.7,0.3,2,3,64,2,NA
fcp-trial,112,687373,0.0-73.0-0.0,voc_e2,12122,"[{""event"":""fullscreenenter"",""trial"":1,""time"":2846}]",NA,NA,NA,NA,NA,5,#1CD855,#FA92F8,0,10,0,40,0,1257,37,1,938.0000000001164,0,0,experiment,NA,NA,0,0.1,0.9,1,0,65,2,NA
fcp-trial,113,690670,0.0-74.0-0.0,voc_e2,12122,"[{""event"":""fullscreenenter"",""trial"":1,""time"":2846}]",NA,NA,NA,NA,NA,4,#FA92F8,#1CD855,10,10,1,38,1,1250,37,1,540,10,1,experiment,NA,NA,0,0.9,0.1,0,1,66,2,NA
fcp-trial,114,694147,0.0-75.0-0.0,voc_e2,12122,"[{""event"":""fullscreenenter"",""trial"":1,""time"":2846}]",NA,NA,NA,NA,NA,6,#D89F1C,#3386FF,10,10,0,40,0,1269.9999999998836,39,0,700.0000000001164,10,1,experiment,NA,NA,1,0.3,0.7,3,2,67,2,NA
fcp-trial,115,697919,0.0-76.0-0.0,voc_e2,12122,"[{""event"":""fullscreenenter"",""trial"":1,""time"":2846}]",NA,NA,NA,NA,NA,0,#741CD8,#D8271C,0,0,1,38,1,1533,37,1,723,0,1,experiment,NA,NA,2,0.5,0.5,4,5,68,2,NA
fcp-trial,116,701640,0.0-77.0-0.0,voc_e2,12122,"[{""event"":""fullscreenenter"",""trial"":1,""time"":2846}]",NA,NA,NA,NA,NA,1,#D8271C,#741CD8,0,10,0,38,1,1748,39,0,466,10,1,experiment,NA,NA,2,0.5,0.5,5,4,69,2,NA
fcp-trial,117,706148,0.0-78.0-0.0,voc_e2,12122,"[{""event"":""fullscreenenter"",""trial"":1,""time"":2846}]",NA,NA,NA,NA,NA,4,#3386FF,#D89F1C,0,0,1,38,1,1673,37,1,1327,0,1,experiment,NA,NA,1,0.7,0.3,2,3,70,2,NA
fcp-trial,118,709794,0.0-79.0-0.0,voc_e2,12122,"[{""event"":""fullscreenenter"",""trial"":1,""time"":2846}]",NA,NA,NA,NA,NA,1,#FA92F8,#1CD855,10,0,1,38,1,1159,37,1,964,10,1,experiment,NA,NA,0,0.9,0.1,0,1,71,2,NA
fcp-trial,119,713299,0.0-80.0-0.0,voc_e2,12122,"[{""event"":""fullscreenenter"",""trial"":1,""time"":2846}]",NA,NA,NA,NA,NA,6,#1CD855,#FA92F8,0,10,0,40,0,1199.9999999998836,37,1,796,0,0,experiment,NA,NA,0,0.1,0.9,1,0,72,2,NA
fcp-trial,120,717258,0.0-81.0-0.0,voc_e2,12122,"[{""event"":""fullscreenenter"",""trial"":1,""time"":2846}]",NA,NA,NA,NA,NA,2,#D8271C,#741CD8,0,0,0,38,1,1332,39,0,1109,0,1,experiment,NA,NA,2,0.5,0.5,5,4,73,2,NA
fcp-trial,121,720836,0.0-82.0-0.0,voc_e2,12122,"[{""event"":""fullscreenenter"",""trial"":1,""time"":2846}]",NA,NA,NA,NA,NA,1,#D89F1C,#3386FF,0,10,0,38,1,1111,39,0,961,10,1,experiment,NA,NA,1,0.3,0.7,3,2,74,2,NA
fcp-trial,122,724773,0.0-83.0-0.0,voc_e2,12122,"[{""event"":""fullscreenenter"",""trial"":1,""time"":2846}]",NA,NA,NA,NA,NA,0,#1CD855,#FA92F8,0,10,0,38,1,1438,39,0,992,10,1,experiment,NA,NA,0,0.1,0.9,1,0,75,2,NA
fcp-trial,123,728291,0.0-84.0-0.0,voc_e2,12122,"[{""event"":""fullscreenenter"",""trial"":1,""time"":2846}]",NA,NA,NA,NA,NA,3,#D89F1C,#3386FF,0,10,0,38,1,1179,39,0,833.0000000001164,10,1,experiment,NA,NA,1,0.3,0.7,3,2,76,2,NA
fcp-trial,124,731762,0.0-85.0-0.0,voc_e2,12122,"[{""event"":""fullscreenenter"",""trial"":1,""time"":2846}]",NA,NA,NA,NA,NA,6,#D8271C,#741CD8,10,0,0,40,0,1192,37,1,771,10,0,experiment,NA,NA,2,0.5,0.5,5,4,77,2,NA
fcp-trial,125,735257,0.0-86.0-0.0,voc_e2,12122,"[{""event"":""fullscreenenter"",""trial"":1,""time"":2846}]",NA,NA,NA,NA,NA,2,#D89F1C,#3386FF,0,10,0,38,1,1189,39,0,798,10,1,experiment,NA,NA,1,0.3,0.7,3,2,78,2,NA
fcp-trial,126,740312,0.0-87.0-0.0,voc_e2,12122,"[{""event"":""fullscreenenter"",""trial"":1,""time"":2846}]",NA,NA,NA,NA,NA,2,#1CD855,#FA92F8,0,10,0,38,1,1212,39,0,2335,10,1,experiment,NA,NA,0,0.1,0.9,1,0,79,2,NA
fcp-trial,127,744352,0.0-88.0-0.0,voc_e2,12122,"[{""event"":""fullscreenenter"",""trial"":1,""time"":2846}]",NA,NA,NA,NA,NA,4,#741CD8,#D8271C,10,0,1,38,1,2085,37,1,448,10,1,experiment,NA,NA,2,0.5,0.5,4,5,80,2,NA
fcp-trial,128,751061,0.0-89.0-0.0,voc_e2,12122,"[{""event"":""fullscreenenter"",""trial"":1,""time"":2846}]",NA,NA,NA,NA,NA,0,#3386FF,#D89F1C,0,10,1,38,1,1612.0000000001164,37,1,3591.9999999998836,0,1,experiment,NA,NA,1,0.7,0.3,2,3,81,2,NA
fcp-trial,129,754217,0.0-90.0-0.0,voc_e2,12122,"[{""event"":""fullscreenenter"",""trial"":1,""time"":2846}]",NA,NA,NA,NA,NA,3,#D8271C,#741CD8,0,10,0,38,1,1017,39,0,632,10,1,experiment,NA,NA,2,0.5,0.5,5,4,82,2,NA
fcp-trial,130,757714,0.0-91.0-0.0,voc_e2,12122,"[{""event"":""fullscreenenter"",""trial"":1,""time"":2846}]",NA,NA,NA,NA,NA,5,#741CD8,#D8271C,10,0,1,40,0,1295,39,0,683,0,0,experiment,NA,NA,2,0.5,0.5,4,5,83,2,NA
fcp-trial,131,761164,0.0-92.0-0.0,voc_e2,12122,"[{""event"":""fullscreenenter"",""trial"":1,""time"":2846}]",NA,NA,NA,NA,NA,3,#FA92F8,#1CD855,10,10,1,38,1,1271.0000000001164,37,1,659,10,1,experiment,NA,NA,0,0.9,0.1,0,1,84,2,NA
fcp-trial,132,764637,0.0-93.0-0.0,voc_e2,12122,"[{""event"":""fullscreenenter"",""trial"":1,""time"":2846}]",NA,NA,NA,NA,NA,0,#D89F1C,#3386FF,0,10,0,38,1,1355,39,0,603,10,1,experiment,NA,NA,1,0.3,0.7,3,2,85,2,NA
fcp-trial,133,768619,0.0-94.0-0.0,voc_e2,12122,"[{""event"":""fullscreenenter"",""trial"":1,""time"":2846}]",NA,NA,NA,NA,NA,4,#741CD8,#D8271C,0,10,1,38,1,1931.9999999998836,37,1,543,0,1,experiment,NA,NA,2,0.5,0.5,4,5,86,2,NA
fcp-trial,134,772074,0.0-95.0-0.0,voc_e2,12122,"[{""event"":""fullscreenenter"",""trial"":1,""time"":2846}]",NA,NA,NA,NA,NA,6,#3386FF,#D89F1C,10,10,1,40,0,1162,39,0,786,10,0,experiment,NA,NA,1,0.7,0.3,2,3,87,2,NA
fcp-trial,135,775291,0.0-96.0-0.0,voc_e2,12122,"[{""event"":""fullscreenenter"",""trial"":1,""time"":2846}]",NA,NA,NA,NA,NA,0,#1CD855,#FA92F8,0,10,0,38,1,1248,39,0,461,10,1,experiment,NA,NA,0,0.1,0.9,1,0,88,2,NA
fcp-trial,136,778741,0.0-97.0-0.0,voc_e2,12122,"[{""event"":""fullscreenenter"",""trial"":1,""time"":2846}]",NA,NA,NA,NA,NA,5,#FA92F8,#1CD855,10,0,1,40,0,1333.0000000001164,37,1,609,10,1,experiment,NA,NA,0,0.9,0.1,0,1,89,2,NA
fcp-trial,137,782997,0.0-98.0-0.0,voc_e2,12122,"[{""event"":""fullscreenenter"",""trial"":1,""time"":2846}]",NA,NA,NA,NA,NA,1,#1CD855,#FA92F8,0,10,0,38,1,2029,39,0,723,10,1,experiment,NA,NA,0,0.1,0.9,1,0,90,2,NA
fcp-trial,138,786461,0.0-99.0-0.0,voc_e2,12122,"[{""event"":""fullscreenenter"",""trial"":1,""time"":2846}]",NA,NA,NA,NA,NA,3,#741CD8,#D8271C,0,10,1,38,1,1206,37,1,741,0,1,experiment,NA,NA,2,0.5,0.5,4,5,91,3,NA
fcp-trial,139,790478,0.0-100.0-0.0,voc_e2,12122,"[{""event"":""fullscreenenter"",""trial"":1,""time"":2846}]",NA,NA,NA,NA,NA,4,#3386FF,#D89F1C,0,0,1,38,1,981,37,1,1529,0,1,experiment,NA,NA,1,0.7,0.3,2,3,92,3,NA
fcp-trial,140,793746,0.0-101.0-0.0,voc_e2,12122,"[{""event"":""fullscreenenter"",""trial"":1,""time"":2846}]",NA,NA,NA,NA,NA,2,#FA92F8,#1CD855,0,0,1,38,1,1197,37,1,564,0,1,experiment,NA,NA,0,0.9,0.1,0,1,93,3,NA
fcp-trial,141,797653,0.0-102.0-0.0,voc_e2,12122,"[{""event"":""fullscreenenter"",""trial"":1,""time"":2846}]",NA,NA,NA,NA,NA,3,#1CD855,#FA92F8,0,10,0,38,1,1621,39,0,779,10,1,experiment,NA,NA,0,0.1,0.9,1,0,94,3,NA
fcp-trial,142,800674,0.0-103.0-0.0,voc_e2,12122,"[{""event"":""fullscreenenter"",""trial"":1,""time"":2846}]",NA,NA,NA,NA,NA,1,#D89F1C,#3386FF,0,10,0,38,1,966.0000000001164,39,0,549,10,1,experiment,NA,NA,1,0.3,0.7,3,2,95,3,NA
fcp-trial,143,804066,0.0-104.0-0.0,voc_e2,12122,"[{""event"":""fullscreenenter"",""trial"":1,""time"":2846}]",NA,NA,NA,NA,NA,1,#741CD8,#D8271C,0,0,1,38,1,960,37,1,924,0,1,experiment,NA,NA,2,0.5,0.5,4,5,96,3,NA
fcp-trial,144,807526,0.0-105.0-0.0,voc_e2,12122,"[{""event"":""fullscreenenter"",""trial"":1,""time"":2846}]",NA,NA,NA,NA,NA,3,#D89F1C,#3386FF,0,0,0,38,1,1420,39,0,521.9999999998836,0,1,experiment,NA,NA,1,0.3,0.7,3,2,97,3,NA
fcp-trial,145,810974,0.0-106.0-0.0,voc_e2,12122,"[{""event"":""fullscreenenter"",""trial"":1,""time"":2846}]",NA,NA,NA,NA,NA,5,#D8271C,#741CD8,10,0,0,40,0,1265,39,0,676.9999999998836,0,1,experiment,NA,NA,2,0.5,0.5,5,4,98,3,NA
fcp-trial,146,814751,0.0-107.0-0.0,voc_e2,12122,"[{""event"":""fullscreenenter"",""trial"":1,""time"":2846}]",NA,NA,NA,NA,NA,4,#FA92F8,#1CD855,10,10,1,38,1,1785,37,1,485,10,1,experiment,NA,NA,0,0.9,0.1,0,1,99,3,NA
fcp-trial,147,819041,0.0-108.0-0.0,voc_e2,12122,"[{""event"":""fullscreenenter"",""trial"":1,""time"":2846}]",NA,NA,NA,NA,NA,2,#D8271C,#741CD8,10,0,0,38,1,2357.0000000001164,39,0,424,0,1,experiment,NA,NA,2,0.5,0.5,5,4,100,3,NA
fcp-trial,148,823254,0.0-109.0-0.0,voc_e2,12122,"[{""event"":""fullscreenenter"",""trial"":1,""time"":2846}]",NA,NA,NA,NA,NA,0,#741CD8,#D8271C,10,10,1,38,1,1144,37,1,1562.0000000001164,10,1,experiment,NA,NA,2,0.5,0.5,4,5,101,3,NA
fcp-trial,149,826910,0.0-110.0-0.0,voc_e2,12122,"[{""event"":""fullscreenenter"",""trial"":1,""time"":2846}]",NA,NA,NA,NA,NA,5,#D89F1C,#3386FF,0,0,0,40,0,1132.0000000001164,37,1,1014,0,0,experiment,NA,NA,1,0.3,0.7,3,2,102,3,NA
fcp-trial,150,830087,0.0-111.0-0.0,voc_e2,12122,"[{""event"":""fullscreenenter"",""trial"":1,""time"":2846}]",NA,NA,NA,NA,NA,2,#D89F1C,#3386FF,0,10,0,38,1,1093,39,0,579,10,1,experiment,NA,NA,1,0.3,0.7,3,2,103,3,NA
fcp-trial,151,833614,0.0-112.0-0.0,voc_e2,12122,"[{""event"":""fullscreenenter"",""trial"":1,""time"":2846}]",NA,NA,NA,NA,NA,6,#FA92F8,#1CD855,0,0,1,40,0,1243,37,1,776,0,1,experiment,NA,NA,0,0.9,0.1,0,1,104,3,NA
fcp-trial,152,837091,0.0-113.0-0.0,voc_e2,12122,"[{""event"":""fullscreenenter"",""trial"":1,""time"":2846}]",NA,NA,NA,NA,NA,6,#D8271C,#741CD8,10,0,0,40,0,1013,37,1,943.0000000001164,10,0,experiment,NA,NA,2,0.5,0.5,5,4,105,3,NA
audio-instructions,153,988690,0.0-114.0,voc_e2,12122,"[{""event"":""fullscreenenter"",""trial"":1,""time"":2846}]",NA,147157,static/audio/pause.wav,NA,0,NA,NA,NA,NA,NA,NA,NA,NA,NA,NA,NA,NA,NA,NA,NA,NA,NA,NA,NA,NA,NA,NA,NA,NA,NA
fcp-trial,154,994147,0.0-115.0-0.0,voc_e2,12122,"[{""event"":""fullscreenenter"",""trial"":1,""time"":2846}]",NA,NA,NA,NA,NA,3,#D89F1C,#3386FF,0,0,0,38,1,2712,39,0,1237.0000000001164,0,1,experiment,NA,NA,1,0.3,0.7,3,2,106,3,NA
fcp-trial,155,998080,0.0-116.0-0.0,voc_e2,12122,"[{""event"":""fullscreenenter"",""trial"":1,""time"":2846}]",NA,NA,NA,NA,NA,3,#1CD855,#FA92F8,0,10,0,38,1,1593,39,0,821,10,1,experiment,NA,NA,0,0.1,0.9,1,0,107,3,NA
fcp-trial,156,1001326,0.0-117.0-0.0,voc_e2,12122,"[{""event"":""fullscreenenter"",""trial"":1,""time"":2846}]",NA,NA,NA,NA,NA,3,#D8271C,#741CD8,0,10,0,38,1,1179.0000000001164,39,0,559,10,1,experiment,NA,NA,2,0.5,0.5,5,4,108,3,NA
fcp-trial,157,1004395,0.0-118.0-0.0,voc_e2,12122,"[{""event"":""fullscreenenter"",""trial"":1,""time"":2846}]",NA,NA,NA,NA,NA,4,#D89F1C,#3386FF,10,10,0,38,1,1173,39,0,389.0000000001164,10,1,experiment,NA,NA,1,0.3,0.7,3,2,109,3,NA
fcp-trial,158,1007642,0.0-119.0-0.0,voc_e2,12122,"[{""event"":""fullscreenenter"",""trial"":1,""time"":2846}]",NA,NA,NA,NA,NA,0,#D8271C,#741CD8,10,0,0,38,1,900,39,0,841.9999999998836,0,1,experiment,NA,NA,2,0.5,0.5,5,4,110,3,NA
fcp-trial,159,1010509,0.0-120.0-0.0,voc_e2,12122,"[{""event"":""fullscreenenter"",""trial"":1,""time"":2846}]",NA,NA,NA,NA,NA,1,#D8271C,#741CD8,10,10,0,38,1,894,39,0,466.0000000001164,10,1,experiment,NA,NA,2,0.5,0.5,5,4,111,3,NA
fcp-trial,160,1013711,0.0-121.0-0.0,voc_e2,12122,"[{""event"":""fullscreenenter"",""trial"":1,""time"":2846}]",NA,NA,NA,NA,NA,6,#FA92F8,#1CD855,10,0,1,40,0,1033.0000000001164,37,1,662,10,1,experiment,NA,NA,0,0.9,0.1,0,1,112,3,NA
fcp-trial,161,1016903,0.0-122.0-0.0,voc_e2,12122,"[{""event"":""fullscreenenter"",""trial"":1,""time"":2846}]",NA,NA,NA,NA,NA,5,#3386FF,#D89F1C,0,0,1,40,0,1058.9999999998836,37,1,626,0,1,experiment,NA,NA,1,0.7,0.3,2,3,113,3,NA
fcp-trial,162,1019999,0.0-123.0-0.0,voc_e2,12122,"[{""event"":""fullscreenenter"",""trial"":1,""time"":2846}]",NA,NA,NA,NA,NA,6,#D8271C,#741CD8,10,10,0,40,0,834,37,1,755.0000000001164,10,0,experiment,NA,NA,2,0.5,0.5,5,4,114,3,NA
fcp-trial,163,1023046,0.0-124.0-0.0,voc_e2,12122,"[{""event"":""fullscreenenter"",""trial"":1,""time"":2846}]",NA,NA,NA,NA,NA,1,#D89F1C,#3386FF,0,10,0,38,1,958.0000000001164,39,0,581.9999999998836,10,1,experiment,NA,NA,1,0.3,0.7,3,2,115,3,NA
fcp-trial,164,1026276,0.0-125.0-0.0,voc_e2,12122,"[{""event"":""fullscreenenter"",""trial"":1,""time"":2846}]",NA,NA,NA,NA,NA,0,#1CD855,#FA92F8,0,10,0,38,1,1002,39,0,722,10,1,experiment,NA,NA,0,0.1,0.9,1,0,116,3,NA
fcp-trial,165,1029511,0.0-126.0-0.0,voc_e2,12122,"[{""event"":""fullscreenenter"",""trial"":1,""time"":2846}]",NA,NA,NA,NA,NA,2,#D8271C,#741CD8,10,10,0,38,1,1161,39,0,568,10,1,experiment,NA,NA,2,0.5,0.5,5,4,117,3,NA
fcp-trial,166,1033376,0.0-127.0-0.0,voc_e2,12122,"[{""event"":""fullscreenenter"",""trial"":1,""time"":2846}]",NA,NA,NA,NA,NA,1,#FA92F8,#1CD855,10,0,1,38,1,958,37,1,1399,10,1,experiment,NA,NA,0,0.9,0.1,0,1,118,3,NA
fcp-trial,167,1036482,0.0-128.0-0.0,voc_e2,12122,"[{""event"":""fullscreenenter"",""trial"":1,""time"":2846}]",NA,NA,NA,NA,NA,0,#D89F1C,#3386FF,0,10,0,38,1,1112,39,0,489,10,1,experiment,NA,NA,1,0.3,0.7,3,2,119,3,NA
fcp-trial,168,1039843,0.0-129.0-0.0,voc_e2,12122,"[{""event"":""fullscreenenter"",""trial"":1,""time"":2846}]",NA,NA,NA,NA,NA,4,#1CD855,#FA92F8,0,10,0,38,1,1419,39,0,422,10,1,experiment,NA,NA,0,0.1,0.9,1,0,120,3,NA
fcp-trial,169,1043522,0.0-130.0-0.0,voc_e2,12122,"[{""event"":""fullscreenenter"",""trial"":1,""time"":2846}]",NA,NA,NA,NA,NA,4,#D8271C,#741CD8,0,0,0,38,1,964,39,0,1206,0,1,experiment,NA,NA,2,0.5,0.5,5,4,121,3,NA
fcp-trial,170,1047481,0.0-131.0-0.0,voc_e2,12122,"[{""event"":""fullscreenenter"",""trial"":1,""time"":2846}]",NA,NA,NA,NA,NA,5,#741CD8,#D8271C,10,0,1,40,0,1563.9999999997672,39,0,888,0,0,experiment,NA,NA,2,0.5,0.5,4,5,122,3,NA
fcp-trial,171,1050966,0.0-132.0-0.0,voc_e2,12122,"[{""event"":""fullscreenenter"",""trial"":1,""time"":2846}]",NA,NA,NA,NA,NA,6,#3386FF,#D89F1C,0,0,1,40,0,1358,39,0,619,0,0,experiment,NA,NA,1,0.7,0.3,2,3,123,3,NA
fcp-trial,172,1054025,0.0-133.0-0.0,voc_e2,12122,"[{""event"":""fullscreenenter"",""trial"":1,""time"":2846}]",NA,NA,NA,NA,NA,5,#1CD855,#FA92F8,0,10,0,40,0,881,37,1,659.9999999997672,0,0,experiment,NA,NA,0,0.1,0.9,1,0,124,3,NA
fcp-trial,173,1058797,0.0-134.0-0.0,voc_e2,12122,"[{""event"":""fullscreenenter"",""trial"":1,""time"":2846}]",NA,NA,NA,NA,NA,2,#FA92F8,#1CD855,10,0,1,38,1,1045,37,1,2219,10,1,experiment,NA,NA,0,0.9,0.1,0,1,125,3,NA
fcp-trial,174,1061883,0.0-135.0-0.0,voc_e2,12122,"[{""event"":""fullscreenenter"",""trial"":1,""time"":2846}]",NA,NA,NA,NA,NA,2,#3386FF,#D89F1C,10,0,1,38,1,928,39,0,651,0,0,experiment,NA,NA,1,0.7,0.3,2,3,126,3,NA
fcp-trial,175,1064782,0.0-136.0-0.0,voc_e2,12122,"[{""event"":""fullscreenenter"",""trial"":1,""time"":2846}]",NA,NA,NA,NA,NA,0,#D8271C,#741CD8,10,10,0,38,1,850,39,0,527,10,1,experiment,NA,NA,2,0.5,0.5,5,4,127,3,NA
fcp-trial,176,1067937,0.0-137.0-0.0,voc_e2,12122,"[{""event"":""fullscreenenter"",""trial"":1,""time"":2846}]",NA,NA,NA,NA,NA,1,#3386FF,#D89F1C,10,0,1,38,1,920.9999999997672,37,1,728,10,1,experiment,NA,NA,1,0.7,0.3,2,3,128,3,NA
fcp-trial,177,1071105,0.0-138.0-0.0,voc_e2,12122,"[{""event"":""fullscreenenter"",""trial"":1,""time"":2846}]",NA,NA,NA,NA,NA,0,#3386FF,#D89F1C,10,0,1,38,1,967,37,1,695,10,1,experiment,NA,NA,1,0.7,0.3,2,3,129,3,NA
fcp-trial,178,1074342,0.0-139.0-0.0,voc_e2,12122,"[{""event"":""fullscreenenter"",""trial"":1,""time"":2846}]",NA,NA,NA,NA,NA,6,#D8271C,#741CD8,0,10,0,40,0,1120,39,0,609,10,1,experiment,NA,NA,2,0.5,0.5,5,4,130,3,NA
fcp-trial,179,1077759,0.0-140.0-0.0,voc_e2,12122,"[{""event"":""fullscreenenter"",""trial"":1,""time"":2846}]",NA,NA,NA,NA,NA,0,#1CD855,#FA92F8,0,10,0,38,1,1185,39,0,726.0000000002328,10,1,experiment,NA,NA,0,0.1,0.9,1,0,131,3,NA
fcp-trial,180,1081197,0.0-141.0-0.0,voc_e2,12122,"[{""event"":""fullscreenenter"",""trial"":1,""time"":2846}]",NA,NA,NA,NA,NA,6,#D89F1C,#3386FF,10,10,0,40,0,1145,39,0,786,10,1,experiment,NA,NA,1,0.3,0.7,3,2,132,3,NA
fcp-trial,181,1084993,0.0-142.0-0.0,voc_e2,12122,"[{""event"":""fullscreenenter"",""trial"":1,""time"":2846}]",NA,NA,NA,NA,NA,4,#3386FF,#D89F1C,10,0,1,40,0,1585.0000000002328,39,0,704,0,0,experiment,NA,NA,1,0.7,0.3,2,3,133,3,NA
fcp-trial,182,1088305,0.0-143.0-0.0,voc_e2,12122,"[{""event"":""fullscreenenter"",""trial"":1,""time"":2846}]",NA,NA,NA,NA,NA,1,#D8271C,#741CD8,0,0,0,38,1,1255,39,0,549,0,1,experiment,NA,NA,2,0.5,0.5,5,4,134,3,NA
fcp-trial,183,1092470,0.0-144.0-0.0,voc_e2,12122,"[{""event"":""fullscreenenter"",""trial"":1,""time"":2846}]",NA,NA,NA,NA,NA,3,#741CD8,#D8271C,10,10,1,38,1,1765.0000000002328,37,1,892,10,1,experiment,NA,NA,2,0.5,0.5,4,5,135,3,NA
fcp-trial,184,1095588,0.0-145.0-0.0,voc_e2,12122,"[{""event"":""fullscreenenter"",""trial"":1,""time"":2846}]",NA,NA,NA,NA,NA,6,#FA92F8,#1CD855,10,0,1,40,0,1017,39,0,593,0,0,experiment,NA,NA,0,0.9,0.1,0,1,136,4,NA
fcp-trial,185,1098609,0.0-146.0-0.0,voc_e2,12122,"[{""event"":""fullscreenenter"",""trial"":1,""time"":2846}]",NA,NA,NA,NA,NA,3,#3386FF,#D89F1C,0,0,1,38,1,986,37,1,528,0,1,experiment,NA,NA,1,0.7,0.3,2,3,137,4,NA
fcp-trial,186,1102060,0.0-147.0-0.0,voc_e2,12122,"[{""event"":""fullscreenenter"",""trial"":1,""time"":2846}]",NA,NA,NA,NA,NA,4,#FA92F8,#1CD855,10,0,1,38,1,1012,37,1,932,10,1,experiment,NA,NA,0,0.9,0.1,0,1,138,4,NA
fcp-trial,187,1105649,0.0-148.0-0.0,voc_e2,12122,"[{""event"":""fullscreenenter"",""trial"":1,""time"":2846}]",NA,NA,NA,NA,NA,4,#741CD8,#D8271C,0,0,1,38,1,1664.9999999997672,37,1,415,0,1,experiment,NA,NA,2,0.5,0.5,4,5,139,4,NA
fcp-trial,188,1108704,0.0-149.0-0.0,voc_e2,12122,"[{""event"":""fullscreenenter"",""trial"":1,""time"":2846}]",NA,NA,NA,NA,NA,1,#1CD855,#FA92F8,0,10,0,38,1,1031,39,0,507,10,1,experiment,NA,NA,0,0.1,0.9,1,0,140,4,NA
fcp-trial,189,1112078,0.0-150.0-0.0,voc_e2,12122,"[{""event"":""fullscreenenter"",""trial"":1,""time"":2846}]",NA,NA,NA,NA,NA,5,#D89F1C,#3386FF,0,10,0,40,0,1028,37,1,837.0000000002328,0,0,experiment,NA,NA,1,0.3,0.7,3,2,141,4,NA
fcp-trial,190,1115593,0.0-151.0-0.0,voc_e2,12122,"[{""event"":""fullscreenenter"",""trial"":1,""time"":2846}]",NA,NA,NA,NA,NA,3,#1CD855,#FA92F8,0,0,0,38,1,1527,39,0,482,0,1,experiment,NA,NA,0,0.1,0.9,1,0,142,4,NA
fcp-trial,191,1119032,0.0-152.0-0.0,voc_e2,12122,"[{""event"":""fullscreenenter"",""trial"":1,""time"":2846}]",NA,NA,NA,NA,NA,5,#1CD855,#FA92F8,0,10,0,40,0,1172,37,1,758,0,0,experiment,NA,NA,0,0.1,0.9,1,0,143,4,NA
fcp-trial,192,1121996,0.0-153.0-0.0,voc_e2,12122,"[{""event"":""fullscreenenter"",""trial"":1,""time"":2846}]",NA,NA,NA,NA,NA,5,#D8271C,#741CD8,0,10,0,40,0,854.9999999997672,39,0,601,10,1,experiment,NA,NA,2,0.5,0.5,5,4,144,4,NA
fcp-trial,193,1125414,0.0-154.0-0.0,voc_e2,12122,"[{""event"":""fullscreenenter"",""trial"":1,""time"":2846}]",NA,NA,NA,NA,NA,2,#D89F1C,#3386FF,0,10,0,38,1,1136,39,0,776,10,1,experiment,NA,NA,1,0.3,0.7,3,2,145,4,NA
fcp-trial,194,1128510,0.0-155.0-0.0,voc_e2,12122,"[{""event"":""fullscreenenter"",""trial"":1,""time"":2846}]",NA,NA,NA,NA,NA,2,#1CD855,#FA92F8,0,10,0,38,1,1026,39,0,562.0000000002328,10,1,experiment,NA,NA,0,0.1,0.9,1,0,146,4,NA
fcp-trial,195,1131455,0.0-156.0-0.0,voc_e2,12122,"[{""event"":""fullscreenenter"",""trial"":1,""time"":2846}]",NA,NA,NA,NA,NA,2,#741CD8,#D8271C,10,10,1,38,1,956,37,1,483,10,1,experiment,NA,NA,2,0.5,0.5,4,5,147,4,NA
fcp-trial,196,1134622,0.0-157.0-0.0,voc_e2,12122,"[{""event"":""fullscreenenter"",""trial"":1,""time"":2846}]",NA,NA,NA,NA,NA,5,#D89F1C,#3386FF,0,10,0,40,0,966,39,0,695,10,1,experiment,NA,NA,1,0.3,0.7,3,2,148,4,NA
fcp-trial,197,1138198,0.0-158.0-0.0,voc_e2,12122,"[{""event"":""fullscreenenter"",""trial"":1,""time"":2846}]",NA,NA,NA,NA,NA,0,#FA92F8,#1CD855,10,0,1,38,1,1343,37,1,726,10,1,experiment,NA,NA,0,0.9,0.1,0,1,149,4,NA
fcp-trial,198,1142010,0.0-159.0-0.0,voc_e2,12122,"[{""event"":""fullscreenenter"",""trial"":1,""time"":2846}]",NA,NA,NA,NA,NA,4,#741CD8,#D8271C,10,0,1,38,1,1310,37,1,994.0000000002328,10,1,experiment,NA,NA,2,0.5,0.5,4,5,150,4,NA
fcp-trial,199,1145100,0.0-160.0-0.0,voc_e2,12122,"[{""event"":""fullscreenenter"",""trial"":1,""time"":2846}]",NA,NA,NA,NA,NA,0,#3386FF,#D89F1C,10,10,1,38,1,1018,37,1,564,10,1,experiment,NA,NA,1,0.7,0.3,2,3,151,4,NA
fcp-trial,200,1148397,0.0-161.0-0.0,voc_e2,12122,"[{""event"":""fullscreenenter"",""trial"":1,""time"":2846}]",NA,NA,NA,NA,NA,3,#1CD855,#FA92F8,0,10,0,38,1,1313,39,0,462.99999999976717,10,1,experiment,NA,NA,0,0.1,0.9,1,0,152,4,NA
fcp-trial,201,1151637,0.0-162.0-0.0,voc_e2,12122,"[{""event"":""fullscreenenter"",""trial"":1,""time"":2846}]",NA,NA,NA,NA,NA,6,#3386FF,#D89F1C,10,0,1,40,0,965,37,1,770,10,1,experiment,NA,NA,1,0.7,0.3,2,3,153,4,NA
fcp-trial,202,1155061,0.0-163.0-0.0,voc_e2,12122,"[{""event"":""fullscreenenter"",""trial"":1,""time"":2846}]",NA,NA,NA,NA,NA,6,#D8271C,#741CD8,10,0,0,40,0,1034,37,1,882,10,0,experiment,NA,NA,2,0.5,0.5,5,4,154,4,NA
fcp-trial,203,1158183,0.0-164.0-0.0,voc_e2,12122,"[{""event"":""fullscreenenter"",""trial"":1,""time"":2846}]",NA,NA,NA,NA,NA,2,#741CD8,#D8271C,10,10,1,38,1,1156,37,1,461.00000000023283,10,1,experiment,NA,NA,2,0.5,0.5,4,5,155,4,NA
fcp-trial,204,1161487,0.0-165.0-0.0,voc_e2,12122,"[{""event"":""fullscreenenter"",""trial"":1,""time"":2846}]",NA,NA,NA,NA,NA,6,#1CD855,#FA92F8,0,10,0,40,0,973,39,0,808,10,1,experiment,NA,NA,0,0.1,0.9,1,0,156,4,NA
fcp-trial,205,1164565,0.0-166.0-0.0,voc_e2,12122,"[{""event"":""fullscreenenter"",""trial"":1,""time"":2846}]",NA,NA,NA,NA,NA,0,#741CD8,#D8271C,10,10,1,38,1,1162,37,1,408,10,1,experiment,NA,NA,2,0.5,0.5,4,5,157,4,NA
fcp-trial,206,1167916,0.0-167.0-0.0,voc_e2,12122,"[{""event"":""fullscreenenter"",""trial"":1,""time"":2846}]",NA,NA,NA,NA,NA,4,#D89F1C,#3386FF,10,10,0,38,1,1304.0000000002328,39,0,539,10,1,experiment,NA,NA,1,0.3,0.7,3,2,158,4,NA
fcp-trial,207,1172378,0.0-168.0-0.0,voc_e2,12122,"[{""event"":""fullscreenenter"",""trial"":1,""time"":2846}]",NA,NA,NA,NA,NA,4,#1CD855,#FA92F8,0,0,0,40,0,2368,39,0,588,0,1,experiment,NA,NA,0,0.1,0.9,1,0,159,4,NA
fcp-trial,208,1175660,0.0-169.0-0.0,voc_e2,12122,"[{""event"":""fullscreenenter"",""trial"":1,""time"":2846}]",NA,NA,NA,NA,NA,1,#1CD855,#FA92F8,0,10,0,38,1,1268,39,0,508,10,1,experiment,NA,NA,0,0.1,0.9,1,0,160,4,NA
fcp-trial,209,1178777,0.0-170.0-0.0,voc_e2,12122,"[{""event"":""fullscreenenter"",""trial"":1,""time"":2846}]",NA,NA,NA,NA,NA,1,#D89F1C,#3386FF,0,10,0,38,1,1156,39,0,456,10,1,experiment,NA,NA,1,0.3,0.7,3,2,161,4,NA
fcp-trial,210,1182300,0.0-171.0-0.0,voc_e2,12122,"[{""event"":""fullscreenenter"",""trial"":1,""time"":2846}]",NA,NA,NA,NA,NA,5,#D8271C,#741CD8,0,10,0,40,0,1357,39,0,660,10,1,experiment,NA,NA,2,0.5,0.5,5,4,162,4,NA
fcp-trial,211,1186171,0.0-172.0-0.0,voc_e2,12122,"[{""event"":""fullscreenenter"",""trial"":1,""time"":2846}]",NA,NA,NA,NA,NA,2,#1CD855,#FA92F8,0,10,0,38,1,1348,39,0,1005,10,1,experiment,NA,NA,0,0.1,0.9,1,0,163,4,NA
fcp-trial,212,1189847,0.0-173.0-0.0,voc_e2,12122,"[{""event"":""fullscreenenter"",""trial"":1,""time"":2846}]",NA,NA,NA,NA,NA,1,#D8271C,#741CD8,0,0,0,38,1,1419,37,1,751.0000000002328,0,0,experiment,NA,NA,2,0.5,0.5,5,4,164,4,NA
fcp-trial,213,1193084,0.0-174.0-0.0,voc_e2,12122,"[{""event"":""fullscreenenter"",""trial"":1,""time"":2846}]",NA,NA,NA,NA,NA,3,#D89F1C,#3386FF,0,0,0,38,1,1187.0000000002328,39,0,543,0,1,experiment,NA,NA,1,0.3,0.7,3,2,165,4,NA
fcp-trial,214,1196499,0.0-175.0-0.0,voc_e2,12122,"[{""event"":""fullscreenenter"",""trial"":1,""time"":2846}]",NA,NA,NA,NA,NA,3,#D8271C,#741CD8,10,0,0,38,1,1260,37,1,637,10,0,experiment,NA,NA,2,0.5,0.5,5,4,166,4,NA
fcp-trial,215,1200061,0.0-176.0-0.0,voc_e2,12122,"[{""event"":""fullscreenenter"",""trial"":1,""time"":2846}]",NA,NA,NA,NA,NA,2,#3386FF,#D89F1C,10,0,1,38,1,1126,37,1,928,10,1,experiment,NA,NA,1,0.7,0.3,2,3,167,4,NA
fcp-trial,216,1203160,0.0-177.0-0.0,voc_e2,12122,"[{""event"":""fullscreenenter"",""trial"":1,""time"":2846}]",NA,NA,NA,NA,NA,5,#1CD855,#FA92F8,10,10,0,40,0,1098.9999999997672,39,0,490,10,1,experiment,NA,NA,0,0.1,0.9,1,0,168,4,NA
fcp-trial,217,1207045,0.0-178.0-0.0,voc_e2,12122,"[{""event"":""fullscreenenter"",""trial"":1,""time"":2846}]",NA,NA,NA,NA,NA,2,#D89F1C,#3386FF,10,10,0,38,1,1124.0000000002328,37,1,1254.9999999997672,10,0,experiment,NA,NA,1,0.3,0.7,3,2,169,4,NA
fcp-trial,218,1209991,0.0-179.0-0.0,voc_e2,12122,"[{""event"":""fullscreenenter"",""trial"":1,""time"":2846}]",NA,NA,NA,NA,NA,1,#3386FF,#D89F1C,10,0,1,38,1,1010,37,1,429,10,1,experiment,NA,NA,1,0.7,0.3,2,3,170,4,NA
fcp-trial,219,1213839,0.0-180.0-0.0,voc_e2,12122,"[{""event"":""fullscreenenter"",""trial"":1,""time"":2846}]",NA,NA,NA,NA,NA,2,#FA92F8,#1CD855,10,0,1,38,1,1858,37,1,486,10,1,experiment,NA,NA,0,0.9,0.1,0,1,171,4,NA
fcp-trial,220,1217589,0.0-181.0-0.0,voc_e2,12122,"[{""event"":""fullscreenenter"",""trial"":1,""time"":2846}]",NA,NA,NA,NA,NA,5,#3386FF,#D89F1C,10,10,1,40,0,1493.0000000002328,37,1,750,10,1,experiment,NA,NA,1,0.7,0.3,2,3,172,4,NA
fcp-trial,221,1220604,0.0-182.0-0.0,voc_e2,12122,"[{""event"":""fullscreenenter"",""trial"":1,""time"":2846}]",NA,NA,NA,NA,NA,0,#FA92F8,#1CD855,10,0,1,38,1,1070,37,1,439.99999999976717,10,1,experiment,NA,NA,0,0.9,0.1,0,1,173,4,NA
fcp-trial,222,1223782,0.0-183.0-0.0,voc_e2,12122,"[{""event"":""fullscreenenter"",""trial"":1,""time"":2846}]",NA,NA,NA,NA,NA,3,#D8271C,#741CD8,10,10,0,38,1,1201,39,0,469,10,1,experiment,NA,NA,2,0.5,0.5,5,4,174,4,NA
fcp-trial,223,1226739,0.0-184.0-0.0,voc_e2,12122,"[{""event"":""fullscreenenter"",""trial"":1,""time"":2846}]",NA,NA,NA,NA,NA,1,#741CD8,#D8271C,10,10,1,38,1,1084,37,1,368,10,1,experiment,NA,NA,2,0.5,0.5,4,5,175,4,NA
fcp-trial,224,1230772,0.0-185.0-0.0,voc_e2,12122,"[{""event"":""fullscreenenter"",""trial"":1,""time"":2846}]",NA,NA,NA,NA,NA,4,#D89F1C,#3386FF,10,10,0,38,1,1255.0000000002328,39,0,1270.9999999997672,10,1,experiment,NA,NA,1,0.3,0.7,3,2,176,4,NA
fcp-trial,225,1234371,0.0-186.0-0.0,voc_e2,12122,"[{""event"":""fullscreenenter"",""trial"":1,""time"":2846}]",NA,NA,NA,NA,NA,5,#D8271C,#741CD8,10,10,0,40,0,1355,37,1,736,10,0,experiment,NA,NA,2,0.5,0.5,5,4,177,4,NA
fcp-trial,226,1237367,0.0-187.0-0.0,voc_e2,12122,"[{""event"":""fullscreenenter"",""trial"":1,""time"":2846}]",NA,NA,NA,NA,NA,4,#FA92F8,#1CD855,10,10,1,38,1,1059.0000000002328,37,1,422.00000000023283,10,1,experiment,NA,NA,0,0.9,0.1,0,1,178,4,NA
fcp-trial,227,1240760,0.0-188.0-0.0,voc_e2,12122,"[{""event"":""fullscreenenter"",""trial"":1,""time"":2846}]",NA,NA,NA,NA,NA,2,#741CD8,#D8271C,0,10,1,38,1,1349,37,1,527.0000000002328,0,1,experiment,NA,NA,2,0.5,0.5,4,5,179,4,NA
fcp-trial,228,1244006,0.0-189.0-0.0,voc_e2,12122,"[{""event"":""fullscreenenter"",""trial"":1,""time"":2846}]",NA,NA,NA,NA,NA,5,#1CD855,#FA92F8,0,10,0,40,0,1062,39,0,676,10,1,experiment,NA,NA,0,0.1,0.9,1,0,180,4,NA
fcp-trial,229,1247750,0.0-190.0-0.0,voc_e2,12122,"[{""event"":""fullscreenenter"",""trial"":1,""time"":2846}]",NA,NA,NA,NA,NA,6,#3386FF,#D89F1C,10,0,1,40,0,1548,39,0,688,0,0,experiment,NA,NA,1,0.7,0.3,2,3,181,5,NA
fcp-trial,230,1251197,0.0-191.0-0.0,voc_e2,12122,"[{""event"":""fullscreenenter"",""trial"":1,""time"":2846}]",NA,NA,NA,NA,NA,4,#D8271C,#741CD8,10,10,0,38,1,1388,39,0,550.9999999997672,10,1,experiment,NA,NA,2,0.5,0.5,5,4,182,5,NA
fcp-trial,231,1254349,0.0-192.0-0.0,voc_e2,12122,"[{""event"":""fullscreenenter"",""trial"":1,""time"":2846}]",NA,NA,NA,NA,NA,6,#741CD8,#D8271C,10,10,1,40,0,991,37,1,653,10,1,experiment,NA,NA,2,0.5,0.5,4,5,183,5,NA
fcp-trial,232,1257949,0.0-193.0-0.0,voc_e2,12122,"[{""event"":""fullscreenenter"",""trial"":1,""time"":2846}]",NA,NA,NA,NA,NA,1,#FA92F8,#1CD855,10,0,1,38,1,1571,37,1,520,10,1,experiment,NA,NA,0,0.9,0.1,0,1,184,5,NA
fcp-trial,233,1261349,0.0-194.0-0.0,voc_e2,12122,"[{""event"":""fullscreenenter"",""trial"":1,""time"":2846}]",NA,NA,NA,NA,NA,3,#1CD855,#FA92F8,0,10,0,38,1,1406,37,1,487,0,0,experiment,NA,NA,0,0.1,0.9,1,0,185,5,NA
fcp-trial,234,1265462,0.0-195.0-0.0,voc_e2,12122,"[{""event"":""fullscreenenter"",""trial"":1,""time"":2846}]",NA,NA,NA,NA,NA,0,#D89F1C,#3386FF,0,10,0,38,1,1933,39,0,672,10,1,experiment,NA,NA,1,0.3,0.7,3,2,186,5,NA
fcp-trial,235,1268663,0.0-196.0-0.0,voc_e2,12122,"[{""event"":""fullscreenenter"",""trial"":1,""time"":2846}]",NA,NA,NA,NA,NA,3,#3386FF,#D89F1C,10,0,1,38,1,1275,39,0,417,0,0,experiment,NA,NA,1,0.7,0.3,2,3,187,5,NA
fcp-trial,236,1271507,0.0-197.0-0.0,voc_e2,12122,"[{""event"":""fullscreenenter"",""trial"":1,""time"":2846}]",NA,NA,NA,NA,NA,0,#D8271C,#741CD8,0,0,0,38,1,916,39,0,421,0,1,experiment,NA,NA,2,0.5,0.5,5,4,188,5,NA
fcp-trial,237,1275434,0.0-198.0-0.0,voc_e2,12122,"[{""event"":""fullscreenenter"",""trial"":1,""time"":2846}]",NA,NA,NA,NA,NA,6,#FA92F8,#1CD855,0,0,1,40,0,1127,39,0,1293,0,0,experiment,NA,NA,0,0.9,0.1,0,1,189,5,NA
fcp-trial,238,1278714,0.0-199.0-0.0,voc_e2,12122,"[{""event"":""fullscreenenter"",""trial"":1,""time"":2846}]",NA,NA,NA,NA,NA,3,#D8271C,#741CD8,0,0,0,38,1,1390.9999999997672,39,0,368.00000000023283,0,1,experiment,NA,NA,2,0.5,0.5,5,4,190,5,NA
fcp-trial,239,1281834,0.0-200.0-0.0,voc_e2,12122,"[{""event"":""fullscreenenter"",""trial"":1,""time"":2846}]",NA,NA,NA,NA,NA,2,#3386FF,#D89F1C,10,0,1,38,1,1208,37,1,405,10,1,experiment,NA,NA,1,0.7,0.3,2,3,191,5,NA
fcp-trial,240,1285301,0.0-201.0-0.0,voc_e2,12122,"[{""event"":""fullscreenenter"",""trial"":1,""time"":2846}]",NA,NA,NA,NA,NA,5,#D8271C,#741CD8,10,10,0,40,0,1267,37,1,694,10,0,experiment,NA,NA,2,0.5,0.5,5,4,192,5,NA
fcp-trial,241,1289797,0.0-202.0-0.0,voc_e2,12122,"[{""event"":""fullscreenenter"",""trial"":1,""time"":2846}]",NA,NA,NA,NA,NA,4,#1CD855,#FA92F8,0,10,0,38,1,2561.999999999767,39,0,414,10,1,experiment,NA,NA,0,0.1,0.9,1,0,193,5,NA
fcp-trial,242,1292864,0.0-203.0-0.0,voc_e2,12122,"[{""event"":""fullscreenenter"",""trial"":1,""time"":2846}]",NA,NA,NA,NA,NA,4,#D89F1C,#3386FF,0,10,0,38,1,1152,39,0,407,10,1,experiment,NA,NA,1,0.3,0.7,3,2,194,5,NA
fcp-trial,243,1296055,0.0-204.0-0.0,voc_e2,12122,"[{""event"":""fullscreenenter"",""trial"":1,""time"":2846}]",NA,NA,NA,NA,NA,2,#FA92F8,#1CD855,0,0,1,38,1,1176,39,0,509,0,0,experiment,NA,NA,0,0.9,0.1,0,1,195,5,NA
fcp-trial,244,1299234,0.0-205.0-0.0,voc_e2,12122,"[{""event"":""fullscreenenter"",""trial"":1,""time"":2846}]",NA,NA,NA,NA,NA,2,#D8271C,#741CD8,0,0,0,38,1,1189.0000000002328,39,0,481,0,1,experiment,NA,NA,2,0.5,0.5,5,4,196,5,NA
fcp-trial,245,1302482,0.0-206.0-0.0,voc_e2,12122,"[{""event"":""fullscreenenter"",""trial"":1,""time"":2846}]",NA,NA,NA,NA,NA,3,#3386FF,#D89F1C,10,0,1,38,1,1378,37,1,348,10,1,experiment,NA,NA,1,0.7,0.3,2,3,197,5,NA
fcp-trial,246,1306113,0.0-207.0-0.0,voc_e2,12122,"[{""event"":""fullscreenenter"",""trial"":1,""time"":2846}]",NA,NA,NA,NA,NA,6,#D89F1C,#3386FF,0,10,0,40,0,1057,39,0,1067,10,1,experiment,NA,NA,1,0.3,0.7,3,2,198,5,NA
fcp-trial,247,1309496,0.0-208.0-0.0,voc_e2,12122,"[{""event"":""fullscreenenter"",""trial"":1,""time"":2846}]",NA,NA,NA,NA,NA,3,#1CD855,#FA92F8,0,10,0,38,1,1335,39,0,539,10,1,experiment,NA,NA,0,0.1,0.9,1,0,199,5,NA
fcp-trial,248,1312612,0.0-209.0-0.0,voc_e2,12122,"[{""event"":""fullscreenenter"",""trial"":1,""time"":2846}]",NA,NA,NA,NA,NA,4,#741CD8,#D8271C,10,0,1,38,1,1111,37,1,496,10,1,experiment,NA,NA,2,0.5,0.5,4,5,200,5,NA
fcp-trial,249,1315696,0.0-210.0-0.0,voc_e2,12122,"[{""event"":""fullscreenenter"",""trial"":1,""time"":2846}]",NA,NA,NA,NA,NA,0,#FA92F8,#1CD855,10,0,1,38,1,1144,37,1,433,10,1,experiment,NA,NA,0,0.9,0.1,0,1,201,5,NA
fcp-trial,250,1319712,0.0-211.0-0.0,voc_e2,12122,"[{""event"":""fullscreenenter"",""trial"":1,""time"":2846}]",NA,NA,NA,NA,NA,5,#D89F1C,#3386FF,0,10,0,40,0,1263,39,0,1245,10,1,experiment,NA,NA,1,0.3,0.7,3,2,202,5,NA
fcp-trial,251,1323194,0.0-212.0-0.0,voc_e2,12122,"[{""event"":""fullscreenenter"",""trial"":1,""time"":2846}]",NA,NA,NA,NA,NA,5,#1CD855,#FA92F8,10,10,0,40,0,1364,39,0,610,10,1,experiment,NA,NA,0,0.1,0.9,1,0,203,5,NA
fcp-trial,252,1326662,0.0-213.0-0.0,voc_e2,12122,"[{""event"":""fullscreenenter"",""trial"":1,""time"":2846}]",NA,NA,NA,NA,NA,6,#D8271C,#741CD8,10,0,0,40,0,1077,39,0,883,0,1,experiment,NA,NA,2,0.5,0.5,5,4,204,5,NA
fcp-trial,253,1329866,0.0-214.0-0.0,voc_e2,12122,"[{""event"":""fullscreenenter"",""trial"":1,""time"":2846}]",NA,NA,NA,NA,NA,0,#D8271C,#741CD8,0,0,0,38,1,1210,39,0,486,0,1,experiment,NA,NA,2,0.5,0.5,5,4,205,5,NA
fcp-trial,254,1332919,0.0-215.0-0.0,voc_e2,12122,"[{""event"":""fullscreenenter"",""trial"":1,""time"":2846}]",NA,NA,NA,NA,NA,1,#D89F1C,#3386FF,0,10,0,38,1,1122,39,0,424,10,1,experiment,NA,NA,1,0.3,0.7,3,2,206,5,NA
fcp-trial,255,1338164,0.0-216.0-0.0,voc_e2,12122,"[{""event"":""fullscreenenter"",""trial"":1,""time"":2846}]",NA,NA,NA,NA,NA,1,#1CD855,#FA92F8,0,0,0,38,1,1988,39,0,1735,0,1,experiment,NA,NA,0,0.1,0.9,1,0,207,5,NA
fcp-trial,256,1341258,0.0-217.0-0.0,voc_e2,12122,"[{""event"":""fullscreenenter"",""trial"":1,""time"":2846}]",NA,NA,NA,NA,NA,1,#741CD8,#D8271C,0,0,1,38,1,1112.0000000002328,37,1,476,0,1,experiment,NA,NA,2,0.5,0.5,4,5,208,5,NA
fcp-trial,257,1344601,0.0-218.0-0.0,voc_e2,12122,"[{""event"":""fullscreenenter"",""trial"":1,""time"":2846}]",NA,NA,NA,NA,NA,6,#1CD855,#FA92F8,0,10,0,40,0,1049,37,1,788,0,0,experiment,NA,NA,0,0.1,0.9,1,0,209,5,NA
fcp-trial,258,1347716,0.0-219.0-0.0,voc_e2,12122,"[{""event"":""fullscreenenter"",""trial"":1,""time"":2846}]",NA,NA,NA,NA,NA,0,#3386FF,#D89F1C,10,0,1,38,1,1122,37,1,476,10,1,experiment,NA,NA,1,0.7,0.3,2,3,210,5,NA
audio-instructions,259,1365530,0.0-220.0,voc_e2,12122,"[{""event"":""fullscreenenter"",""trial"":1,""time"":2846}]",NA,13368,static/audio/pause.wav,NA,0,NA,NA,NA,NA,NA,NA,NA,NA,NA,NA,NA,NA,NA,NA,NA,NA,NA,NA,NA,NA,NA,NA,NA,NA,NA
fcp-trial,260,1370100,0.0-221.0-0.0,voc_e2,12122,"[{""event"":""fullscreenenter"",""trial"":1,""time"":2846}]",NA,NA,NA,NA,NA,4,#1CD855,#FA92F8,0,10,0,38,1,2532.000000000233,39,0,519,10,1,experiment,NA,NA,0,0.1,0.9,1,0,211,5,NA
fcp-trial,261,1373329,0.0-222.0-0.0,voc_e2,12122,"[{""event"":""fullscreenenter"",""trial"":1,""time"":2846}]",NA,NA,NA,NA,NA,6,#1CD855,#FA92F8,0,10,0,40,0,916,37,1,805,0,0,experiment,NA,NA,0,0.1,0.9,1,0,212,5,NA
fcp-trial,262,1376522,0.0-223.0-0.0,voc_e2,12122,"[{""event"":""fullscreenenter"",""trial"":1,""time"":2846}]",NA,NA,NA,NA,NA,6,#D89F1C,#3386FF,0,10,0,40,0,941,37,1,747,0,0,experiment,NA,NA,1,0.3,0.7,3,2,213,5,NA
fcp-trial,263,1379701,0.0-224.0-0.0,voc_e2,12122,"[{""event"":""fullscreenenter"",""trial"":1,""time"":2846}]",NA,NA,NA,NA,NA,3,#D8271C,#741CD8,0,10,0,38,1,1199,39,0,472,10,1,experiment,NA,NA,2,0.5,0.5,5,4,214,5,NA
fcp-trial,264,1382678,0.0-225.0-0.0,voc_e2,12122,"[{""event"":""fullscreenenter"",""trial"":1,""time"":2846}]",NA,NA,NA,NA,NA,5,#D89F1C,#3386FF,0,10,0,40,0,980,39,0,478,10,1,experiment,NA,NA,1,0.3,0.7,3,2,215,5,NA
fcp-trial,265,1387441,0.0-226.0-0.0,voc_e2,12122,"[{""event"":""fullscreenenter"",""trial"":1,""time"":2846}]",NA,NA,NA,NA,NA,2,#1CD855,#FA92F8,10,10,0,38,1,2065,39,0,1193,10,1,experiment,NA,NA,0,0.1,0.9,1,0,216,5,NA
fcp-trial,266,1394390,0.0-227.0-0.0,voc_e2,12122,"[{""event"":""fullscreenenter"",""trial"":1,""time"":2846}]",NA,NA,NA,NA,NA,4,#3386FF,#D89F1C,0,10,1,38,1,4843.000000000233,37,1,598,0,1,experiment,NA,NA,1,0.7,0.3,2,3,217,5,NA
fcp-trial,267,1398414,0.0-228.0-0.0,voc_e2,12122,"[{""event"":""fullscreenenter"",""trial"":1,""time"":2846}]",NA,NA,NA,NA,NA,0,#FA92F8,#1CD855,10,0,1,38,1,1999,37,1,517,10,1,experiment,NA,NA,0,0.9,0.1,0,1,218,5,NA
fcp-trial,268,1401452,0.0-229.0-0.0,voc_e2,12122,"[{""event"":""fullscreenenter"",""trial"":1,""time"":2846}]",NA,NA,NA,NA,NA,6,#741CD8,#D8271C,10,0,1,40,0,960,37,1,570,10,1,experiment,NA,NA,2,0.5,0.5,4,5,219,5,NA
fcp-trial,269,1404245,0.0-230.0-0.0,voc_e2,12122,"[{""event"":""fullscreenenter"",""trial"":1,""time"":2846}]",NA,NA,NA,NA,NA,1,#D89F1C,#3386FF,0,0,0,38,1,881,39,0,391,0,1,experiment,NA,NA,1,0.3,0.7,3,2,220,5,NA
fcp-trial,270,1407129,0.0-231.0-0.0,voc_e2,12122,"[{""event"":""fullscreenenter"",""trial"":1,""time"":2846}]",NA,NA,NA,NA,NA,1,#FA92F8,#1CD855,10,0,1,38,1,808,37,1,571,10,1,experiment,NA,NA,0,0.9,0.1,0,1,221,5,NA
fcp-trial,271,1410046,0.0-232.0-0.0,voc_e2,12122,"[{""event"":""fullscreenenter"",""trial"":1,""time"":2846}]",NA,NA,NA,NA,NA,0,#3386FF,#D89F1C,10,0,1,38,1,1016,37,1,393,10,1,experiment,NA,NA,1,0.7,0.3,2,3,222,5,NA
fcp-trial,272,1413167,0.0-233.0-0.0,voc_e2,12122,"[{""event"":""fullscreenenter"",""trial"":1,""time"":2846}]",NA,NA,NA,NA,NA,3,#FA92F8,#1CD855,10,0,1,38,1,838,37,1,777.0000000002328,10,1,experiment,NA,NA,0,0.9,0.1,0,1,223,5,NA
fcp-trial,273,1416287,0.0-234.0-0.0,voc_e2,12122,"[{""event"":""fullscreenenter"",""trial"":1,""time"":2846}]",NA,NA,NA,NA,NA,5,#741CD8,#D8271C,10,0,1,40,0,1006,39,0,606,0,0,experiment,NA,NA,2,0.5,0.5,4,5,224,5,NA
fcp-trial,274,1419146,0.0-235.0-0.0,voc_e2,12122,"[{""event"":""fullscreenenter"",""trial"":1,""time"":2846}]",NA,NA,NA,NA,NA,4,#D8271C,#741CD8,0,10,0,38,1,861.9999999997672,39,0,480,10,1,experiment,NA,NA,2,0.5,0.5,5,4,225,5,NA
fcp-trial,275,1422448,0.0-236.0-0.0,voc_e2,12122,"[{""event"":""fullscreenenter"",""trial"":1,""time"":2846}]",NA,NA,NA,NA,NA,3,#D89F1C,#3386FF,0,10,0,38,1,1095,39,0,701,10,1,experiment,NA,NA,1,0.3,0.7,3,2,226,6,NA
fcp-trial,276,1425779,0.0-237.0-0.0,voc_e2,12122,"[{""event"":""fullscreenenter"",""trial"":1,""time"":2846}]",NA,NA,NA,NA,NA,0,#741CD8,#D8271C,10,0,1,38,1,1399,37,1,425,10,1,experiment,NA,NA,2,0.5,0.5,4,5,227,6,NA
fcp-trial,277,1428952,0.0-238.0-0.0,voc_e2,12122,"[{""event"":""fullscreenenter"",""trial"":1,""time"":2846}]",NA,NA,NA,NA,NA,5,#1CD855,#FA92F8,0,10,0,40,0,1100,39,0,565,10,1,experiment,NA,NA,0,0.1,0.9,1,0,228,6,NA
fcp-trial,278,1431730,0.0-239.0-0.0,voc_e2,12122,"[{""event"":""fullscreenenter"",""trial"":1,""time"":2846}]",NA,NA,NA,NA,NA,1,#741CD8,#D8271C,10,0,1,38,1,880,37,1,377,10,1,experiment,NA,NA,2,0.5,0.5,4,5,229,6,NA
fcp-trial,279,1434401,0.0-240.0-0.0,voc_e2,12122,"[{""event"":""fullscreenenter"",""trial"":1,""time"":2846}]",NA,NA,NA,NA,NA,2,#D89F1C,#3386FF,10,10,0,38,1,832,39,0,332,10,1,experiment,NA,NA,1,0.3,0.7,3,2,230,6,NA
fcp-trial,280,1437207,0.0-241.0-0.0,voc_e2,12122,"[{""event"":""fullscreenenter"",""trial"":1,""time"":2846}]",NA,NA,NA,NA,NA,2,#D8271C,#741CD8,10,10,0,38,1,860,39,0,427,10,1,experiment,NA,NA,2,0.5,0.5,5,4,231,6,NA
fcp-trial,281,1441249,0.0-242.0-0.0,voc_e2,12122,"[{""event"":""fullscreenenter"",""trial"":1,""time"":2846}]",NA,NA,NA,NA,NA,3,#D8271C,#741CD8,10,0,0,38,1,867,39,0,1667.9999999997672,0,1,experiment,NA,NA,2,0.5,0.5,5,4,232,6,NA
fcp-trial,282,1444167,0.0-243.0-0.0,voc_e2,12122,"[{""event"":""fullscreenenter"",""trial"":1,""time"":2846}]",NA,NA,NA,NA,NA,2,#3386FF,#D89F1C,10,0,1,38,1,797,37,1,614,10,1,experiment,NA,NA,1,0.7,0.3,2,3,233,6,NA
fcp-trial,283,1447201,0.0-244.0-0.0,voc_e2,12122,"[{""event"":""fullscreenenter"",""trial"":1,""time"":2846}]",NA,NA,NA,NA,NA,2,#D8271C,#741CD8,0,10,0,38,1,864.9999999997672,39,0,659,10,1,experiment,NA,NA,2,0.5,0.5,5,4,234,6,NA
fcp-trial,284,1450723,0.0-245.0-0.0,voc_e2,12122,"[{""event"":""fullscreenenter"",""trial"":1,""time"":2846}]",NA,NA,NA,NA,NA,6,#D8271C,#741CD8,10,10,0,40,0,1225,39,0,788,10,1,experiment,NA,NA,2,0.5,0.5,5,4,235,6,NA
fcp-trial,285,1454123,0.0-246.0-0.0,voc_e2,12122,"[{""event"":""fullscreenenter"",""trial"":1,""time"":2846}]",NA,NA,NA,NA,NA,5,#FA92F8,#1CD855,10,0,1,40,0,1321,37,1,570.9999999997672,10,1,experiment,NA,NA,0,0.9,0.1,0,1,236,6,NA
fcp-trial,286,1457128,0.0-247.0-0.0,voc_e2,12122,"[{""event"":""fullscreenenter"",""trial"":1,""time"":2846}]",NA,NA,NA,NA,NA,4,#3386FF,#D89F1C,0,0,1,38,1,1038,37,1,449.00000000023283,0,1,experiment,NA,NA,1,0.7,0.3,2,3,237,6,NA
fcp-trial,287,1459896,0.0-248.0-0.0,voc_e2,12122,"[{""event"":""fullscreenenter"",""trial"":1,""time"":2846}]",NA,NA,NA,NA,NA,1,#1CD855,#FA92F8,10,10,0,38,1,869,39,0,391,10,1,experiment,NA,NA,0,0.1,0.9,1,0,238,6,NA
fcp-trial,288,1462708,0.0-249.0-0.0,voc_e2,12122,"[{""event"":""fullscreenenter"",""trial"":1,""time"":2846}]",NA,NA,NA,NA,NA,4,#741CD8,#D8271C,0,0,1,38,1,881.0000000002328,37,1,425,0,1,experiment,NA,NA,2,0.5,0.5,4,5,239,6,NA
fcp-trial,289,1466891,0.0-250.0-0.0,voc_e2,12122,"[{""event"":""fullscreenenter"",""trial"":1,""time"":2846}]",NA,NA,NA,NA,NA,1,#3386FF,#D89F1C,10,0,1,38,1,1009,37,1,1668,10,1,experiment,NA,NA,1,0.7,0.3,2,3,240,6,NA
fcp-trial,290,1470108,0.0-251.0-0.0,voc_e2,12122,"[{""event"":""fullscreenenter"",""trial"":1,""time"":2846}]",NA,NA,NA,NA,NA,6,#D89F1C,#3386FF,0,0,0,40,0,1031.9999999997672,39,0,678,0,1,experiment,NA,NA,1,0.3,0.7,3,2,241,6,NA
fcp-trial,291,1473296,0.0-252.0-0.0,voc_e2,12122,"[{""event"":""fullscreenenter"",""trial"":1,""time"":2846}]",NA,NA,NA,NA,NA,5,#D89F1C,#3386FF,0,10,0,40,0,1029,39,0,653,10,1,experiment,NA,NA,1,0.3,0.7,3,2,242,6,NA
fcp-trial,292,1476530,0.0-253.0-0.0,voc_e2,12122,"[{""event"":""fullscreenenter"",""trial"":1,""time"":2846}]",NA,NA,NA,NA,NA,4,#1CD855,#FA92F8,10,10,0,38,1,1310.9999999997672,39,0,416,10,1,experiment,NA,NA,0,0.1,0.9,1,0,243,6,NA
fcp-trial,293,1480140,0.0-254.0-0.0,voc_e2,12122,"[{""event"":""fullscreenenter"",""trial"":1,""time"":2846}]",NA,NA,NA,NA,NA,1,#D8271C,#741CD8,0,10,0,38,1,1574,39,0,526,10,1,experiment,NA,NA,2,0.5,0.5,5,4,244,6,NA
fcp-trial,294,1483425,0.0-255.0-0.0,voc_e2,12122,"[{""event"":""fullscreenenter"",""trial"":1,""time"":2846}]",NA,NA,NA,NA,NA,0,#741CD8,#D8271C,0,10,1,38,1,1173,37,1,603.9999999997672,0,1,experiment,NA,NA,2,0.5,0.5,4,5,245,6,NA
fcp-trial,295,1486779,0.0-256.0-0.0,voc_e2,12122,"[{""event"":""fullscreenenter"",""trial"":1,""time"":2846}]",NA,NA,NA,NA,NA,6,#FA92F8,#1CD855,10,0,1,40,0,1152,37,1,695,10,1,experiment,NA,NA,0,0.9,0.1,0,1,246,6,NA
fcp-trial,296,1490030,0.0-257.0-0.0,voc_e2,12122,"[{""event"":""fullscreenenter"",""trial"":1,""time"":2846}]",NA,NA,NA,NA,NA,0,#D89F1C,#3386FF,0,10,0,38,1,1185,39,0,557,10,1,experiment,NA,NA,1,0.3,0.7,3,2,247,6,NA
fcp-trial,297,1493245,0.0-258.0-0.0,voc_e2,12122,"[{""event"":""fullscreenenter"",""trial"":1,""time"":2846}]",NA,NA,NA,NA,NA,5,#D8271C,#741CD8,10,0,0,40,0,1077,39,0,631.0000000002328,0,1,experiment,NA,NA,2,0.5,0.5,5,4,248,6,NA
fcp-trial,298,1497186,0.0-259.0-0.0,voc_e2,12122,"[{""event"":""fullscreenenter"",""trial"":1,""time"":2846}]",NA,NA,NA,NA,NA,3,#1CD855,#FA92F8,0,10,0,38,1,1581,39,0,853,10,1,experiment,NA,NA,0,0.1,0.9,1,0,249,6,NA
fcp-trial,299,1500849,0.0-260.0-0.0,voc_e2,12122,"[{""event"":""fullscreenenter"",""trial"":1,""time"":2846}]",NA,NA,NA,NA,NA,2,#1CD855,#FA92F8,0,10,0,38,1,1485.9999999997672,39,0,656,10,1,experiment,NA,NA,0,0.1,0.9,1,0,250,6,NA
fcp-trial,300,1504280,0.0-261.0-0.0,voc_e2,12122,"[{""event"":""fullscreenenter"",""trial"":1,""time"":2846}]",NA,NA,NA,NA,NA,3,#D89F1C,#3386FF,0,10,0,38,1,1520,39,0,404,10,1,experiment,NA,NA,1,0.3,0.7,3,2,251,6,NA
fcp-trial,301,1507168,0.0-262.0-0.0,voc_e2,12122,"[{""event"":""fullscreenenter"",""trial"":1,""time"":2846}]",NA,NA,NA,NA,NA,0,#1CD855,#FA92F8,0,10,0,38,1,1028,39,0,353.00000000023283,10,1,experiment,NA,NA,0,0.1,0.9,1,0,252,6,NA
fcp-trial,302,1510512,0.0-263.0-0.0,voc_e2,12122,"[{""event"":""fullscreenenter"",""trial"":1,""time"":2846}]",NA,NA,NA,NA,NA,5,#D89F1C,#3386FF,0,10,0,40,0,1082,37,1,755,0,0,experiment,NA,NA,1,0.3,0.7,3,2,253,6,NA
fcp-trial,303,1514582,0.0-264.0-0.0,voc_e2,12122,"[{""event"":""fullscreenenter"",""trial"":1,""time"":2846}]",NA,NA,NA,NA,NA,1,#D89F1C,#3386FF,0,10,0,38,1,1185,37,1,1377.0000000002328,0,0,experiment,NA,NA,1,0.3,0.7,3,2,254,6,NA
fcp-trial,304,1517280,0.0-265.0-0.0,voc_e2,12122,"[{""event"":""fullscreenenter"",""trial"":1,""time"":2846}]",NA,NA,NA,NA,NA,2,#D8271C,#741CD8,0,0,0,38,1,804,39,0,389,0,1,experiment,NA,NA,2,0.5,0.5,5,4,255,6,NA
fcp-trial,305,1521357,0.0-266.0-0.0,voc_e2,12122,"[{""event"":""fullscreenenter"",""trial"":1,""time"":2846}]",NA,NA,NA,NA,NA,3,#D89F1C,#3386FF,0,10,0,38,1,1628,37,1,943,0,0,experiment,NA,NA,1,0.3,0.7,3,2,256,6,NA
fcp-trial,306,1524169,0.0-267.0-0.0,voc_e2,12122,"[{""event"":""fullscreenenter"",""trial"":1,""time"":2846}]",NA,NA,NA,NA,NA,4,#1CD855,#FA92F8,0,10,0,38,1,978.0000000002328,39,0,327,10,1,experiment,NA,NA,0,0.1,0.9,1,0,257,6,NA
fcp-trial,307,1527358,0.0-268.0-0.0,voc_e2,12122,"[{""event"":""fullscreenenter"",""trial"":1,""time"":2846}]",NA,NA,NA,NA,NA,3,#1CD855,#FA92F8,0,0,0,38,1,1255,39,0,428,0,1,experiment,NA,NA,0,0.1,0.9,1,0,258,6,NA
fcp-trial,308,1530180,0.0-269.0-0.0,voc_e2,12122,"[{""event"":""fullscreenenter"",""trial"":1,""time"":2846}]",NA,NA,NA,NA,NA,2,#FA92F8,#1CD855,10,0,1,38,1,934,37,1,383,10,1,experiment,NA,NA,0,0.9,0.1,0,1,259,6,NA
fcp-trial,309,1533465,0.0-270.0-0.0,voc_e2,12122,"[{""event"":""fullscreenenter"",""trial"":1,""time"":2846}]",NA,NA,NA,NA,NA,5,#741CD8,#D8271C,10,0,1,40,0,1032,39,0,745,0,0,experiment,NA,NA,2,0.5,0.5,4,5,260,6,NA
fcp-trial,310,1536768,0.0-271.0-0.0,voc_e2,12122,"[{""event"":""fullscreenenter"",""trial"":1,""time"":2846}]",NA,NA,NA,NA,NA,2,#3386FF,#D89F1C,10,10,1,38,1,1287,37,1,510,10,1,experiment,NA,NA,1,0.7,0.3,2,3,261,6,NA
fcp-trial,311,1539621,0.0-272.0-0.0,voc_e2,12122,"[{""event"":""fullscreenenter"",""trial"":1,""time"":2846}]",NA,NA,NA,NA,NA,1,#D8271C,#741CD8,10,10,0,38,1,855.0000000002328,39,0,490.00000000023283,10,1,experiment,NA,NA,2,0.5,0.5,5,4,262,6,NA
fcp-trial,312,1545452,0.0-273.0-0.0,voc_e2,12122,"[{""event"":""fullscreenenter"",""trial"":1,""time"":2846}]",NA,NA,NA,NA,NA,0,#1CD855,#FA92F8,0,10,0,38,1,2533,39,0,1776,10,1,experiment,NA,NA,0,0.1,0.9,1,0,263,6,NA
fcp-trial,313,1549029,0.0-274.0-0.0,voc_e2,12122,"[{""event"":""fullscreenenter"",""trial"":1,""time"":2846}]",NA,NA,NA,NA,NA,6,#FA92F8,#1CD855,10,0,1,40,0,1161.0000000002328,39,0,908.9999999997672,0,0,experiment,NA,NA,0,0.9,0.1,0,1,264,6,NA
fcp-trial,314,1555704,0.0-275.0-0.0,voc_e2,12122,"[{""event"":""fullscreenenter"",""trial"":1,""time"":2846}]",NA,NA,NA,NA,NA,4,#D8271C,#741CD8,10,10,0,38,1,4190,39,0,979,10,1,experiment,NA,NA,2,0.5,0.5,5,4,265,6,NA
fcp-trial,315,1559024,0.0-276.0-0.0,voc_e2,12122,"[{""event"":""fullscreenenter"",""trial"":1,""time"":2846}]",NA,NA,NA,NA,NA,6,#3386FF,#D89F1C,10,0,1,40,0,1099,39,0,702,0,0,experiment,NA,NA,1,0.7,0.3,2,3,266,6,NA
fcp-trial,316,1562184,0.0-277.0-0.0,voc_e2,12122,"[{""event"":""fullscreenenter"",""trial"":1,""time"":2846}]",NA,NA,NA,NA,NA,0,#741CD8,#D8271C,10,10,1,38,1,1248.0000000002328,37,1,390.99999999976717,10,1,experiment,NA,NA,2,0.5,0.5,4,5,267,6,NA
fcp-trial,317,1565197,0.0-278.0-0.0,voc_e2,12122,"[{""event"":""fullscreenenter"",""trial"":1,""time"":2846}]",NA,NA,NA,NA,NA,6,#D8271C,#741CD8,10,10,0,40,0,838,39,0,667.0000000002328,10,1,experiment,NA,NA,2,0.5,0.5,5,4,268,6,NA
fcp-trial,318,1568026,0.0-279.0-0.0,voc_e2,12122,"[{""event"":""fullscreenenter"",""trial"":1,""time"":2846}]",NA,NA,NA,NA,NA,5,#1CD855,#FA92F8,0,10,0,40,0,811,39,0,512,10,1,experiment,NA,NA,0,0.1,0.9,1,0,269,6,NA
fcp-trial,319,1572567,0.0-280.0-0.0,voc_e2,12122,"[{""event"":""fullscreenenter"",""trial"":1,""time"":2846}]",NA,NA,NA,NA,NA,4,#3386FF,#D89F1C,10,10,1,40,0,2325,39,0,708,10,0,experiment,NA,NA,1,0.7,0.3,2,3,270,6,NA
fcp-trial,320,1576358,0.0-281.0-0.0,voc_e2,12122,"[{""event"":""fullscreenenter"",""trial"":1,""time"":2846}]",NA,NA,NA,NA,NA,0,#D89F1C,#3386FF,10,10,0,38,1,1387.9999999997672,39,0,898,10,1,experiment,NA,NA,1,0.3,0.7,3,2,271,7,NA
fcp-trial,321,1579364,0.0-282.0-0.0,voc_e2,12122,"[{""event"":""fullscreenenter"",""trial"":1,""time"":2846}]",NA,NA,NA,NA,NA,3,#741CD8,#D8271C,10,10,1,38,1,1032,37,1,465,10,1,experiment,NA,NA,2,0.5,0.5,4,5,272,7,NA
fcp-trial,322,1582380,0.0-283.0-0.0,voc_e2,12122,"[{""event"":""fullscreenenter"",""trial"":1,""time"":2846}]",NA,NA,NA,NA,NA,1,#1CD855,#FA92F8,0,10,0,38,1,1109.9999999997672,39,0,399,10,1,experiment,NA,NA,0,0.1,0.9,1,0,273,7,NA
fcp-trial,323,1585596,0.0-284.0-0.0,voc_e2,12122,"[{""event"":""fullscreenenter"",""trial"":1,""time"":2846}]",NA,NA,NA,NA,NA,5,#D8271C,#741CD8,0,10,0,40,0,1045,39,0,665,10,1,experiment,NA,NA,2,0.5,0.5,5,4,274,7,NA
fcp-trial,324,1588769,0.0-285.0-0.0,voc_e2,12122,"[{""event"":""fullscreenenter"",""trial"":1,""time"":2846}]",NA,NA,NA,NA,NA,6,#FA92F8,#1CD855,10,0,1,40,0,994,37,1,671,10,1,experiment,NA,NA,0,0.9,0.1,0,1,275,7,NA
fcp-trial,325,1592236,0.0-286.0-0.0,voc_e2,12122,"[{""event"":""fullscreenenter"",""trial"":1,""time"":2846}]",NA,NA,NA,NA,NA,0,#741CD8,#D8271C,10,0,1,38,1,1195,39,0,751.0000000002328,0,0,experiment,NA,NA,2,0.5,0.5,4,5,276,7,NA
fcp-trial,326,1594915,0.0-287.0-0.0,voc_e2,12122,"[{""event"":""fullscreenenter"",""trial"":1,""time"":2846}]",NA,NA,NA,NA,NA,0,#3386FF,#D89F1C,10,10,1,38,1,778,37,1,384,10,1,experiment,NA,NA,1,0.7,0.3,2,3,277,7,NA
fcp-trial,327,1598050,0.0-288.0-0.0,voc_e2,12122,"[{""event"":""fullscreenenter"",""trial"":1,""time"":2846}]",NA,NA,NA,NA,NA,6,#D89F1C,#3386FF,0,10,0,40,0,1010,39,0,617,10,1,experiment,NA,NA,1,0.3,0.7,3,2,278,7,NA
fcp-trial,328,1600930,0.0-289.0-0.0,voc_e2,12122,"[{""event"":""fullscreenenter"",""trial"":1,""time"":2846}]",NA,NA,NA,NA,NA,2,#1CD855,#FA92F8,0,10,0,38,1,943,39,0,430,10,1,experiment,NA,NA,0,0.1,0.9,1,0,279,7,NA
fcp-trial,329,1604177,0.0-290.0-0.0,voc_e2,12122,"[{""event"":""fullscreenenter"",""trial"":1,""time"":2846}]",NA,NA,NA,NA,NA,2,#3386FF,#D89F1C,10,10,1,38,1,977,37,1,762,10,1,experiment,NA,NA,1,0.7,0.3,2,3,280,7,NA
fcp-trial,330,1607322,0.0-291.0-0.0,voc_e2,12122,"[{""event"":""fullscreenenter"",""trial"":1,""time"":2846}]",NA,NA,NA,NA,NA,6,#741CD8,#D8271C,0,10,1,40,0,967.0000000002328,37,1,671.9999999997672,0,1,experiment,NA,NA,2,0.5,0.5,4,5,281,7,NA
fcp-trial,331,1610285,0.0-292.0-0.0,voc_e2,12122,"[{""event"":""fullscreenenter"",""trial"":1,""time"":2846}]",NA,NA,NA,NA,NA,1,#D89F1C,#3386FF,10,10,0,38,1,949,39,0,497.00000000023283,10,1,experiment,NA,NA,1,0.3,0.7,3,2,282,7,NA
fcp-trial,332,1613774,0.0-293.0-0.0,voc_e2,12122,"[{""event"":""fullscreenenter"",""trial"":1,""time"":2846}]",NA,NA,NA,NA,NA,5,#3386FF,#D89F1C,0,0,1,40,0,1023.0000000002328,39,0,959,0,0,experiment,NA,NA,1,0.7,0.3,2,3,283,7,NA
fcp-trial,333,1616686,0.0-294.0-0.0,voc_e2,12122,"[{""event"":""fullscreenenter"",""trial"":1,""time"":2846}]",NA,NA,NA,NA,NA,0,#FA92F8,#1CD855,10,0,1,38,1,1064,37,1,332,10,1,experiment,NA,NA,0,0.9,0.1,0,1,284,7,NA
fcp-trial,334,1619687,0.0-295.0-0.0,voc_e2,12122,"[{""event"":""fullscreenenter"",""trial"":1,""time"":2846}]",NA,NA,NA,NA,NA,3,#741CD8,#D8271C,10,0,1,38,1,1184.9999999997672,37,1,293,10,1,experiment,NA,NA,2,0.5,0.5,4,5,285,7,NA
fcp-trial,335,1622970,0.0-296.0-0.0,voc_e2,12122,"[{""event"":""fullscreenenter"",""trial"":1,""time"":2846}]",NA,NA,NA,NA,NA,5,#FA92F8,#1CD855,10,0,1,40,0,1243,39,0,521.9999999997672,0,0,experiment,NA,NA,0,0.9,0.1,0,1,286,7,NA
fcp-trial,336,1626870,0.0-297.0-0.0,voc_e2,12122,"[{""event"":""fullscreenenter"",""trial"":1,""time"":2846}]",NA,NA,NA,NA,NA,4,#3386FF,#D89F1C,0,0,1,38,1,1992.9999999997672,37,1,390.00000000023283,0,1,experiment,NA,NA,1,0.7,0.3,2,3,287,7,NA
fcp-trial,337,1629909,0.0-298.0-0.0,voc_e2,12122,"[{""event"":""fullscreenenter"",""trial"":1,""time"":2846}]",NA,NA,NA,NA,NA,4,#FA92F8,#1CD855,10,0,1,38,1,1122.9999999997672,37,1,395.00000000023283,10,1,experiment,NA,NA,0,0.9,0.1,0,1,288,7,NA
fcp-trial,338,1633147,0.0-299.0-0.0,voc_e2,12122,"[{""event"":""fullscreenenter"",""trial"":1,""time"":2846}]",NA,NA,NA,NA,NA,4,#D8271C,#741CD8,0,10,0,38,1,1365,39,0,366,10,1,experiment,NA,NA,2,0.5,0.5,5,4,289,7,NA
fcp-trial,339,1636114,0.0-300.0-0.0,voc_e2,12122,"[{""event"":""fullscreenenter"",""trial"":1,""time"":2846}]",NA,NA,NA,NA,NA,1,#741CD8,#D8271C,0,10,1,38,1,964,37,1,494,0,1,experiment,NA,NA,2,0.5,0.5,4,5,290,7,NA
fcp-trial,340,1638758,0.0-301.0-0.0,voc_e2,12122,"[{""event"":""fullscreenenter"",""trial"":1,""time"":2846}]",NA,NA,NA,NA,NA,3,#D89F1C,#3386FF,0,0,0,38,1,775.9999999997672,39,0,361,0,1,experiment,NA,NA,1,0.3,0.7,3,2,291,7,NA
fcp-trial,341,1641474,0.0-302.0-0.0,voc_e2,12122,"[{""event"":""fullscreenenter"",""trial"":1,""time"":2846}]",NA,NA,NA,NA,NA,3,#1CD855,#FA92F8,0,10,0,38,1,886,39,0,321,10,1,experiment,NA,NA,0,0.1,0.9,1,0,292,7,NA
fcp-trial,342,1644243,0.0-303.0-0.0,voc_e2,12122,"[{""event"":""fullscreenenter"",""trial"":1,""time"":2846}]",NA,NA,NA,NA,NA,2,#D8271C,#741CD8,10,0,0,38,1,863,39,0,399,0,1,experiment,NA,NA,2,0.5,0.5,5,4,293,7,NA
fcp-trial,343,1646809,0.0-304.0-0.0,voc_e2,12122,"[{""event"":""fullscreenenter"",""trial"":1,""time"":2846}]",NA,NA,NA,NA,NA,1,#1CD855,#FA92F8,0,10,0,38,1,719,39,0,339,10,1,experiment,NA,NA,0,0.1,0.9,1,0,294,7,NA
fcp-trial,344,1649713,0.0-305.0-0.0,voc_e2,12122,"[{""event"":""fullscreenenter"",""trial"":1,""time"":2846}]",NA,NA,NA,NA,NA,5,#D89F1C,#3386FF,10,0,0,40,0,807.0000000002328,39,0,590,0,1,experiment,NA,NA,1,0.3,0.7,3,2,295,7,NA
fcp-trial,345,1652509,0.0-306.0-0.0,voc_e2,12122,"[{""event"":""fullscreenenter"",""trial"":1,""time"":2846}]",NA,NA,NA,NA,NA,2,#741CD8,#D8271C,0,0,1,38,1,855,37,1,435,0,1,experiment,NA,NA,2,0.5,0.5,4,5,296,7,NA
fcp-trial,346,1655025,0.0-307.0-0.0,voc_e2,12122,"[{""event"":""fullscreenenter"",""trial"":1,""time"":2846}]",NA,NA,NA,NA,NA,0,#1CD855,#FA92F8,0,10,0,38,1,528,39,0,480,10,1,experiment,NA,NA,0,0.1,0.9,1,0,297,7,NA
fcp-trial,347,1657872,0.0-308.0-0.0,voc_e2,12122,"[{""event"":""fullscreenenter"",""trial"":1,""time"":2846}]",NA,NA,NA,NA,NA,0,#D89F1C,#3386FF,0,10,0,38,1,917.0000000002328,39,0,424,10,1,experiment,NA,NA,1,0.3,0.7,3,2,298,7,NA
fcp-trial,348,1661234,0.0-309.0-0.0,voc_e2,12122,"[{""event"":""fullscreenenter"",""trial"":1,""time"":2846}]",NA,NA,NA,NA,NA,6,#741CD8,#D8271C,0,0,1,40,0,1025,39,0,819,0,0,experiment,NA,NA,2,0.5,0.5,4,5,299,7,NA
fcp-trial,349,1664764,0.0-310.0-0.0,voc_e2,12122,"[{""event"":""fullscreenenter"",""trial"":1,""time"":2846}]",NA,NA,NA,NA,NA,5,#FA92F8,#1CD855,0,10,1,40,0,1353.0000000002328,39,0,671.9999999997672,10,0,experiment,NA,NA,0,0.9,0.1,0,1,300,7,NA
fcp-trial,350,1667707,0.0-311.0-0.0,voc_e2,12122,"[{""event"":""fullscreenenter"",""trial"":1,""time"":2846}]",NA,NA,NA,NA,NA,1,#FA92F8,#1CD855,10,0,1,38,1,1020,37,1,416.00000000023283,10,1,experiment,NA,NA,0,0.9,0.1,0,1,301,7,NA
fcp-trial,351,1670650,0.0-312.0-0.0,voc_e2,12122,"[{""event"":""fullscreenenter"",""trial"":1,""time"":2846}]",NA,NA,NA,NA,NA,2,#D89F1C,#3386FF,0,0,0,38,1,1016,39,0,418,0,1,experiment,NA,NA,1,0.3,0.7,3,2,302,7,NA
fcp-trial,352,1673864,0.0-313.0-0.0,voc_e2,12122,"[{""event"":""fullscreenenter"",""trial"":1,""time"":2846}]",NA,NA,NA,NA,NA,6,#FA92F8,#1CD855,10,0,1,40,0,1048,39,0,661,0,0,experiment,NA,NA,0,0.9,0.1,0,1,303,7,NA
fcp-trial,353,1676620,0.0-314.0-0.0,voc_e2,12122,"[{""event"":""fullscreenenter"",""trial"":1,""time"":2846}]",NA,NA,NA,NA,NA,1,#D8271C,#741CD8,0,0,0,38,1,876.9999999997672,39,0,370,0,1,experiment,NA,NA,2,0.5,0.5,5,4,304,7,NA
fcp-trial,354,1679480,0.0-315.0-0.0,voc_e2,12122,"[{""event"":""fullscreenenter"",""trial"":1,""time"":2846}]",NA,NA,NA,NA,NA,4,#741CD8,#D8271C,10,10,1,38,1,888,37,1,465,10,1,experiment,NA,NA,2,0.5,0.5,4,5,305,7,NA
fcp-trial,355,1682851,0.0-316.0-0.0,voc_e2,12122,"[{""event"":""fullscreenenter"",""trial"":1,""time"":2846}]",NA,NA,NA,NA,NA,6,#D89F1C,#3386FF,0,10,0,40,0,1199,39,0,665,10,1,experiment,NA,NA,1,0.3,0.7,3,2,306,7,NA
fcp-trial,356,1685748,0.0-317.0-0.0,voc_e2,12122,"[{""event"":""fullscreenenter"",""trial"":1,""time"":2846}]",NA,NA,NA,NA,NA,3,#1CD855,#FA92F8,0,10,0,38,1,1003,39,0,388,10,1,experiment,NA,NA,0,0.1,0.9,1,0,307,7,NA
fcp-trial,357,1690759,0.0-318.0-0.0,voc_e2,12122,"[{""event"":""fullscreenenter"",""trial"":1,""time"":2846}]",NA,NA,NA,NA,NA,2,#FA92F8,#1CD855,10,0,1,38,1,944,37,1,2560.999999999767,10,1,experiment,NA,NA,0,0.9,0.1,0,1,308,7,NA
fcp-trial,358,1693731,0.0-319.0-0.0,voc_e2,12122,"[{""event"":""fullscreenenter"",""trial"":1,""time"":2846}]",NA,NA,NA,NA,NA,1,#3386FF,#D89F1C,0,0,1,38,1,930.9999999997672,37,1,532.9999999997672,0,1,experiment,NA,NA,1,0.7,0.3,2,3,309,7,NA
fcp-trial,359,1697206,0.0-320.0-0.0,voc_e2,12122,"[{""event"":""fullscreenenter"",""trial"":1,""time"":2846}]",NA,NA,NA,NA,NA,0,#741CD8,#D8271C,10,10,1,38,1,776,39,0,1189.9999999997672,10,0,experiment,NA,NA,2,0.5,0.5,4,5,310,7,NA
fcp-trial,360,1700322,0.0-321.0-0.0,voc_e2,12122,"[{""event"":""fullscreenenter"",""trial"":1,""time"":2846}]",NA,NA,NA,NA,NA,4,#D89F1C,#3386FF,0,0,0,38,1,981,39,0,618,0,1,experiment,NA,NA,1,0.3,0.7,3,2,311,7,NA
fcp-trial,361,1703464,0.0-322.0-0.0,voc_e2,12122,"[{""event"":""fullscreenenter"",""trial"":1,""time"":2846}]",NA,NA,NA,NA,NA,5,#741CD8,#D8271C,0,0,1,40,0,1136,37,1,487,0,1,experiment,NA,NA,2,0.5,0.5,4,5,312,7,NA
fcp-trial,362,1706198,0.0-323.0-0.0,voc_e2,12122,"[{""event"":""fullscreenenter"",""trial"":1,""time"":2846}]",NA,NA,NA,NA,NA,4,#1CD855,#FA92F8,0,10,0,38,1,802,39,0,425,10,1,experiment,NA,NA,0,0.1,0.9,1,0,313,7,NA
fcp-trial,363,1709253,0.0-324.0-0.0,voc_e2,12122,"[{""event"":""fullscreenenter"",""trial"":1,""time"":2846}]",NA,NA,NA,NA,NA,3,#D89F1C,#3386FF,0,10,0,38,1,1017,37,1,532,0,0,experiment,NA,NA,1,0.3,0.7,3,2,314,7,NA
fcp-trial,364,1711864,0.0-325.0-0.0,voc_e2,12122,"[{""event"":""fullscreenenter"",""trial"":1,""time"":2846}]",NA,NA,NA,NA,NA,3,#741CD8,#D8271C,10,10,1,38,1,721,37,1,371,10,1,experiment,NA,NA,2,0.5,0.5,4,5,315,7,NA
audio-instructions,365,1718814,0.0-326.0,voc_e2,12122,"[{""event"":""fullscreenenter"",""trial"":1,""time"":2846}]",NA,1314.0000000002328,static/audio/finished.wav,NA,0,NA,NA,NA,NA,NA,NA,NA,NA,NA,NA,NA,NA,NA,NA,NA,NA,NA,NA,NA,NA,NA,NA,NA,NA,NA
audio-instructions,366,1731462,0.0-327.0-0.0,voc_e2,12122,"[{""event"":""fullscreenenter"",""trial"":1,""time"":2846}]",NA,1807,static/audio/explicit1.wav,NA,0,NA,NA,NA,NA,NA,NA,NA,NA,NA,NA,NA,NA,NA,NA,NA,NA,NA,NA,NA,NA,NA,NA,NA,NA,NA
audio-instructions,367,1739875,0.0-327.0-1.0,voc_e2,12122,"[{""event"":""fullscreenenter"",""trial"":1,""time"":2846}]",NA,818,static/audio/explicit2.wav,NA,0,NA,NA,NA,NA,NA,NA,NA,NA,NA,NA,NA,NA,NA,NA,NA,NA,NA,NA,NA,NA,NA,NA,NA,NA,NA
image-slider-response,368,1751561,0.0-328.0,voc_e2,12122,"[{""event"":""fullscreenenter"",""trial"":1,""time"":2846}]",NA,11680,static/img/machines/machine4.png,NA,NA,NA,NA,NA,NA,NA,NA,NA,NA,NA,NA,NA,NA,NA,NA,explicit,NA,NA,NA,NA,NA,NA,NA,NA,NA,2
image-slider-response,369,1759089,0.0-329.0,voc_e2,12122,"[{""event"":""fullscreenenter"",""trial"":1,""time"":2846}]",NA,7527,static/img/machines/machine3.png,NA,NA,NA,NA,NA,NA,NA,NA,NA,NA,NA,NA,NA,NA,NA,NA,explicit,NA,NA,NA,NA,NA,NA,NA,NA,NA,6
image-slider-response,370,1762528,0.0-330.0,voc_e2,12122,"[{""event"":""fullscreenenter"",""trial"":1,""time"":2846}]",NA,3439,static/img/machines/machine1.png,NA,NA,NA,NA,NA,NA,NA,NA,NA,NA,NA,NA,NA,NA,NA,NA,explicit,NA,NA,NA,NA,NA,NA,NA,NA,NA,4
image-slider-response,371,1767024,0.0-331.0,voc_e2,12122,"[{""event"":""fullscreenenter"",""trial"":1,""time"":2846}]",NA,4496,static/img/machines/machine6.png,NA,NA,NA,NA,NA,NA,NA,NA,NA,NA,NA,NA,NA,NA,NA,NA,explicit,NA,NA,NA,NA,NA,NA,NA,NA,NA,1
image-slider-response,372,1770176,0.0-332.0,voc_e2,12122,"[{""event"":""fullscreenenter"",""trial"":1,""time"":2846}]",NA,3152,static/img/machines/machine5.png,NA,NA,NA,NA,NA,NA,NA,NA,NA,NA,NA,NA,NA,NA,NA,NA,explicit,NA,NA,NA,NA,NA,NA,NA,NA,NA,9
image-slider-response,373,1775572,0.0-333.0,voc_e2,12122,"[{""event"":""fullscreenenter"",""trial"":1,""time"":2846}]",NA,5396,static/img/machines/machine2.png,NA,NA,NA,NA,NA,NA,NA,NA,NA,NA,NA,NA,NA,NA,NA,NA,explicit,NA,NA,NA,NA,NA,NA,NA,NA,NA,5
