trial_type,trial_index,time_elapsed,internal_node_id,task_version,subject_id,interactions,success,rt,stimulus,key_press,button_pressed,offer,arcade_color_L,arcade_color_R,arcade_outcome_L,arcade_outcome_R,correct,stage_1_key,stage_1_choice,stage_1_rt,stage_2_key,stage_2_choice,stage_2_rt,stage_3_outcome,accuracy,phase,responses,num_errors,context,reward_prob_L,reward_prob_R,arcade_id_L,arcade_id_R,trial,block,response
pavlovia,0,11,0.0-0.0,voc_e2,11833,"[{""event"":""focus"",""trial"":0,""time"":0}]",NA,NA,NA,NA,NA,NA,NA,NA,NA,NA,NA,NA,NA,NA,NA,NA,NA,NA,NA,NA,NA,NA,NA,NA,NA,NA,NA,NA,NA,NA
fullscreen,1,3219,0.0-1.0,voc_e2,11833,"[{""event"":""focus"",""trial"":0,""time"":0},{""event"":""fullscreenenter"",""trial"":1,""time"":2841}]",TRUE,NA,NA,NA,NA,NA,NA,NA,NA,NA,NA,NA,NA,NA,NA,NA,NA,NA,NA,NA,NA,NA,NA,NA,NA,NA,NA,NA,NA,NA
audio-keyboard-response,2,6798,0.0-2.0,voc_e2,11833,"[{""event"":""focus"",""trial"":0,""time"":0},{""event"":""fullscreenenter"",""trial"":1,""time"":2841}]",NA,3381,static/audio/beep_loop.wav,32,NA,NA,NA,NA,NA,NA,NA,NA,NA,NA,NA,NA,NA,NA,NA,NA,NA,NA,NA,NA,NA,NA,NA,NA,NA,NA
audio-test,3,28798,0.0-3.0,voc_e2,11833,"[{""event"":""focus"",""trial"":0,""time"":0},{""event"":""fullscreenenter"",""trial"":1,""time"":2841},{""event"":""fullscreenexit"",""trial"":3,""time"":17724},{""event"":""blur"",""trial"":3,""time"":18958},{""event"":""focus"",""trial"":3,""time"":27221}]",NA,NA,static/audio/turtle.wav,NA,3,NA,NA,NA,NA,NA,NA,NA,NA,NA,NA,NA,NA,NA,NA,NA,NA,NA,NA,NA,NA,NA,NA,NA,NA,NA
audio-test,4,31342,0.0-4.0,voc_e2,11833,"[{""event"":""focus"",""trial"":0,""time"":0},{""event"":""fullscreenenter"",""trial"":1,""time"":2841},{""event"":""fullscreenexit"",""trial"":3,""time"":17724},{""event"":""blur"",""trial"":3,""time"":18958},{""event"":""focus"",""trial"":3,""time"":27221}]",NA,NA,static/audio/shark.wav,NA,2,NA,NA,NA,NA,NA,NA,NA,NA,NA,NA,NA,NA,NA,NA,NA,NA,NA,NA,NA,NA,NA,NA,NA,NA,NA
audio-instructions,5,39342,0.0-5.0-0.0,voc_e2,11833,"[{""event"":""focus"",""trial"":0,""time"":0},{""event"":""fullscreenenter"",""trial"":1,""time"":2841},{""event"":""fullscreenexit"",""trial"":3,""time"":17724},{""event"":""blur"",""trial"":3,""time"":18958},{""event"":""focus"",""trial"":3,""time"":27221}]",NA,2202,static/audio/instructions1.wav,NA,0,NA,NA,NA,NA,NA,NA,NA,NA,NA,NA,NA,NA,NA,NA,NA,NA,NA,NA,NA,NA,NA,NA,NA,NA,NA
audio-instructions,6,47918,0.0-5.0-1.0,voc_e2,11833,"[{""event"":""focus"",""trial"":0,""time"":0},{""event"":""fullscreenenter"",""trial"":1,""time"":2841},{""event"":""fullscreenexit"",""trial"":3,""time"":17724},{""event"":""blur"",""trial"":3,""time"":18958},{""event"":""focus"",""trial"":3,""time"":27221}]",NA,1819,static/audio/instructions2.wav,NA,0,NA,NA,NA,NA,NA,NA,NA,NA,NA,NA,NA,NA,NA,NA,NA,NA,NA,NA,NA,NA,NA,NA,NA,NA,NA
audio-instructions,7,55047,0.0-5.0-2.0,voc_e2,11833,"[{""event"":""focus"",""trial"":0,""time"":0},{""event"":""fullscreenenter"",""trial"":1,""time"":2841},{""event"":""fullscreenexit"",""trial"":3,""time"":17724},{""event"":""blur"",""trial"":3,""time"":18958},{""event"":""focus"",""trial"":3,""time"":27221}]",NA,1306,static/audio/instructions3.wav,NA,0,NA,NA,NA,NA,NA,NA,NA,NA,NA,NA,NA,NA,NA,NA,NA,NA,NA,NA,NA,NA,NA,NA,NA,NA,NA
audio-instructions,8,76415,0.0-5.0-3.0,voc_e2,11833,"[{""event"":""focus"",""trial"":0,""time"":0},{""event"":""fullscreenenter"",""trial"":1,""time"":2841},{""event"":""fullscreenexit"",""trial"":3,""time"":17724},{""event"":""blur"",""trial"":3,""time"":18958},{""event"":""focus"",""trial"":3,""time"":27221}]",NA,8135,static/audio/instructions4.wav,NA,0,NA,NA,NA,NA,NA,NA,NA,NA,NA,NA,NA,NA,NA,NA,NA,NA,NA,NA,NA,NA,NA,NA,NA,NA,NA
audio-instructions,9,86574,0.0-5.0-4.0,voc_e2,11833,"[{""event"":""focus"",""trial"":0,""time"":0},{""event"":""fullscreenenter"",""trial"":1,""time"":2841},{""event"":""fullscreenexit"",""trial"":3,""time"":17724},{""event"":""blur"",""trial"":3,""time"":18958},{""event"":""focus"",""trial"":3,""time"":27221}]",NA,763,static/audio/instructions5.wav,NA,0,NA,NA,NA,NA,NA,NA,NA,NA,NA,NA,NA,NA,NA,NA,NA,NA,NA,NA,NA,NA,NA,NA,NA,NA,NA
fcp-practice,10,90358,0.0-5.0-5.0-0.0,voc_e2,11833,"[{""event"":""focus"",""trial"":0,""time"":0},{""event"":""fullscreenenter"",""trial"":1,""time"":2841},{""event"":""fullscreenexit"",""trial"":3,""time"":17724},{""event"":""blur"",""trial"":3,""time"":18958},{""event"":""focus"",""trial"":3,""time"":27221}]",NA,NA,NA,NA,NA,NA,#EDC948,#46d3c8,10,0,1,null,null,null,37,1,2246,10,1,practice,NA,NA,NA,NA,NA,NA,NA,NA,NA,NA
fcp-practice,11,92858,0.0-5.0-5.0-1.0,voc_e2,11833,"[{""event"":""focus"",""trial"":0,""time"":0},{""event"":""fullscreenenter"",""trial"":1,""time"":2841},{""event"":""fullscreenexit"",""trial"":3,""time"":17724},{""event"":""blur"",""trial"":3,""time"":18958},{""event"":""focus"",""trial"":3,""time"":27221}]",NA,NA,NA,NA,NA,NA,#EDC948,#46d3c8,10,0,1,null,null,null,37,1,984,10,1,practice,NA,NA,NA,NA,NA,NA,NA,NA,NA,NA
fcp-practice,12,94908,0.0-5.0-5.0-2.0,voc_e2,11833,"[{""event"":""focus"",""trial"":0,""time"":0},{""event"":""fullscreenenter"",""trial"":1,""time"":2841},{""event"":""fullscreenexit"",""trial"":3,""time"":17724},{""event"":""blur"",""trial"":3,""time"":18958},{""event"":""focus"",""trial"":3,""time"":27221}]",NA,NA,NA,NA,NA,NA,#EDC948,#46d3c8,0,10,1,null,null,null,37,1,532,0,1,practice,NA,NA,NA,NA,NA,NA,NA,NA,NA,NA
fcp-practice,13,96968,0.0-5.0-5.0-3.0,voc_e2,11833,"[{""event"":""focus"",""trial"":0,""time"":0},{""event"":""fullscreenenter"",""trial"":1,""time"":2841},{""event"":""fullscreenexit"",""trial"":3,""time"":17724},{""event"":""blur"",""trial"":3,""time"":18958},{""event"":""focus"",""trial"":3,""time"":27221}]",NA,NA,NA,NA,NA,NA,#EDC948,#46d3c8,10,0,1,null,null,null,37,1,548,10,1,practice,NA,NA,NA,NA,NA,NA,NA,NA,NA,NA
fcp-practice,14,99090,0.0-5.0-5.0-4.0,voc_e2,11833,"[{""event"":""focus"",""trial"":0,""time"":0},{""event"":""fullscreenenter"",""trial"":1,""time"":2841},{""event"":""fullscreenexit"",""trial"":3,""time"":17724},{""event"":""blur"",""trial"":3,""time"":18958},{""event"":""focus"",""trial"":3,""time"":27221}]",NA,NA,NA,NA,NA,NA,#EDC948,#46d3c8,10,0,1,null,null,null,37,1,606,10,1,practice,NA,NA,NA,NA,NA,NA,NA,NA,NA,NA
audio-instructions,15,117806,0.0-5.0-6.0,voc_e2,11833,"[{""event"":""focus"",""trial"":0,""time"":0},{""event"":""fullscreenenter"",""trial"":1,""time"":2841},{""event"":""fullscreenexit"",""trial"":3,""time"":17724},{""event"":""blur"",""trial"":3,""time"":18958},{""event"":""focus"",""trial"":3,""time"":27221}]",NA,697,static/audio/instructions6.wav,NA,0,NA,NA,NA,NA,NA,NA,NA,NA,NA,NA,NA,NA,NA,NA,NA,NA,NA,NA,NA,NA,NA,NA,NA,NA,NA
audio-instructions,16,138046,0.0-5.0-7.0,voc_e2,11833,"[{""event"":""focus"",""trial"":0,""time"":0},{""event"":""fullscreenenter"",""trial"":1,""time"":2841},{""event"":""fullscreenexit"",""trial"":3,""time"":17724},{""event"":""blur"",""trial"":3,""time"":18958},{""event"":""focus"",""trial"":3,""time"":27221}]",NA,1036,static/audio/instructions7.wav,NA,0,NA,NA,NA,NA,NA,NA,NA,NA,NA,NA,NA,NA,NA,NA,NA,NA,NA,NA,NA,NA,NA,NA,NA,NA,NA
audio-instructions,17,148326,0.0-5.0-8.0,voc_e2,11833,"[{""event"":""focus"",""trial"":0,""time"":0},{""event"":""fullscreenenter"",""trial"":1,""time"":2841},{""event"":""fullscreenexit"",""trial"":3,""time"":17724},{""event"":""blur"",""trial"":3,""time"":18958},{""event"":""focus"",""trial"":3,""time"":27221}]",NA,806,static/audio/instructions8.wav,NA,0,NA,NA,NA,NA,NA,NA,NA,NA,NA,NA,NA,NA,NA,NA,NA,NA,NA,NA,NA,NA,NA,NA,NA,NA,NA
fcp-comprehension,18,162744,0.0-5.0-9.0,voc_e2,11833,"[{""event"":""focus"",""trial"":0,""time"":0},{""event"":""fullscreenenter"",""trial"":1,""time"":2841},{""event"":""fullscreenexit"",""trial"":3,""time"":17724},{""event"":""blur"",""trial"":3,""time"":18958},{""event"":""focus"",""trial"":3,""time"":27221}]",NA,14416,NA,NA,NA,NA,NA,NA,NA,NA,NA,NA,NA,NA,NA,NA,NA,NA,NA,NA,"false,true",1,NA,NA,NA,NA,NA,NA,NA,NA
audio-instructions,19,168821,0.0-5.1-0.1,voc_e2,11833,"[{""event"":""focus"",""trial"":0,""time"":0},{""event"":""fullscreenenter"",""trial"":1,""time"":2841},{""event"":""fullscreenexit"",""trial"":3,""time"":17724},{""event"":""blur"",""trial"":3,""time"":18958},{""event"":""focus"",""trial"":3,""time"":27221}]",NA,1293,static/audio/instructions1.wav,NA,0,NA,NA,NA,NA,NA,NA,NA,NA,NA,NA,NA,NA,NA,NA,NA,NA,NA,NA,NA,NA,NA,NA,NA,NA,NA
audio-instructions,20,177406,0.0-5.1-1.1,voc_e2,11833,"[{""event"":""focus"",""trial"":0,""time"":0},{""event"":""fullscreenenter"",""trial"":1,""time"":2841},{""event"":""fullscreenexit"",""trial"":3,""time"":17724},{""event"":""blur"",""trial"":3,""time"":18958},{""event"":""focus"",""trial"":3,""time"":27221}]",NA,1827,static/audio/instructions2.wav,NA,0,NA,NA,NA,NA,NA,NA,NA,NA,NA,NA,NA,NA,NA,NA,NA,NA,NA,NA,NA,NA,NA,NA,NA,NA,NA
audio-instructions,21,183726,0.0-5.1-2.1,voc_e2,11833,"[{""event"":""focus"",""trial"":0,""time"":0},{""event"":""fullscreenenter"",""trial"":1,""time"":2841},{""event"":""fullscreenexit"",""trial"":3,""time"":17724},{""event"":""blur"",""trial"":3,""time"":18958},{""event"":""focus"",""trial"":3,""time"":27221}]",NA,506,static/audio/instructions3.wav,NA,0,NA,NA,NA,NA,NA,NA,NA,NA,NA,NA,NA,NA,NA,NA,NA,NA,NA,NA,NA,NA,NA,NA,NA,NA,NA
audio-instructions,22,197910,0.0-5.1-3.1,voc_e2,11833,"[{""event"":""focus"",""trial"":0,""time"":0},{""event"":""fullscreenenter"",""trial"":1,""time"":2841},{""event"":""fullscreenexit"",""trial"":3,""time"":17724},{""event"":""blur"",""trial"":3,""time"":18958},{""event"":""focus"",""trial"":3,""time"":27221}]",NA,951,static/audio/instructions4.wav,NA,0,NA,NA,NA,NA,NA,NA,NA,NA,NA,NA,NA,NA,NA,NA,NA,NA,NA,NA,NA,NA,NA,NA,NA,NA,NA
audio-instructions,23,207878,0.0-5.1-4.1,voc_e2,11833,"[{""event"":""focus"",""trial"":0,""time"":0},{""event"":""fullscreenenter"",""trial"":1,""time"":2841},{""event"":""fullscreenexit"",""trial"":3,""time"":17724},{""event"":""blur"",""trial"":3,""time"":18958},{""event"":""focus"",""trial"":3,""time"":27221}]",NA,569,static/audio/instructions5.wav,NA,0,NA,NA,NA,NA,NA,NA,NA,NA,NA,NA,NA,NA,NA,NA,NA,NA,NA,NA,NA,NA,NA,NA,NA,NA,NA
fcp-practice,24,211078,0.0-5.1-5.1-0.1,voc_e2,11833,"[{""event"":""focus"",""trial"":0,""time"":0},{""event"":""fullscreenenter"",""trial"":1,""time"":2841},{""event"":""fullscreenexit"",""trial"":3,""time"":17724},{""event"":""blur"",""trial"":3,""time"":18958},{""event"":""focus"",""trial"":3,""time"":27221}]",NA,NA,NA,NA,NA,NA,#EDC948,#46d3c8,10,0,1,null,null,null,37,1,1684,10,1,practice,NA,NA,NA,NA,NA,NA,NA,NA,NA,NA
fcp-practice,25,213128,0.0-5.1-5.1-1.1,voc_e2,11833,"[{""event"":""focus"",""trial"":0,""time"":0},{""event"":""fullscreenenter"",""trial"":1,""time"":2841},{""event"":""fullscreenexit"",""trial"":3,""time"":17724},{""event"":""blur"",""trial"":3,""time"":18958},{""event"":""focus"",""trial"":3,""time"":27221}]",NA,NA,NA,NA,NA,NA,#EDC948,#46d3c8,10,0,1,null,null,null,37,1,544,10,1,practice,NA,NA,NA,NA,NA,NA,NA,NA,NA,NA
fcp-practice,26,215039,0.0-5.1-5.1-2.1,voc_e2,11833,"[{""event"":""focus"",""trial"":0,""time"":0},{""event"":""fullscreenenter"",""trial"":1,""time"":2841},{""event"":""fullscreenexit"",""trial"":3,""time"":17724},{""event"":""blur"",""trial"":3,""time"":18958},{""event"":""focus"",""trial"":3,""time"":27221}]",NA,NA,NA,NA,NA,NA,#EDC948,#46d3c8,0,10,1,null,null,null,37,1,397,0,1,practice,NA,NA,NA,NA,NA,NA,NA,NA,NA,NA
fcp-practice,27,216999,0.0-5.1-5.1-3.1,voc_e2,11833,"[{""event"":""focus"",""trial"":0,""time"":0},{""event"":""fullscreenenter"",""trial"":1,""time"":2841},{""event"":""fullscreenexit"",""trial"":3,""time"":17724},{""event"":""blur"",""trial"":3,""time"":18958},{""event"":""focus"",""trial"":3,""time"":27221}]",NA,NA,NA,NA,NA,NA,#EDC948,#46d3c8,10,0,1,null,null,null,37,1,449,10,1,practice,NA,NA,NA,NA,NA,NA,NA,NA,NA,NA
fcp-practice,28,219017,0.0-5.1-5.1-4.1,voc_e2,11833,"[{""event"":""focus"",""trial"":0,""time"":0},{""event"":""fullscreenenter"",""trial"":1,""time"":2841},{""event"":""fullscreenexit"",""trial"":3,""time"":17724},{""event"":""blur"",""trial"":3,""time"":18958},{""event"":""focus"",""trial"":3,""time"":27221}]",NA,NA,NA,NA,NA,NA,#EDC948,#46d3c8,10,0,1,null,null,null,37,1,511,10,1,practice,NA,NA,NA,NA,NA,NA,NA,NA,NA,NA
audio-instructions,29,238134,0.0-5.1-6.1,voc_e2,11833,"[{""event"":""focus"",""trial"":0,""time"":0},{""event"":""fullscreenenter"",""trial"":1,""time"":2841},{""event"":""fullscreenexit"",""trial"":3,""time"":17724},{""event"":""blur"",""trial"":3,""time"":18958},{""event"":""focus"",""trial"":3,""time"":27221}]",NA,1095,static/audio/instructions6.wav,NA,0,NA,NA,NA,NA,NA,NA,NA,NA,NA,NA,NA,NA,NA,NA,NA,NA,NA,NA,NA,NA,NA,NA,NA,NA,NA
audio-instructions,30,260445,0.0-5.1-7.1,voc_e2,11833,"[{""event"":""focus"",""trial"":0,""time"":0},{""event"":""fullscreenenter"",""trial"":1,""time"":2841},{""event"":""fullscreenexit"",""trial"":3,""time"":17724},{""event"":""blur"",""trial"":3,""time"":18958},{""event"":""focus"",""trial"":3,""time"":27221}]",NA,3106,static/audio/instructions7.wav,NA,0,NA,NA,NA,NA,NA,NA,NA,NA,NA,NA,NA,NA,NA,NA,NA,NA,NA,NA,NA,NA,NA,NA,NA,NA,NA
audio-instructions,31,270503,0.0-5.1-8.1,voc_e2,11833,"[{""event"":""focus"",""trial"":0,""time"":0},{""event"":""fullscreenenter"",""trial"":1,""time"":2841},{""event"":""fullscreenexit"",""trial"":3,""time"":17724},{""event"":""blur"",""trial"":3,""time"":18958},{""event"":""focus"",""trial"":3,""time"":27221}]",NA,583,static/audio/instructions8.wav,NA,0,NA,NA,NA,NA,NA,NA,NA,NA,NA,NA,NA,NA,NA,NA,NA,NA,NA,NA,NA,NA,NA,NA,NA,NA,NA
fcp-comprehension,32,282550,0.0-5.1-9.1,voc_e2,11833,"[{""event"":""focus"",""trial"":0,""time"":0},{""event"":""fullscreenenter"",""trial"":1,""time"":2841},{""event"":""fullscreenexit"",""trial"":3,""time"":17724},{""event"":""blur"",""trial"":3,""time"":18958},{""event"":""focus"",""trial"":3,""time"":27221}]",NA,12047,NA,NA,NA,NA,NA,NA,NA,NA,NA,NA,NA,NA,NA,NA,NA,NA,NA,NA,"true,true",0,NA,NA,NA,NA,NA,NA,NA,NA
audio-instructions,33,289286,0.0-6.0-0.0,voc_e2,11833,"[{""event"":""focus"",""trial"":0,""time"":0},{""event"":""fullscreenenter"",""trial"":1,""time"":2841},{""event"":""fullscreenexit"",""trial"":3,""time"":17724},{""event"":""blur"",""trial"":3,""time"":18958},{""event"":""focus"",""trial"":3,""time"":27221}]",NA,1175,static/audio/instructions9.wav,NA,0,NA,NA,NA,NA,NA,NA,NA,NA,NA,NA,NA,NA,NA,NA,NA,NA,NA,NA,NA,NA,NA,NA,NA,NA,NA
audio-instructions,34,302446,0.0-6.0-1.0,voc_e2,11833,"[{""event"":""focus"",""trial"":0,""time"":0},{""event"":""fullscreenenter"",""trial"":1,""time"":2841},{""event"":""fullscreenexit"",""trial"":3,""time"":17724},{""event"":""blur"",""trial"":3,""time"":18958},{""event"":""focus"",""trial"":3,""time"":27221}]",NA,1036,static/audio/instructions10.wav,NA,0,NA,NA,NA,NA,NA,NA,NA,NA,NA,NA,NA,NA,NA,NA,NA,NA,NA,NA,NA,NA,NA,NA,NA,NA,NA
fcp-trial,35,309768,0.0-6.0-2.0,voc_e2,11833,"[{""event"":""focus"",""trial"":0,""time"":0},{""event"":""fullscreenenter"",""trial"":1,""time"":2841},{""event"":""fullscreenexit"",""trial"":3,""time"":17724},{""event"":""blur"",""trial"":3,""time"":18958},{""event"":""focus"",""trial"":3,""time"":27221}]",NA,NA,NA,NA,NA,0,#EDC948,#46d3c8,10,10,1,38,1,4247,37,1,1530,10,1,practice,NA,NA,NA,NA,NA,NA,NA,NA,NA,NA
audio-instructions,36,321830,0.0-6.0-3.0,voc_e2,11833,"[{""event"":""focus"",""trial"":0,""time"":0},{""event"":""fullscreenenter"",""trial"":1,""time"":2841},{""event"":""fullscreenexit"",""trial"":3,""time"":17724},{""event"":""blur"",""trial"":3,""time"":18958},{""event"":""focus"",""trial"":3,""time"":27221}]",NA,1040,static/audio/instructions11.wav,NA,0,NA,NA,NA,NA,NA,NA,NA,NA,NA,NA,NA,NA,NA,NA,NA,NA,NA,NA,NA,NA,NA,NA,NA,NA,NA
fcp-trial,37,325528,0.0-6.0-4.0,voc_e2,11833,"[{""event"":""focus"",""trial"":0,""time"":0},{""event"":""fullscreenenter"",""trial"":1,""time"":2841},{""event"":""fullscreenexit"",""trial"":3,""time"":17724},{""event"":""blur"",""trial"":3,""time"":18958},{""event"":""focus"",""trial"":3,""time"":27221}]",NA,NA,NA,NA,NA,6,#EDC948,#46d3c8,10,10,1,40,0,1037,37,1,1134,10,1,practice,NA,NA,NA,NA,NA,NA,NA,NA,NA,NA
audio-instructions,38,345262,0.0-6.0-5.0,voc_e2,11833,"[{""event"":""focus"",""trial"":0,""time"":0},{""event"":""fullscreenenter"",""trial"":1,""time"":2841},{""event"":""fullscreenexit"",""trial"":3,""time"":17724},{""event"":""blur"",""trial"":3,""time"":18958},{""event"":""focus"",""trial"":3,""time"":27221},{""event"":""blur"",""trial"":38,""time"":331692},{""event"":""focus"",""trial"":38,""time"":339796}]",NA,1033,static/audio/instructions12.wav,NA,0,NA,NA,NA,NA,NA,NA,NA,NA,NA,NA,NA,NA,NA,NA,NA,NA,NA,NA,NA,NA,NA,NA,NA,NA,NA
audio-instructions,39,354222,0.0-6.0-6.0,voc_e2,11833,"[{""event"":""focus"",""trial"":0,""time"":0},{""event"":""fullscreenenter"",""trial"":1,""time"":2841},{""event"":""fullscreenexit"",""trial"":3,""time"":17724},{""event"":""blur"",""trial"":3,""time"":18958},{""event"":""focus"",""trial"":3,""time"":27221},{""event"":""blur"",""trial"":38,""time"":331692},{""event"":""focus"",""trial"":38,""time"":339796}]",NA,1351,static/audio/instructions13.wav,NA,0,NA,NA,NA,NA,NA,NA,NA,NA,NA,NA,NA,NA,NA,NA,NA,NA,NA,NA,NA,NA,NA,NA,NA,NA,NA
audio-instructions,40,363333,0.0-6.0-7.0,voc_e2,11833,"[{""event"":""focus"",""trial"":0,""time"":0},{""event"":""fullscreenenter"",""trial"":1,""time"":2841},{""event"":""fullscreenexit"",""trial"":3,""time"":17724},{""event"":""blur"",""trial"":3,""time"":18958},{""event"":""focus"",""trial"":3,""time"":27221},{""event"":""blur"",""trial"":38,""time"":331692},{""event"":""focus"",""trial"":38,""time"":339796}]",NA,655,static/audio/instructions14.wav,NA,0,NA,NA,NA,NA,NA,NA,NA,NA,NA,NA,NA,NA,NA,NA,NA,NA,NA,NA,NA,NA,NA,NA,NA,NA,NA
audio-instructions,41,371558,0.0-7.0-0.0,voc_e2,11833,"[{""event"":""focus"",""trial"":0,""time"":0},{""event"":""fullscreenenter"",""trial"":1,""time"":2841},{""event"":""fullscreenexit"",""trial"":3,""time"":17724},{""event"":""blur"",""trial"":3,""time"":18958},{""event"":""focus"",""trial"":3,""time"":27221},{""event"":""blur"",""trial"":38,""time"":331692},{""event"":""focus"",""trial"":38,""time"":339796}]",NA,1299,static/audio/instructions15.wav,NA,0,NA,NA,NA,NA,NA,NA,NA,NA,NA,NA,NA,NA,NA,NA,NA,NA,NA,NA,NA,NA,NA,NA,NA,NA,NA
audio-instructions,42,378934,0.0-7.0-1.0,voc_e2,11833,"[{""event"":""focus"",""trial"":0,""time"":0},{""event"":""fullscreenenter"",""trial"":1,""time"":2841},{""event"":""fullscreenexit"",""trial"":3,""time"":17724},{""event"":""blur"",""trial"":3,""time"":18958},{""event"":""focus"",""trial"":3,""time"":27221},{""event"":""blur"",""trial"":38,""time"":331692},{""event"":""focus"",""trial"":38,""time"":339796}]",NA,534,static/audio/instructions16.wav,NA,0,NA,NA,NA,NA,NA,NA,NA,NA,NA,NA,NA,NA,NA,NA,NA,NA,NA,NA,NA,NA,NA,NA,NA,NA,NA
audio-instructions,43,387094,0.0-7.0-2.0,voc_e2,11833,"[{""event"":""focus"",""trial"":0,""time"":0},{""event"":""fullscreenenter"",""trial"":1,""time"":2841},{""event"":""fullscreenexit"",""trial"":3,""time"":17724},{""event"":""blur"",""trial"":3,""time"":18958},{""event"":""focus"",""trial"":3,""time"":27221},{""event"":""blur"",""trial"":38,""time"":331692},{""event"":""focus"",""trial"":38,""time"":339796}]",NA,475,static/audio/instructions17.wav,NA,0,NA,NA,NA,NA,NA,NA,NA,NA,NA,NA,NA,NA,NA,NA,NA,NA,NA,NA,NA,NA,NA,NA,NA,NA,NA
audio-instructions,44,395414,0.0-7.0-3.0,voc_e2,11833,"[{""event"":""focus"",""trial"":0,""time"":0},{""event"":""fullscreenenter"",""trial"":1,""time"":2841},{""event"":""fullscreenexit"",""trial"":3,""time"":17724},{""event"":""blur"",""trial"":3,""time"":18958},{""event"":""focus"",""trial"":3,""time"":27221},{""event"":""blur"",""trial"":38,""time"":331692},{""event"":""focus"",""trial"":38,""time"":339796}]",NA,544,static/audio/instructions18.wav,NA,0,NA,NA,NA,NA,NA,NA,NA,NA,NA,NA,NA,NA,NA,NA,NA,NA,NA,NA,NA,NA,NA,NA,NA,NA,NA
audio-instructions,45,402853,0.0-7.0-4.0,voc_e2,11833,"[{""event"":""focus"",""trial"":0,""time"":0},{""event"":""fullscreenenter"",""trial"":1,""time"":2841},{""event"":""fullscreenexit"",""trial"":3,""time"":17724},{""event"":""blur"",""trial"":3,""time"":18958},{""event"":""focus"",""trial"":3,""time"":27221},{""event"":""blur"",""trial"":38,""time"":331692},{""event"":""focus"",""trial"":38,""time"":339796}]",NA,694,static/audio/instructions19.wav,NA,0,NA,NA,NA,NA,NA,NA,NA,NA,NA,NA,NA,NA,NA,NA,NA,NA,NA,NA,NA,NA,NA,NA,NA,NA,NA
fcp-comprehension,46,417311,0.0-7.0-5.0,voc_e2,11833,"[{""event"":""focus"",""trial"":0,""time"":0},{""event"":""fullscreenenter"",""trial"":1,""time"":2841},{""event"":""fullscreenexit"",""trial"":3,""time"":17724},{""event"":""blur"",""trial"":3,""time"":18958},{""event"":""focus"",""trial"":3,""time"":27221},{""event"":""blur"",""trial"":38,""time"":331692},{""event"":""focus"",""trial"":38,""time"":339796}]",NA,14456,NA,NA,NA,NA,NA,NA,NA,NA,NA,NA,NA,NA,NA,NA,NA,NA,NA,NA,"false,false,false,true",0,NA,NA,NA,NA,NA,NA,NA,NA
audio-instructions,47,427398,0.0-8.0,voc_e2,11833,"[{""event"":""focus"",""trial"":0,""time"":0},{""event"":""fullscreenenter"",""trial"":1,""time"":2841},{""event"":""fullscreenexit"",""trial"":3,""time"":17724},{""event"":""blur"",""trial"":3,""time"":18958},{""event"":""focus"",""trial"":3,""time"":27221},{""event"":""blur"",""trial"":38,""time"":331692},{""event"":""focus"",""trial"":38,""time"":339796}]",NA,859,static/audio/ready.wav,NA,0,NA,NA,NA,NA,NA,NA,NA,NA,NA,NA,NA,NA,NA,NA,NA,NA,NA,NA,NA,NA,NA,NA,NA,NA,NA
fcp-trial,48,434228,0.0-9.0-0.0,voc_e2,11833,"[{""event"":""focus"",""trial"":0,""time"":0},{""event"":""fullscreenenter"",""trial"":1,""time"":2841},{""event"":""fullscreenexit"",""trial"":3,""time"":17724},{""event"":""blur"",""trial"":3,""time"":18958},{""event"":""focus"",""trial"":3,""time"":27221},{""event"":""blur"",""trial"":38,""time"":331692},{""event"":""focus"",""trial"":38,""time"":339796}]",NA,NA,NA,NA,NA,3,#3386FF,#D89F1C,10,10,0,38,1,3059,39,0,2259,10,1,experiment,NA,NA,2,0.5,0.5,5,4,1,1,NA
fcp-trial,49,440848,0.0-10.0-0.0,voc_e2,11833,"[{""event"":""focus"",""trial"":0,""time"":0},{""event"":""fullscreenenter"",""trial"":1,""time"":2841},{""event"":""fullscreenexit"",""trial"":3,""time"":17724},{""event"":""blur"",""trial"":3,""time"":18958},{""event"":""focus"",""trial"":3,""time"":27221},{""event"":""blur"",""trial"":38,""time"":331692},{""event"":""focus"",""trial"":38,""time"":339796}]",NA,NA,NA,NA,NA,1,#D89F1C,#3386FF,10,0,1,38,1,3793,37,1,1289,10,1,experiment,NA,NA,2,0.5,0.5,4,5,2,1,NA
fcp-trial,50,445507,0.0-11.0-0.0,voc_e2,11833,"[{""event"":""focus"",""trial"":0,""time"":0},{""event"":""fullscreenenter"",""trial"":1,""time"":2841},{""event"":""fullscreenexit"",""trial"":3,""time"":17724},{""event"":""blur"",""trial"":3,""time"":18958},{""event"":""focus"",""trial"":3,""time"":27221},{""event"":""blur"",""trial"":38,""time"":331692},{""event"":""focus"",""trial"":38,""time"":339796}]",NA,NA,NA,NA,NA,3,#FA92F8,#1CD855,0,10,0,38,1,1876,39,0,1277,10,1,experiment,NA,NA,0,0.1,0.9,1,0,3,1,NA
fcp-trial,51,448926,0.0-12.0-0.0,voc_e2,11833,"[{""event"":""focus"",""trial"":0,""time"":0},{""event"":""fullscreenenter"",""trial"":1,""time"":2841},{""event"":""fullscreenexit"",""trial"":3,""time"":17724},{""event"":""blur"",""trial"":3,""time"":18958},{""event"":""focus"",""trial"":3,""time"":27221},{""event"":""blur"",""trial"":38,""time"":331692},{""event"":""focus"",""trial"":38,""time"":339796}]",NA,NA,NA,NA,NA,0,#D89F1C,#3386FF,0,10,1,38,1,1104,37,1,795,0,1,experiment,NA,NA,2,0.5,0.5,4,5,4,1,NA
fcp-trial,52,453749,0.0-13.0-0.0,voc_e2,11833,"[{""event"":""focus"",""trial"":0,""time"":0},{""event"":""fullscreenenter"",""trial"":1,""time"":2841},{""event"":""fullscreenexit"",""trial"":3,""time"":17724},{""event"":""blur"",""trial"":3,""time"":18958},{""event"":""focus"",""trial"":3,""time"":27221},{""event"":""blur"",""trial"":38,""time"":331692},{""event"":""focus"",""trial"":38,""time"":339796}]",NA,NA,NA,NA,NA,5,#741CD8,#D8271C,10,10,0,38,1,1662,39,0,1637,10,1,experiment,NA,NA,1,0.3,0.7,3,2,5,1,NA
fcp-trial,53,457197,0.0-14.0-0.0,voc_e2,11833,"[{""event"":""focus"",""trial"":0,""time"":0},{""event"":""fullscreenenter"",""trial"":1,""time"":2841},{""event"":""fullscreenexit"",""trial"":3,""time"":17724},{""event"":""blur"",""trial"":3,""time"":18958},{""event"":""focus"",""trial"":3,""time"":27221},{""event"":""blur"",""trial"":38,""time"":331692},{""event"":""focus"",""trial"":38,""time"":339796}]",NA,NA,NA,NA,NA,6,#FA92F8,#1CD855,0,10,0,38,1,982,39,0,938,10,1,experiment,NA,NA,0,0.1,0.9,1,0,6,1,NA
fcp-trial,54,460448,0.0-15.0-0.0,voc_e2,11833,"[{""event"":""focus"",""trial"":0,""time"":0},{""event"":""fullscreenenter"",""trial"":1,""time"":2841},{""event"":""fullscreenexit"",""trial"":3,""time"":17724},{""event"":""blur"",""trial"":3,""time"":18958},{""event"":""focus"",""trial"":3,""time"":27221},{""event"":""blur"",""trial"":38,""time"":331692},{""event"":""focus"",""trial"":38,""time"":339796}]",NA,NA,NA,NA,NA,2,#1CD855,#FA92F8,10,0,1,38,1,640,37,1,1086,10,1,experiment,NA,NA,0,0.9,0.1,0,1,7,1,NA
fcp-trial,55,463539,0.0-16.0-0.0,voc_e2,11833,"[{""event"":""focus"",""trial"":0,""time"":0},{""event"":""fullscreenenter"",""trial"":1,""time"":2841},{""event"":""fullscreenexit"",""trial"":3,""time"":17724},{""event"":""blur"",""trial"":3,""time"":18958},{""event"":""focus"",""trial"":3,""time"":27221},{""event"":""blur"",""trial"":38,""time"":331692},{""event"":""focus"",""trial"":38,""time"":339796}]",NA,NA,NA,NA,NA,0,#741CD8,#D8271C,10,10,0,38,1,757,39,0,805,10,1,experiment,NA,NA,1,0.3,0.7,3,2,8,1,NA
fcp-trial,56,466578,0.0-17.0-0.0,voc_e2,11833,"[{""event"":""focus"",""trial"":0,""time"":0},{""event"":""fullscreenenter"",""trial"":1,""time"":2841},{""event"":""fullscreenexit"",""trial"":3,""time"":17724},{""event"":""blur"",""trial"":3,""time"":18958},{""event"":""focus"",""trial"":3,""time"":27221},{""event"":""blur"",""trial"":38,""time"":331692},{""event"":""focus"",""trial"":38,""time"":339796}]",NA,NA,NA,NA,NA,2,#3386FF,#D89F1C,0,10,0,38,1,553,39,0,954,10,1,experiment,NA,NA,2,0.5,0.5,5,4,9,1,NA
fcp-trial,57,469678,0.0-18.0-0.0,voc_e2,11833,"[{""event"":""focus"",""trial"":0,""time"":0},{""event"":""fullscreenenter"",""trial"":1,""time"":2841},{""event"":""fullscreenexit"",""trial"":3,""time"":17724},{""event"":""blur"",""trial"":3,""time"":18958},{""event"":""focus"",""trial"":3,""time"":27221},{""event"":""blur"",""trial"":38,""time"":331692},{""event"":""focus"",""trial"":38,""time"":339796}]",NA,NA,NA,NA,NA,5,#1CD855,#FA92F8,10,0,1,38,1,697,37,1,877,10,1,experiment,NA,NA,0,0.9,0.1,0,1,10,1,NA
fcp-trial,58,472718,0.0-19.0-0.0,voc_e2,11833,"[{""event"":""focus"",""trial"":0,""time"":0},{""event"":""fullscreenenter"",""trial"":1,""time"":2841},{""event"":""fullscreenexit"",""trial"":3,""time"":17724},{""event"":""blur"",""trial"":3,""time"":18958},{""event"":""focus"",""trial"":3,""time"":27221},{""event"":""blur"",""trial"":38,""time"":331692},{""event"":""focus"",""trial"":38,""time"":339796}]",NA,NA,NA,NA,NA,4,#1CD855,#FA92F8,0,0,1,38,1,792,37,1,608,0,1,experiment,NA,NA,0,0.9,0.1,0,1,11,1,NA
fcp-trial,59,475489,0.0-20.0-0.0,voc_e2,11833,"[{""event"":""focus"",""trial"":0,""time"":0},{""event"":""fullscreenenter"",""trial"":1,""time"":2841},{""event"":""fullscreenexit"",""trial"":3,""time"":17724},{""event"":""blur"",""trial"":3,""time"":18958},{""event"":""focus"",""trial"":3,""time"":27221},{""event"":""blur"",""trial"":38,""time"":331692},{""event"":""focus"",""trial"":38,""time"":339796}]",NA,NA,NA,NA,NA,1,#D8271C,#741CD8,10,0,1,38,1,617,37,1,626,10,1,experiment,NA,NA,1,0.7,0.3,2,3,12,1,NA
fcp-trial,60,478908,0.0-21.0-0.0,voc_e2,11833,"[{""event"":""focus"",""trial"":0,""time"":0},{""event"":""fullscreenenter"",""trial"":1,""time"":2841},{""event"":""fullscreenexit"",""trial"":3,""time"":17724},{""event"":""blur"",""trial"":3,""time"":18958},{""event"":""focus"",""trial"":3,""time"":27221},{""event"":""blur"",""trial"":38,""time"":331692},{""event"":""focus"",""trial"":38,""time"":339796}]",NA,NA,NA,NA,NA,0,#1CD855,#FA92F8,10,0,1,38,1,619,37,1,1287,10,1,experiment,NA,NA,0,0.9,0.1,0,1,13,1,NA
fcp-trial,61,482108,0.0-22.0-0.0,voc_e2,11833,"[{""event"":""focus"",""trial"":0,""time"":0},{""event"":""fullscreenenter"",""trial"":1,""time"":2841},{""event"":""fullscreenexit"",""trial"":3,""time"":17724},{""event"":""blur"",""trial"":3,""time"":18958},{""event"":""focus"",""trial"":3,""time"":27221},{""event"":""blur"",""trial"":38,""time"":331692},{""event"":""focus"",""trial"":38,""time"":339796}]",NA,NA,NA,NA,NA,4,#D89F1C,#3386FF,0,0,1,38,1,616,37,1,1069,0,1,experiment,NA,NA,2,0.5,0.5,4,5,14,1,NA
fcp-trial,62,484877,0.0-23.0-0.0,voc_e2,11833,"[{""event"":""focus"",""trial"":0,""time"":0},{""event"":""fullscreenenter"",""trial"":1,""time"":2841},{""event"":""fullscreenexit"",""trial"":3,""time"":17724},{""event"":""blur"",""trial"":3,""time"":18958},{""event"":""focus"",""trial"":3,""time"":27221},{""event"":""blur"",""trial"":38,""time"":331692},{""event"":""focus"",""trial"":38,""time"":339796}]",NA,NA,NA,NA,NA,6,#D8271C,#741CD8,10,10,1,38,1,568,37,1,681,10,1,experiment,NA,NA,1,0.7,0.3,2,3,15,1,NA
fcp-trial,63,487408,0.0-24.0-0.0,voc_e2,11833,"[{""event"":""focus"",""trial"":0,""time"":0},{""event"":""fullscreenenter"",""trial"":1,""time"":2841},{""event"":""fullscreenexit"",""trial"":3,""time"":17724},{""event"":""blur"",""trial"":3,""time"":18958},{""event"":""focus"",""trial"":3,""time"":27221},{""event"":""blur"",""trial"":38,""time"":331692},{""event"":""focus"",""trial"":38,""time"":339796}]",NA,NA,NA,NA,NA,6,#3386FF,#D89F1C,0,0,0,38,1,344,39,0,674,0,1,experiment,NA,NA,2,0.5,0.5,5,4,16,1,NA
fcp-trial,64,490388,0.0-25.0-0.0,voc_e2,11833,"[{""event"":""focus"",""trial"":0,""time"":0},{""event"":""fullscreenenter"",""trial"":1,""time"":2841},{""event"":""fullscreenexit"",""trial"":3,""time"":17724},{""event"":""blur"",""trial"":3,""time"":18958},{""event"":""focus"",""trial"":3,""time"":27221},{""event"":""blur"",""trial"":38,""time"":331692},{""event"":""focus"",""trial"":38,""time"":339796}]",NA,NA,NA,NA,NA,1,#FA92F8,#1CD855,0,10,0,38,1,819,39,0,637,10,1,experiment,NA,NA,0,0.1,0.9,1,0,17,1,NA
fcp-trial,65,493294,0.0-26.0-0.0,voc_e2,11833,"[{""event"":""focus"",""trial"":0,""time"":0},{""event"":""fullscreenenter"",""trial"":1,""time"":2841},{""event"":""fullscreenexit"",""trial"":3,""time"":17724},{""event"":""blur"",""trial"":3,""time"":18958},{""event"":""focus"",""trial"":3,""time"":27221},{""event"":""blur"",""trial"":38,""time"":331692},{""event"":""focus"",""trial"":38,""time"":339796}]",NA,NA,NA,NA,NA,2,#D8271C,#741CD8,10,0,1,38,1,775,37,1,614,10,1,experiment,NA,NA,1,0.7,0.3,2,3,18,1,NA
fcp-trial,66,496898,0.0-27.0-0.0,voc_e2,11833,"[{""event"":""focus"",""trial"":0,""time"":0},{""event"":""fullscreenenter"",""trial"":1,""time"":2841},{""event"":""fullscreenexit"",""trial"":3,""time"":17724},{""event"":""blur"",""trial"":3,""time"":18958},{""event"":""focus"",""trial"":3,""time"":27221},{""event"":""blur"",""trial"":38,""time"":331692},{""event"":""focus"",""trial"":38,""time"":339796}]",NA,NA,NA,NA,NA,3,#741CD8,#D8271C,0,10,0,38,1,670,39,0,1422,10,1,experiment,NA,NA,1,0.3,0.7,3,2,19,1,NA
fcp-trial,67,499417,0.0-28.0-0.0,voc_e2,11833,"[{""event"":""focus"",""trial"":0,""time"":0},{""event"":""fullscreenenter"",""trial"":1,""time"":2841},{""event"":""fullscreenexit"",""trial"":3,""time"":17724},{""event"":""blur"",""trial"":3,""time"":18958},{""event"":""focus"",""trial"":3,""time"":27221},{""event"":""blur"",""trial"":38,""time"":331692},{""event"":""focus"",""trial"":38,""time"":339796}]",NA,NA,NA,NA,NA,4,#741CD8,#D8271C,10,10,0,38,1,314,39,0,681,10,1,experiment,NA,NA,1,0.3,0.7,3,2,20,1,NA
fcp-trial,68,502158,0.0-29.0-0.0,voc_e2,11833,"[{""event"":""focus"",""trial"":0,""time"":0},{""event"":""fullscreenenter"",""trial"":1,""time"":2841},{""event"":""fullscreenexit"",""trial"":3,""time"":17724},{""event"":""blur"",""trial"":3,""time"":18958},{""event"":""focus"",""trial"":3,""time"":27221},{""event"":""blur"",""trial"":38,""time"":331692},{""event"":""focus"",""trial"":38,""time"":339796}]",NA,NA,NA,NA,NA,5,#3386FF,#D89F1C,0,0,0,38,1,515,39,0,691,0,1,experiment,NA,NA,2,0.5,0.5,5,4,21,1,NA
fcp-trial,69,505078,0.0-30.0-0.0,voc_e2,11833,"[{""event"":""focus"",""trial"":0,""time"":0},{""event"":""fullscreenenter"",""trial"":1,""time"":2841},{""event"":""fullscreenexit"",""trial"":3,""time"":17724},{""event"":""blur"",""trial"":3,""time"":18958},{""event"":""focus"",""trial"":3,""time"":27221},{""event"":""blur"",""trial"":38,""time"":331692},{""event"":""focus"",""trial"":38,""time"":339796}]",NA,NA,NA,NA,NA,1,#FA92F8,#1CD855,0,10,0,38,1,564,39,0,837,10,1,experiment,NA,NA,0,0.1,0.9,1,0,22,1,NA
fcp-trial,70,507917,0.0-31.0-0.0,voc_e2,11833,"[{""event"":""focus"",""trial"":0,""time"":0},{""event"":""fullscreenenter"",""trial"":1,""time"":2841},{""event"":""fullscreenexit"",""trial"":3,""time"":17724},{""event"":""blur"",""trial"":3,""time"":18958},{""event"":""focus"",""trial"":3,""time"":27221},{""event"":""blur"",""trial"":38,""time"":331692},{""event"":""focus"",""trial"":38,""time"":339796}]",NA,NA,NA,NA,NA,4,#D8271C,#741CD8,10,10,1,38,1,606,37,1,724,10,1,experiment,NA,NA,1,0.7,0.3,2,3,23,1,NA
fcp-trial,71,511168,0.0-32.0-0.0,voc_e2,11833,"[{""event"":""focus"",""trial"":0,""time"":0},{""event"":""fullscreenenter"",""trial"":1,""time"":2841},{""event"":""fullscreenexit"",""trial"":3,""time"":17724},{""event"":""blur"",""trial"":3,""time"":18958},{""event"":""focus"",""trial"":3,""time"":27221},{""event"":""blur"",""trial"":38,""time"":331692},{""event"":""focus"",""trial"":38,""time"":339796}]",NA,NA,NA,NA,NA,0,#741CD8,#D8271C,0,10,0,38,1,559,39,0,1178,10,1,experiment,NA,NA,1,0.3,0.7,3,2,24,1,NA
fcp-trial,72,513848,0.0-33.0-0.0,voc_e2,11833,"[{""event"":""focus"",""trial"":0,""time"":0},{""event"":""fullscreenenter"",""trial"":1,""time"":2841},{""event"":""fullscreenexit"",""trial"":3,""time"":17724},{""event"":""blur"",""trial"":3,""time"":18958},{""event"":""focus"",""trial"":3,""time"":27221},{""event"":""blur"",""trial"":38,""time"":331692},{""event"":""focus"",""trial"":38,""time"":339796}]",NA,NA,NA,NA,NA,2,#741CD8,#D8271C,10,10,0,38,1,541,39,0,624,10,1,experiment,NA,NA,1,0.3,0.7,3,2,25,1,NA
fcp-trial,73,516689,0.0-34.0-0.0,voc_e2,11833,"[{""event"":""focus"",""trial"":0,""time"":0},{""event"":""fullscreenenter"",""trial"":1,""time"":2841},{""event"":""fullscreenexit"",""trial"":3,""time"":17724},{""event"":""blur"",""trial"":3,""time"":18958},{""event"":""focus"",""trial"":3,""time"":27221},{""event"":""blur"",""trial"":38,""time"":331692},{""event"":""focus"",""trial"":38,""time"":339796}]",NA,NA,NA,NA,NA,4,#1CD855,#FA92F8,10,0,1,38,1,548,37,1,756,10,1,experiment,NA,NA,0,0.9,0.1,0,1,26,1,NA
fcp-trial,74,519258,0.0-35.0-0.0,voc_e2,11833,"[{""event"":""focus"",""trial"":0,""time"":0},{""event"":""fullscreenenter"",""trial"":1,""time"":2841},{""event"":""fullscreenexit"",""trial"":3,""time"":17724},{""event"":""blur"",""trial"":3,""time"":18958},{""event"":""focus"",""trial"":3,""time"":27221},{""event"":""blur"",""trial"":38,""time"":331692},{""event"":""focus"",""trial"":38,""time"":339796}]",NA,NA,NA,NA,NA,3,#D8271C,#741CD8,10,10,1,38,1,427,37,1,629,10,1,experiment,NA,NA,1,0.7,0.3,2,3,27,1,NA
fcp-trial,75,521868,0.0-36.0-0.0,voc_e2,11833,"[{""event"":""focus"",""trial"":0,""time"":0},{""event"":""fullscreenenter"",""trial"":1,""time"":2841},{""event"":""fullscreenexit"",""trial"":3,""time"":17724},{""event"":""blur"",""trial"":3,""time"":18958},{""event"":""focus"",""trial"":3,""time"":27221},{""event"":""blur"",""trial"":38,""time"":331692},{""event"":""focus"",""trial"":38,""time"":339796}]",NA,NA,NA,NA,NA,2,#3386FF,#D89F1C,10,0,0,38,1,538,37,1,556,10,0,experiment,NA,NA,2,0.5,0.5,5,4,28,1,NA
fcp-trial,76,524489,0.0-37.0-0.0,voc_e2,11833,"[{""event"":""focus"",""trial"":0,""time"":0},{""event"":""fullscreenenter"",""trial"":1,""time"":2841},{""event"":""fullscreenexit"",""trial"":3,""time"":17724},{""event"":""blur"",""trial"":3,""time"":18958},{""event"":""focus"",""trial"":3,""time"":27221},{""event"":""blur"",""trial"":38,""time"":331692},{""event"":""focus"",""trial"":38,""time"":339796}]",NA,NA,NA,NA,NA,4,#D89F1C,#3386FF,0,0,1,38,1,474,39,0,623,0,0,experiment,NA,NA,2,0.5,0.5,4,5,29,1,NA
fcp-trial,77,527089,0.0-38.0-0.0,voc_e2,11833,"[{""event"":""focus"",""trial"":0,""time"":0},{""event"":""fullscreenenter"",""trial"":1,""time"":2841},{""event"":""fullscreenexit"",""trial"":3,""time"":17724},{""event"":""blur"",""trial"":3,""time"":18958},{""event"":""focus"",""trial"":3,""time"":27221},{""event"":""blur"",""trial"":38,""time"":331692},{""event"":""focus"",""trial"":38,""time"":339796}]",NA,NA,NA,NA,NA,5,#FA92F8,#1CD855,0,10,0,38,1,410,39,0,657,10,1,experiment,NA,NA,0,0.1,0.9,1,0,30,1,NA
fcp-trial,78,529958,0.0-39.0-0.0,voc_e2,11833,"[{""event"":""focus"",""trial"":0,""time"":0},{""event"":""fullscreenenter"",""trial"":1,""time"":2841},{""event"":""fullscreenexit"",""trial"":3,""time"":17724},{""event"":""blur"",""trial"":3,""time"":18958},{""event"":""focus"",""trial"":3,""time"":27221},{""event"":""blur"",""trial"":38,""time"":331692},{""event"":""focus"",""trial"":38,""time"":339796}]",NA,NA,NA,NA,NA,0,#3386FF,#D89F1C,10,10,0,38,1,403,37,1,926,10,0,experiment,NA,NA,2,0.5,0.5,5,4,31,1,NA
fcp-trial,79,532618,0.0-40.0-0.0,voc_e2,11833,"[{""event"":""focus"",""trial"":0,""time"":0},{""event"":""fullscreenenter"",""trial"":1,""time"":2841},{""event"":""fullscreenexit"",""trial"":3,""time"":17724},{""event"":""blur"",""trial"":3,""time"":18958},{""event"":""focus"",""trial"":3,""time"":27221},{""event"":""blur"",""trial"":38,""time"":331692},{""event"":""focus"",""trial"":38,""time"":339796}]",NA,NA,NA,NA,NA,5,#D8271C,#741CD8,0,10,1,38,1,564,37,1,575,0,1,experiment,NA,NA,1,0.7,0.3,2,3,32,1,NA
fcp-trial,80,535240,0.0-41.0-0.0,voc_e2,11833,"[{""event"":""focus"",""trial"":0,""time"":0},{""event"":""fullscreenenter"",""trial"":1,""time"":2841},{""event"":""fullscreenexit"",""trial"":3,""time"":17724},{""event"":""blur"",""trial"":3,""time"":18958},{""event"":""focus"",""trial"":3,""time"":27221},{""event"":""blur"",""trial"":38,""time"":331692},{""event"":""focus"",""trial"":38,""time"":339796}]",NA,NA,NA,NA,NA,6,#D89F1C,#3386FF,0,10,1,38,1,498,39,0,605,10,0,experiment,NA,NA,2,0.5,0.5,4,5,33,1,NA
fcp-trial,81,537818,0.0-42.0-0.0,voc_e2,11833,"[{""event"":""focus"",""trial"":0,""time"":0},{""event"":""fullscreenenter"",""trial"":1,""time"":2841},{""event"":""fullscreenexit"",""trial"":3,""time"":17724},{""event"":""blur"",""trial"":3,""time"":18958},{""event"":""focus"",""trial"":3,""time"":27221},{""event"":""blur"",""trial"":38,""time"":331692},{""event"":""focus"",""trial"":38,""time"":339796}]",NA,NA,NA,NA,NA,3,#FA92F8,#1CD855,0,10,0,38,1,443,39,0,629,10,1,experiment,NA,NA,0,0.1,0.9,1,0,34,1,NA
fcp-trial,82,540398,0.0-43.0-0.0,voc_e2,11833,"[{""event"":""focus"",""trial"":0,""time"":0},{""event"":""fullscreenenter"",""trial"":1,""time"":2841},{""event"":""fullscreenexit"",""trial"":3,""time"":17724},{""event"":""blur"",""trial"":3,""time"":18958},{""event"":""focus"",""trial"":3,""time"":27221},{""event"":""blur"",""trial"":38,""time"":331692},{""event"":""focus"",""trial"":38,""time"":339796}]",NA,NA,NA,NA,NA,3,#D89F1C,#3386FF,10,0,1,38,1,386,39,0,645,0,0,experiment,NA,NA,2,0.5,0.5,4,5,35,1,NA
fcp-trial,83,542818,0.0-44.0-0.0,voc_e2,11833,"[{""event"":""focus"",""trial"":0,""time"":0},{""event"":""fullscreenenter"",""trial"":1,""time"":2841},{""event"":""fullscreenexit"",""trial"":3,""time"":17724},{""event"":""blur"",""trial"":3,""time"":18958},{""event"":""focus"",""trial"":3,""time"":27221},{""event"":""blur"",""trial"":38,""time"":331692},{""event"":""focus"",""trial"":38,""time"":339796}]",NA,NA,NA,NA,NA,6,#D8271C,#741CD8,10,0,1,38,1,334,37,1,570,10,1,experiment,NA,NA,1,0.7,0.3,2,3,36,1,NA
fcp-trial,84,545208,0.0-45.0-0.0,voc_e2,11833,"[{""event"":""focus"",""trial"":0,""time"":0},{""event"":""fullscreenenter"",""trial"":1,""time"":2841},{""event"":""fullscreenexit"",""trial"":3,""time"":17724},{""event"":""blur"",""trial"":3,""time"":18958},{""event"":""focus"",""trial"":3,""time"":27221},{""event"":""blur"",""trial"":38,""time"":331692},{""event"":""focus"",""trial"":38,""time"":339796}]",NA,NA,NA,NA,NA,6,#FA92F8,#1CD855,0,0,0,38,1,291,39,0,566,0,1,experiment,NA,NA,0,0.1,0.9,1,0,37,1,NA
fcp-trial,85,547898,0.0-46.0-0.0,voc_e2,11833,"[{""event"":""focus"",""trial"":0,""time"":0},{""event"":""fullscreenenter"",""trial"":1,""time"":2841},{""event"":""fullscreenexit"",""trial"":3,""time"":17724},{""event"":""blur"",""trial"":3,""time"":18958},{""event"":""focus"",""trial"":3,""time"":27221},{""event"":""blur"",""trial"":38,""time"":331692},{""event"":""focus"",""trial"":38,""time"":339796}]",NA,NA,NA,NA,NA,1,#D89F1C,#3386FF,10,0,1,38,1,618,39,0,535,0,0,experiment,NA,NA,2,0.5,0.5,4,5,38,1,NA
fcp-trial,86,550338,0.0-47.0-0.0,voc_e2,11833,"[{""event"":""focus"",""trial"":0,""time"":0},{""event"":""fullscreenenter"",""trial"":1,""time"":2841},{""event"":""fullscreenexit"",""trial"":3,""time"":17724},{""event"":""blur"",""trial"":3,""time"":18958},{""event"":""focus"",""trial"":3,""time"":27221},{""event"":""blur"",""trial"":38,""time"":331692},{""event"":""focus"",""trial"":38,""time"":339796}]",NA,NA,NA,NA,NA,1,#741CD8,#D8271C,0,0,0,38,1,282,39,0,637,0,1,experiment,NA,NA,1,0.3,0.7,3,2,39,1,NA
fcp-trial,87,553268,0.0-48.0-0.0,voc_e2,11833,"[{""event"":""focus"",""trial"":0,""time"":0},{""event"":""fullscreenenter"",""trial"":1,""time"":2841},{""event"":""fullscreenexit"",""trial"":3,""time"":17724},{""event"":""blur"",""trial"":3,""time"":18958},{""event"":""focus"",""trial"":3,""time"":27221},{""event"":""blur"",""trial"":38,""time"":331692},{""event"":""focus"",""trial"":38,""time"":339796}]",NA,NA,NA,NA,NA,5,#D89F1C,#3386FF,0,0,1,38,1,722,39,0,671,0,0,experiment,NA,NA,2,0.5,0.5,4,5,40,1,NA
fcp-trial,88,555798,0.0-49.0-0.0,voc_e2,11833,"[{""event"":""focus"",""trial"":0,""time"":0},{""event"":""fullscreenenter"",""trial"":1,""time"":2841},{""event"":""fullscreenexit"",""trial"":3,""time"":17724},{""event"":""blur"",""trial"":3,""time"":18958},{""event"":""focus"",""trial"":3,""time"":27221},{""event"":""blur"",""trial"":38,""time"":331692},{""event"":""focus"",""trial"":38,""time"":339796}]",NA,NA,NA,NA,NA,0,#1CD855,#FA92F8,10,0,1,38,1,449,37,1,566,10,1,experiment,NA,NA,0,0.9,0.1,0,1,41,1,NA
fcp-trial,89,558128,0.0-50.0-0.0,voc_e2,11833,"[{""event"":""focus"",""trial"":0,""time"":0},{""event"":""fullscreenenter"",""trial"":1,""time"":2841},{""event"":""fullscreenexit"",""trial"":3,""time"":17724},{""event"":""blur"",""trial"":3,""time"":18958},{""event"":""focus"",""trial"":3,""time"":27221},{""event"":""blur"",""trial"":38,""time"":331692},{""event"":""focus"",""trial"":38,""time"":339796}]",NA,NA,NA,NA,NA,2,#FA92F8,#1CD855,0,10,0,38,1,39,39,0,756,10,1,experiment,NA,NA,0,0.1,0.9,1,0,42,1,NA
fcp-trial,90,560558,0.0-51.0-0.0,voc_e2,11833,"[{""event"":""focus"",""trial"":0,""time"":0},{""event"":""fullscreenenter"",""trial"":1,""time"":2841},{""event"":""fullscreenexit"",""trial"":3,""time"":17724},{""event"":""blur"",""trial"":3,""time"":18958},{""event"":""focus"",""trial"":3,""time"":27221},{""event"":""blur"",""trial"":38,""time"":331692},{""event"":""focus"",""trial"":38,""time"":339796}]",NA,NA,NA,NA,NA,0,#3386FF,#D89F1C,10,10,0,38,1,68,37,1,828,10,0,experiment,NA,NA,2,0.5,0.5,5,4,43,1,NA
fcp-trial,91,567128,0.0-52.0-0.0,voc_e2,11833,"[{""event"":""focus"",""trial"":0,""time"":0},{""event"":""fullscreenenter"",""trial"":1,""time"":2841},{""event"":""fullscreenexit"",""trial"":3,""time"":17724},{""event"":""blur"",""trial"":3,""time"":18958},{""event"":""focus"",""trial"":3,""time"":27221},{""event"":""blur"",""trial"":38,""time"":331692},{""event"":""focus"",""trial"":38,""time"":339796}]",NA,NA,NA,NA,NA,6,#741CD8,#D8271C,0,10,0,40,0,3589,39,0,1455,10,1,experiment,NA,NA,1,0.3,0.7,3,2,44,1,NA
fcp-trial,92,571728,0.0-53.0-0.0,voc_e2,11833,"[{""event"":""focus"",""trial"":0,""time"":0},{""event"":""fullscreenenter"",""trial"":1,""time"":2841},{""event"":""fullscreenexit"",""trial"":3,""time"":17724},{""event"":""blur"",""trial"":3,""time"":18958},{""event"":""focus"",""trial"":3,""time"":27221},{""event"":""blur"",""trial"":38,""time"":331692},{""event"":""focus"",""trial"":38,""time"":339796}]",NA,NA,NA,NA,NA,5,#1CD855,#FA92F8,0,10,1,40,0,1420,39,0,1667,10,0,experiment,NA,NA,0,0.9,0.1,0,1,45,1,NA
fcp-trial,93,575608,0.0-54.0-0.0,voc_e2,11833,"[{""event"":""focus"",""trial"":0,""time"":0},{""event"":""fullscreenenter"",""trial"":1,""time"":2841},{""event"":""fullscreenexit"",""trial"":3,""time"":17724},{""event"":""blur"",""trial"":3,""time"":18958},{""event"":""focus"",""trial"":3,""time"":27221},{""event"":""blur"",""trial"":38,""time"":331692},{""event"":""focus"",""trial"":38,""time"":339796}]",NA,NA,NA,NA,NA,4,#FA92F8,#1CD855,0,10,0,40,0,1149,37,1,1195,0,0,experiment,NA,NA,0,0.1,0.9,1,0,46,2,NA
fcp-trial,94,579818,0.0-55.0-0.0,voc_e2,11833,"[{""event"":""focus"",""trial"":0,""time"":0},{""event"":""fullscreenenter"",""trial"":1,""time"":2841},{""event"":""fullscreenexit"",""trial"":3,""time"":17724},{""event"":""blur"",""trial"":3,""time"":18958},{""event"":""focus"",""trial"":3,""time"":27221},{""event"":""blur"",""trial"":38,""time"":331692},{""event"":""focus"",""trial"":38,""time"":339796}]",NA,NA,NA,NA,NA,1,#FA92F8,#1CD855,0,10,0,40,0,1981,39,0,694,10,1,experiment,NA,NA,0,0.1,0.9,1,0,47,2,NA
fcp-trial,95,583190,0.0-56.0-0.0,voc_e2,11833,"[{""event"":""focus"",""trial"":0,""time"":0},{""event"":""fullscreenenter"",""trial"":1,""time"":2841},{""event"":""fullscreenexit"",""trial"":3,""time"":17724},{""event"":""blur"",""trial"":3,""time"":18958},{""event"":""focus"",""trial"":3,""time"":27221},{""event"":""blur"",""trial"":38,""time"":331692},{""event"":""focus"",""trial"":38,""time"":339796}]",NA,NA,NA,NA,NA,2,#3386FF,#D89F1C,0,0,0,40,0,1139,39,0,692,0,1,experiment,NA,NA,2,0.5,0.5,5,4,48,2,NA
fcp-trial,96,587338,0.0-57.0-0.0,voc_e2,11833,"[{""event"":""focus"",""trial"":0,""time"":0},{""event"":""fullscreenenter"",""trial"":1,""time"":2841},{""event"":""fullscreenexit"",""trial"":3,""time"":17724},{""event"":""blur"",""trial"":3,""time"":18958},{""event"":""focus"",""trial"":3,""time"":27221},{""event"":""blur"",""trial"":38,""time"":331692},{""event"":""focus"",""trial"":38,""time"":339796}]",NA,NA,NA,NA,NA,0,#D8271C,#741CD8,10,0,1,38,1,1437,37,1,1190,10,1,experiment,NA,NA,1,0.7,0.3,2,3,49,2,NA
fcp-trial,97,590758,0.0-58.0-0.0,voc_e2,11833,"[{""event"":""focus"",""trial"":0,""time"":0},{""event"":""fullscreenenter"",""trial"":1,""time"":2841},{""event"":""fullscreenexit"",""trial"":3,""time"":17724},{""event"":""blur"",""trial"":3,""time"":18958},{""event"":""focus"",""trial"":3,""time"":27221},{""event"":""blur"",""trial"":38,""time"":331692},{""event"":""focus"",""trial"":38,""time"":339796}]",NA,NA,NA,NA,NA,3,#D89F1C,#3386FF,0,10,1,40,0,1099,39,0,809,10,0,experiment,NA,NA,2,0.5,0.5,4,5,50,2,NA
fcp-trial,98,594328,0.0-59.0-0.0,voc_e2,11833,"[{""event"":""focus"",""trial"":0,""time"":0},{""event"":""fullscreenenter"",""trial"":1,""time"":2841},{""event"":""fullscreenexit"",""trial"":3,""time"":17724},{""event"":""blur"",""trial"":3,""time"":18958},{""event"":""focus"",""trial"":3,""time"":27221},{""event"":""blur"",""trial"":38,""time"":331692},{""event"":""focus"",""trial"":38,""time"":339796}]",NA,NA,NA,NA,NA,3,#FA92F8,#1CD855,0,10,0,40,0,1134,37,1,916,0,0,experiment,NA,NA,0,0.1,0.9,1,0,51,2,NA
fcp-trial,99,598658,0.0-60.0-0.0,voc_e2,11833,"[{""event"":""focus"",""trial"":0,""time"":0},{""event"":""fullscreenenter"",""trial"":1,""time"":2841},{""event"":""fullscreenexit"",""trial"":3,""time"":17724},{""event"":""blur"",""trial"":3,""time"":18958},{""event"":""focus"",""trial"":3,""time"":27221},{""event"":""blur"",""trial"":38,""time"":331692},{""event"":""focus"",""trial"":38,""time"":339796}]",NA,NA,NA,NA,NA,1,#D8271C,#741CD8,10,0,1,40,0,1732,37,1,1064,10,1,experiment,NA,NA,1,0.7,0.3,2,3,52,2,NA
fcp-trial,100,602248,0.0-61.0-0.0,voc_e2,11833,"[{""event"":""focus"",""trial"":0,""time"":0},{""event"":""fullscreenenter"",""trial"":1,""time"":2841},{""event"":""fullscreenexit"",""trial"":3,""time"":17724},{""event"":""blur"",""trial"":3,""time"":18958},{""event"":""focus"",""trial"":3,""time"":27221},{""event"":""blur"",""trial"":38,""time"":331692},{""event"":""focus"",""trial"":38,""time"":339796}]",NA,NA,NA,NA,NA,0,#FA92F8,#1CD855,10,10,0,38,1,1121,39,0,832,10,1,experiment,NA,NA,0,0.1,0.9,1,0,53,2,NA
fcp-trial,101,605706,0.0-62.0-0.0,voc_e2,11833,"[{""event"":""focus"",""trial"":0,""time"":0},{""event"":""fullscreenenter"",""trial"":1,""time"":2841},{""event"":""fullscreenexit"",""trial"":3,""time"":17724},{""event"":""blur"",""trial"":3,""time"":18958},{""event"":""focus"",""trial"":3,""time"":27221},{""event"":""blur"",""trial"":38,""time"":331692},{""event"":""focus"",""trial"":38,""time"":339796}]",NA,NA,NA,NA,NA,1,#D89F1C,#3386FF,10,10,1,40,0,893,39,0,1042,10,0,experiment,NA,NA,2,0.5,0.5,4,5,54,2,NA
fcp-trial,102,608968,0.0-63.0-0.0,voc_e2,11833,"[{""event"":""focus"",""trial"":0,""time"":0},{""event"":""fullscreenenter"",""trial"":1,""time"":2841},{""event"":""fullscreenexit"",""trial"":3,""time"":17724},{""event"":""blur"",""trial"":3,""time"":18958},{""event"":""focus"",""trial"":3,""time"":27221},{""event"":""blur"",""trial"":38,""time"":331692},{""event"":""focus"",""trial"":38,""time"":339796}]",NA,NA,NA,NA,NA,6,#3386FF,#D89F1C,10,10,0,40,0,1133,37,1,599,10,0,experiment,NA,NA,2,0.5,0.5,5,4,55,2,NA
fcp-trial,103,612057,0.0-64.0-0.0,voc_e2,11833,"[{""event"":""focus"",""trial"":0,""time"":0},{""event"":""fullscreenenter"",""trial"":1,""time"":2841},{""event"":""fullscreenexit"",""trial"":3,""time"":17724},{""event"":""blur"",""trial"":3,""time"":18958},{""event"":""focus"",""trial"":3,""time"":27221},{""event"":""blur"",""trial"":38,""time"":331692},{""event"":""focus"",""trial"":38,""time"":339796}]",NA,NA,NA,NA,NA,5,#D89F1C,#3386FF,0,10,1,40,0,930,39,0,645,10,0,experiment,NA,NA,2,0.5,0.5,4,5,56,2,NA
fcp-trial,104,614989,0.0-65.0-0.0,voc_e2,11833,"[{""event"":""focus"",""trial"":0,""time"":0},{""event"":""fullscreenenter"",""trial"":1,""time"":2841},{""event"":""fullscreenexit"",""trial"":3,""time"":17724},{""event"":""blur"",""trial"":3,""time"":18958},{""event"":""focus"",""trial"":3,""time"":27221},{""event"":""blur"",""trial"":38,""time"":331692},{""event"":""focus"",""trial"":38,""time"":339796}]",NA,NA,NA,NA,NA,4,#741CD8,#D8271C,0,10,0,40,0,739,39,0,687,10,1,experiment,NA,NA,1,0.3,0.7,3,2,57,2,NA
fcp-trial,105,618448,0.0-66.0-0.0,voc_e2,11833,"[{""event"":""focus"",""trial"":0,""time"":0},{""event"":""fullscreenenter"",""trial"":1,""time"":2841},{""event"":""fullscreenexit"",""trial"":3,""time"":17724},{""event"":""blur"",""trial"":3,""time"":18958},{""event"":""focus"",""trial"":3,""time"":27221},{""event"":""blur"",""trial"":38,""time"":331692},{""event"":""focus"",""trial"":38,""time"":339796}]",NA,NA,NA,NA,NA,2,#1CD855,#FA92F8,10,0,1,40,0,1295,37,1,644,10,1,experiment,NA,NA,0,0.9,0.1,0,1,58,2,NA
fcp-trial,106,621639,0.0-67.0-0.0,voc_e2,11833,"[{""event"":""focus"",""trial"":0,""time"":0},{""event"":""fullscreenenter"",""trial"":1,""time"":2841},{""event"":""fullscreenexit"",""trial"":3,""time"":17724},{""event"":""blur"",""trial"":3,""time"":18958},{""event"":""focus"",""trial"":3,""time"":27221},{""event"":""blur"",""trial"":38,""time"":331692},{""event"":""focus"",""trial"":38,""time"":339796}]",NA,NA,NA,NA,NA,6,#FA92F8,#1CD855,0,10,0,40,0,1100,37,1,559,0,0,experiment,NA,NA,0,0.1,0.9,1,0,59,2,NA
fcp-trial,107,625578,0.0-68.0-0.0,voc_e2,11833,"[{""event"":""focus"",""trial"":0,""time"":0},{""event"":""fullscreenenter"",""trial"":1,""time"":2841},{""event"":""fullscreenexit"",""trial"":3,""time"":17724},{""event"":""blur"",""trial"":3,""time"":18958},{""event"":""focus"",""trial"":3,""time"":27221},{""event"":""blur"",""trial"":38,""time"":331692},{""event"":""focus"",""trial"":38,""time"":339796}]",NA,NA,NA,NA,NA,4,#D89F1C,#3386FF,10,10,1,40,0,1432,39,0,979,10,0,experiment,NA,NA,2,0.5,0.5,4,5,60,2,NA
fcp-trial,108,628738,0.0-69.0-0.0,voc_e2,11833,"[{""event"":""focus"",""trial"":0,""time"":0},{""event"":""fullscreenenter"",""trial"":1,""time"":2841},{""event"":""fullscreenexit"",""trial"":3,""time"":17724},{""event"":""blur"",""trial"":3,""time"":18958},{""event"":""focus"",""trial"":3,""time"":27221},{""event"":""blur"",""trial"":38,""time"":331692},{""event"":""focus"",""trial"":38,""time"":339796}]",NA,NA,NA,NA,NA,2,#741CD8,#D8271C,0,0,0,40,0,1122,37,1,522,0,0,experiment,NA,NA,1,0.3,0.7,3,2,61,2,NA
fcp-trial,109,631918,0.0-70.0-0.0,voc_e2,11833,"[{""event"":""focus"",""trial"":0,""time"":0},{""event"":""fullscreenenter"",""trial"":1,""time"":2841},{""event"":""fullscreenexit"",""trial"":3,""time"":17724},{""event"":""blur"",""trial"":3,""time"":18958},{""event"":""focus"",""trial"":3,""time"":27221},{""event"":""blur"",""trial"":38,""time"":331692},{""event"":""focus"",""trial"":38,""time"":339796}]",NA,NA,NA,NA,NA,3,#D8271C,#741CD8,10,10,1,40,0,1082,37,1,585,10,1,experiment,NA,NA,1,0.7,0.3,2,3,62,2,NA
fcp-trial,110,634978,0.0-71.0-0.0,voc_e2,11833,"[{""event"":""focus"",""trial"":0,""time"":0},{""event"":""fullscreenenter"",""trial"":1,""time"":2841},{""event"":""fullscreenexit"",""trial"":3,""time"":17724},{""event"":""blur"",""trial"":3,""time"":18958},{""event"":""focus"",""trial"":3,""time"":27221},{""event"":""blur"",""trial"":38,""time"":331692},{""event"":""focus"",""trial"":38,""time"":339796}]",NA,NA,NA,NA,NA,5,#741CD8,#D8271C,0,10,0,40,0,722,39,0,814,10,1,experiment,NA,NA,1,0.3,0.7,3,2,63,2,NA
fcp-trial,111,638078,0.0-72.0-0.0,voc_e2,11833,"[{""event"":""focus"",""trial"":0,""time"":0},{""event"":""fullscreenenter"",""trial"":1,""time"":2841},{""event"":""fullscreenexit"",""trial"":3,""time"":17724},{""event"":""blur"",""trial"":3,""time"":18958},{""event"":""focus"",""trial"":3,""time"":27221},{""event"":""blur"",""trial"":38,""time"":331692},{""event"":""focus"",""trial"":38,""time"":339796}]",NA,NA,NA,NA,NA,6,#D8271C,#741CD8,10,10,1,40,0,677,37,1,891,10,1,experiment,NA,NA,1,0.7,0.3,2,3,64,2,NA
fcp-trial,112,640798,0.0-73.0-0.0,voc_e2,11833,"[{""event"":""focus"",""trial"":0,""time"":0},{""event"":""fullscreenenter"",""trial"":1,""time"":2841},{""event"":""fullscreenexit"",""trial"":3,""time"":17724},{""event"":""blur"",""trial"":3,""time"":18958},{""event"":""focus"",""trial"":3,""time"":27221},{""event"":""blur"",""trial"":38,""time"":331692},{""event"":""focus"",""trial"":38,""time"":339796}]",NA,NA,NA,NA,NA,1,#D89F1C,#3386FF,10,0,1,40,0,605,37,1,568,10,1,experiment,NA,NA,2,0.5,0.5,4,5,65,2,NA
fcp-trial,113,643527,0.0-74.0-0.0,voc_e2,11833,"[{""event"":""focus"",""trial"":0,""time"":0},{""event"":""fullscreenenter"",""trial"":1,""time"":2841},{""event"":""fullscreenexit"",""trial"":3,""time"":17724},{""event"":""blur"",""trial"":3,""time"":18958},{""event"":""focus"",""trial"":3,""time"":27221},{""event"":""blur"",""trial"":38,""time"":331692},{""event"":""focus"",""trial"":38,""time"":339796}]",NA,NA,NA,NA,NA,4,#D89F1C,#3386FF,10,0,1,40,0,647,37,1,565,10,1,experiment,NA,NA,2,0.5,0.5,4,5,66,2,NA
fcp-trial,114,646698,0.0-75.0-0.0,voc_e2,11833,"[{""event"":""focus"",""trial"":0,""time"":0},{""event"":""fullscreenenter"",""trial"":1,""time"":2841},{""event"":""fullscreenexit"",""trial"":3,""time"":17724},{""event"":""blur"",""trial"":3,""time"":18958},{""event"":""focus"",""trial"":3,""time"":27221},{""event"":""blur"",""trial"":38,""time"":331692},{""event"":""focus"",""trial"":38,""time"":339796}]",NA,NA,NA,NA,NA,0,#1CD855,#FA92F8,0,0,1,40,0,764,39,0,891,0,0,experiment,NA,NA,0,0.9,0.1,0,1,67,2,NA
fcp-trial,115,649648,0.0-76.0-0.0,voc_e2,11833,"[{""event"":""focus"",""trial"":0,""time"":0},{""event"":""fullscreenenter"",""trial"":1,""time"":2841},{""event"":""fullscreenexit"",""trial"":3,""time"":17724},{""event"":""blur"",""trial"":3,""time"":18958},{""event"":""focus"",""trial"":3,""time"":27221},{""event"":""blur"",""trial"":38,""time"":331692},{""event"":""focus"",""trial"":38,""time"":339796}]",NA,NA,NA,NA,NA,4,#D8271C,#741CD8,10,0,1,40,0,628,37,1,814,10,1,experiment,NA,NA,1,0.7,0.3,2,3,68,2,NA
fcp-trial,116,652578,0.0-77.0-0.0,voc_e2,11833,"[{""event"":""focus"",""trial"":0,""time"":0},{""event"":""fullscreenenter"",""trial"":1,""time"":2841},{""event"":""fullscreenexit"",""trial"":3,""time"":17724},{""event"":""blur"",""trial"":3,""time"":18958},{""event"":""focus"",""trial"":3,""time"":27221},{""event"":""blur"",""trial"":38,""time"":331692},{""event"":""focus"",""trial"":38,""time"":339796}]",NA,NA,NA,NA,NA,5,#D8271C,#741CD8,10,0,1,40,0,733,37,1,683,10,1,experiment,NA,NA,1,0.7,0.3,2,3,69,2,NA
fcp-trial,117,655717,0.0-78.0-0.0,voc_e2,11833,"[{""event"":""focus"",""trial"":0,""time"":0},{""event"":""fullscreenenter"",""trial"":1,""time"":2841},{""event"":""fullscreenexit"",""trial"":3,""time"":17724},{""event"":""blur"",""trial"":3,""time"":18958},{""event"":""focus"",""trial"":3,""time"":27221},{""event"":""blur"",""trial"":38,""time"":331692},{""event"":""focus"",""trial"":38,""time"":339796}]",NA,NA,NA,NA,NA,2,#3386FF,#D89F1C,10,0,0,40,0,1033,37,1,580,10,0,experiment,NA,NA,2,0.5,0.5,5,4,70,2,NA
fcp-trial,118,660448,0.0-79.0-0.0,voc_e2,11833,"[{""event"":""focus"",""trial"":0,""time"":0},{""event"":""fullscreenenter"",""trial"":1,""time"":2841},{""event"":""fullscreenexit"",""trial"":3,""time"":17724},{""event"":""blur"",""trial"":3,""time"":18958},{""event"":""focus"",""trial"":3,""time"":27221},{""event"":""blur"",""trial"":38,""time"":331692},{""event"":""focus"",""trial"":38,""time"":339796}]",NA,NA,NA,NA,NA,2,#D8271C,#741CD8,10,0,1,40,0,2447,37,1,764,10,1,experiment,NA,NA,1,0.7,0.3,2,3,71,2,NA
fcp-trial,119,663308,0.0-80.0-0.0,voc_e2,11833,"[{""event"":""focus"",""trial"":0,""time"":0},{""event"":""fullscreenenter"",""trial"":1,""time"":2841},{""event"":""fullscreenexit"",""trial"":3,""time"":17724},{""event"":""blur"",""trial"":3,""time"":18958},{""event"":""focus"",""trial"":3,""time"":27221},{""event"":""blur"",""trial"":38,""time"":331692},{""event"":""focus"",""trial"":38,""time"":339796}]",NA,NA,NA,NA,NA,6,#1CD855,#FA92F8,10,0,1,40,0,636,37,1,708,10,1,experiment,NA,NA,0,0.9,0.1,0,1,72,2,NA
fcp-trial,120,666089,0.0-81.0-0.0,voc_e2,11833,"[{""event"":""focus"",""trial"":0,""time"":0},{""event"":""fullscreenenter"",""trial"":1,""time"":2841},{""event"":""fullscreenexit"",""trial"":3,""time"":17724},{""event"":""blur"",""trial"":3,""time"":18958},{""event"":""focus"",""trial"":3,""time"":27221},{""event"":""blur"",""trial"":38,""time"":331692},{""event"":""focus"",""trial"":38,""time"":339796}]",NA,NA,NA,NA,NA,6,#3386FF,#D89F1C,0,0,0,40,0,672,39,0,577,0,1,experiment,NA,NA,2,0.5,0.5,5,4,73,2,NA
fcp-trial,121,668728,0.0-82.0-0.0,voc_e2,11833,"[{""event"":""focus"",""trial"":0,""time"":0},{""event"":""fullscreenenter"",""trial"":1,""time"":2841},{""event"":""fullscreenexit"",""trial"":3,""time"":17724},{""event"":""blur"",""trial"":3,""time"":18958},{""event"":""focus"",""trial"":3,""time"":27221},{""event"":""blur"",""trial"":38,""time"":331692},{""event"":""focus"",""trial"":38,""time"":339796}]",NA,NA,NA,NA,NA,3,#741CD8,#D8271C,0,10,0,40,0,532,37,1,581,0,0,experiment,NA,NA,1,0.3,0.7,3,2,74,2,NA
fcp-trial,122,671308,0.0-83.0-0.0,voc_e2,11833,"[{""event"":""focus"",""trial"":0,""time"":0},{""event"":""fullscreenenter"",""trial"":1,""time"":2841},{""event"":""fullscreenexit"",""trial"":3,""time"":17724},{""event"":""blur"",""trial"":3,""time"":18958},{""event"":""focus"",""trial"":3,""time"":27221},{""event"":""blur"",""trial"":38,""time"":331692},{""event"":""focus"",""trial"":38,""time"":339796}]",NA,NA,NA,NA,NA,3,#D89F1C,#3386FF,10,0,1,40,0,485,39,0,589,0,0,experiment,NA,NA,2,0.5,0.5,4,5,75,2,NA
fcp-trial,123,674018,0.0-84.0-0.0,voc_e2,11833,"[{""event"":""focus"",""trial"":0,""time"":0},{""event"":""fullscreenenter"",""trial"":1,""time"":2841},{""event"":""fullscreenexit"",""trial"":3,""time"":17724},{""event"":""blur"",""trial"":3,""time"":18958},{""event"":""focus"",""trial"":3,""time"":27221},{""event"":""blur"",""trial"":38,""time"":331692},{""event"":""focus"",""trial"":38,""time"":339796}]",NA,NA,NA,NA,NA,5,#3386FF,#D89F1C,10,10,0,40,0,657,37,1,540,10,0,experiment,NA,NA,2,0.5,0.5,5,4,76,2,NA
fcp-trial,124,676889,0.0-85.0-0.0,voc_e2,11833,"[{""event"":""focus"",""trial"":0,""time"":0},{""event"":""fullscreenenter"",""trial"":1,""time"":2841},{""event"":""fullscreenexit"",""trial"":3,""time"":17724},{""event"":""blur"",""trial"":3,""time"":18958},{""event"":""focus"",""trial"":3,""time"":27221},{""event"":""blur"",""trial"":38,""time"":331692},{""event"":""focus"",""trial"":38,""time"":339796}]",NA,NA,NA,NA,NA,4,#FA92F8,#1CD855,0,10,0,40,0,666,37,1,693,0,0,experiment,NA,NA,0,0.1,0.9,1,0,77,2,NA
fcp-trial,125,679589,0.0-86.0-0.0,voc_e2,11833,"[{""event"":""focus"",""trial"":0,""time"":0},{""event"":""fullscreenenter"",""trial"":1,""time"":2841},{""event"":""fullscreenexit"",""trial"":3,""time"":17724},{""event"":""blur"",""trial"":3,""time"":18958},{""event"":""focus"",""trial"":3,""time"":27221},{""event"":""blur"",""trial"":38,""time"":331692},{""event"":""focus"",""trial"":38,""time"":339796}]",NA,NA,NA,NA,NA,1,#741CD8,#D8271C,0,0,0,40,0,579,37,1,608,0,0,experiment,NA,NA,1,0.3,0.7,3,2,78,2,NA
fcp-trial,126,682327,0.0-87.0-0.0,voc_e2,11833,"[{""event"":""focus"",""trial"":0,""time"":0},{""event"":""fullscreenenter"",""trial"":1,""time"":2841},{""event"":""fullscreenexit"",""trial"":3,""time"":17724},{""event"":""blur"",""trial"":3,""time"":18958},{""event"":""focus"",""trial"":3,""time"":27221},{""event"":""blur"",""trial"":38,""time"":331692},{""event"":""focus"",""trial"":38,""time"":339796}]",NA,NA,NA,NA,NA,1,#1CD855,#FA92F8,10,0,1,40,0,695,37,1,511,10,1,experiment,NA,NA,0,0.9,0.1,0,1,79,2,NA
fcp-trial,127,684797,0.0-88.0-0.0,voc_e2,11833,"[{""event"":""focus"",""trial"":0,""time"":0},{""event"":""fullscreenenter"",""trial"":1,""time"":2841},{""event"":""fullscreenexit"",""trial"":3,""time"":17724},{""event"":""blur"",""trial"":3,""time"":18958},{""event"":""focus"",""trial"":3,""time"":27221},{""event"":""blur"",""trial"":38,""time"":331692},{""event"":""focus"",""trial"":38,""time"":339796}]",NA,NA,NA,NA,NA,2,#1CD855,#FA92F8,10,0,1,40,0,373,37,1,577,10,1,experiment,NA,NA,0,0.9,0.1,0,1,80,2,NA
fcp-trial,128,687348,0.0-89.0-0.0,voc_e2,11833,"[{""event"":""focus"",""trial"":0,""time"":0},{""event"":""fullscreenenter"",""trial"":1,""time"":2841},{""event"":""fullscreenexit"",""trial"":3,""time"":17724},{""event"":""blur"",""trial"":3,""time"":18958},{""event"":""focus"",""trial"":3,""time"":27221},{""event"":""blur"",""trial"":38,""time"":331692},{""event"":""focus"",""trial"":38,""time"":339796}]",NA,NA,NA,NA,NA,0,#D89F1C,#3386FF,10,10,1,40,0,441,39,0,588,10,0,experiment,NA,NA,2,0.5,0.5,4,5,81,2,NA
fcp-trial,129,690028,0.0-90.0-0.0,voc_e2,11833,"[{""event"":""focus"",""trial"":0,""time"":0},{""event"":""fullscreenenter"",""trial"":1,""time"":2841},{""event"":""fullscreenexit"",""trial"":3,""time"":17724},{""event"":""blur"",""trial"":3,""time"":18958},{""event"":""focus"",""trial"":3,""time"":27221},{""event"":""blur"",""trial"":38,""time"":331692},{""event"":""focus"",""trial"":38,""time"":339796}]",NA,NA,NA,NA,NA,0,#D8271C,#741CD8,10,0,1,40,0,385,37,1,786,10,1,experiment,NA,NA,1,0.7,0.3,2,3,82,2,NA
fcp-trial,130,692914,0.0-91.0-0.0,voc_e2,11833,"[{""event"":""focus"",""trial"":0,""time"":0},{""event"":""fullscreenenter"",""trial"":1,""time"":2841},{""event"":""fullscreenexit"",""trial"":3,""time"":17724},{""event"":""blur"",""trial"":3,""time"":18958},{""event"":""focus"",""trial"":3,""time"":27221},{""event"":""blur"",""trial"":38,""time"":331692},{""event"":""focus"",""trial"":38,""time"":339796}]",NA,NA,NA,NA,NA,5,#1CD855,#FA92F8,10,0,1,40,0,616,39,0,749,0,0,experiment,NA,NA,0,0.9,0.1,0,1,83,2,NA
fcp-trial,131,695689,0.0-92.0-0.0,voc_e2,11833,"[{""event"":""focus"",""trial"":0,""time"":0},{""event"":""fullscreenenter"",""trial"":1,""time"":2841},{""event"":""fullscreenexit"",""trial"":3,""time"":17724},{""event"":""blur"",""trial"":3,""time"":18958},{""event"":""focus"",""trial"":3,""time"":27221},{""event"":""blur"",""trial"":38,""time"":331692},{""event"":""focus"",""trial"":38,""time"":339796}]",NA,NA,NA,NA,NA,3,#1CD855,#FA92F8,10,0,1,40,0,708,37,1,542,10,1,experiment,NA,NA,0,0.9,0.1,0,1,84,2,NA
fcp-trial,132,698523,0.0-93.0-0.0,voc_e2,11833,"[{""event"":""focus"",""trial"":0,""time"":0},{""event"":""fullscreenenter"",""trial"":1,""time"":2841},{""event"":""fullscreenexit"",""trial"":3,""time"":17724},{""event"":""blur"",""trial"":3,""time"":18958},{""event"":""focus"",""trial"":3,""time"":27221},{""event"":""blur"",""trial"":38,""time"":331692},{""event"":""focus"",""trial"":38,""time"":339796}]",NA,NA,NA,NA,NA,3,#3386FF,#D89F1C,10,0,0,40,0,467,37,1,854,10,0,experiment,NA,NA,2,0.5,0.5,5,4,85,2,NA
fcp-trial,133,701278,0.0-94.0-0.0,voc_e2,11833,"[{""event"":""focus"",""trial"":0,""time"":0},{""event"":""fullscreenenter"",""trial"":1,""time"":2841},{""event"":""fullscreenexit"",""trial"":3,""time"":17724},{""event"":""blur"",""trial"":3,""time"":18958},{""event"":""focus"",""trial"":3,""time"":27221},{""event"":""blur"",""trial"":38,""time"":331692},{""event"":""focus"",""trial"":38,""time"":339796}]",NA,NA,NA,NA,NA,4,#741CD8,#D8271C,0,0,0,40,0,617,37,1,607,0,0,experiment,NA,NA,1,0.3,0.7,3,2,86,2,NA
fcp-trial,134,703948,0.0-95.0-0.0,voc_e2,11833,"[{""event"":""focus"",""trial"":0,""time"":0},{""event"":""fullscreenenter"",""trial"":1,""time"":2841},{""event"":""fullscreenexit"",""trial"":3,""time"":17724},{""event"":""blur"",""trial"":3,""time"":18958},{""event"":""focus"",""trial"":3,""time"":27221},{""event"":""blur"",""trial"":38,""time"":331692},{""event"":""focus"",""trial"":38,""time"":339796}]",NA,NA,NA,NA,NA,3,#741CD8,#D8271C,0,10,0,40,0,518,39,0,648,10,1,experiment,NA,NA,1,0.3,0.7,3,2,87,2,NA
fcp-trial,135,706478,0.0-96.0-0.0,voc_e2,11833,"[{""event"":""focus"",""trial"":0,""time"":0},{""event"":""fullscreenenter"",""trial"":1,""time"":2841},{""event"":""fullscreenexit"",""trial"":3,""time"":17724},{""event"":""blur"",""trial"":3,""time"":18958},{""event"":""focus"",""trial"":3,""time"":27221},{""event"":""blur"",""trial"":38,""time"":331692},{""event"":""focus"",""trial"":38,""time"":339796}]",NA,NA,NA,NA,NA,5,#1CD855,#FA92F8,10,0,1,40,0,400,39,0,597,0,0,experiment,NA,NA,0,0.9,0.1,0,1,88,2,NA
fcp-trial,136,709068,0.0-97.0-0.0,voc_e2,11833,"[{""event"":""focus"",""trial"":0,""time"":0},{""event"":""fullscreenenter"",""trial"":1,""time"":2841},{""event"":""fullscreenexit"",""trial"":3,""time"":17724},{""event"":""blur"",""trial"":3,""time"":18958},{""event"":""focus"",""trial"":3,""time"":27221},{""event"":""blur"",""trial"":38,""time"":331692},{""event"":""focus"",""trial"":38,""time"":339796}]",NA,NA,NA,NA,NA,0,#1CD855,#FA92F8,10,0,1,40,0,429,37,1,622,10,1,experiment,NA,NA,0,0.9,0.1,0,1,89,2,NA
fcp-trial,137,711928,0.0-98.0-0.0,voc_e2,11833,"[{""event"":""focus"",""trial"":0,""time"":0},{""event"":""fullscreenenter"",""trial"":1,""time"":2841},{""event"":""fullscreenexit"",""trial"":3,""time"":17724},{""event"":""blur"",""trial"":3,""time"":18958},{""event"":""focus"",""trial"":3,""time"":27221},{""event"":""blur"",""trial"":38,""time"":331692},{""event"":""focus"",""trial"":38,""time"":339796}]",NA,NA,NA,NA,NA,1,#3386FF,#D89F1C,0,0,0,40,0,824,39,0,510,0,1,experiment,NA,NA,2,0.5,0.5,5,4,90,2,NA
fcp-trial,138,714677,0.0-99.0-0.0,voc_e2,11833,"[{""event"":""focus"",""trial"":0,""time"":0},{""event"":""fullscreenenter"",""trial"":1,""time"":2841},{""event"":""fullscreenexit"",""trial"":3,""time"":17724},{""event"":""blur"",""trial"":3,""time"":18958},{""event"":""focus"",""trial"":3,""time"":27221},{""event"":""blur"",""trial"":38,""time"":331692},{""event"":""focus"",""trial"":38,""time"":339796}]",NA,NA,NA,NA,NA,2,#FA92F8,#1CD855,10,10,0,40,0,526,39,0,688,10,1,experiment,NA,NA,0,0.1,0.9,1,0,91,3,NA
fcp-trial,139,717248,0.0-100.0-0.0,voc_e2,11833,"[{""event"":""focus"",""trial"":0,""time"":0},{""event"":""fullscreenenter"",""trial"":1,""time"":2841},{""event"":""fullscreenexit"",""trial"":3,""time"":17724},{""event"":""blur"",""trial"":3,""time"":18958},{""event"":""focus"",""trial"":3,""time"":27221},{""event"":""blur"",""trial"":38,""time"":331692},{""event"":""focus"",""trial"":38,""time"":339796}]",NA,NA,NA,NA,NA,0,#741CD8,#D8271C,10,0,0,40,0,430,39,0,606,0,1,experiment,NA,NA,1,0.3,0.7,3,2,92,3,NA
fcp-trial,140,719689,0.0-101.0-0.0,voc_e2,11833,"[{""event"":""focus"",""trial"":0,""time"":0},{""event"":""fullscreenenter"",""trial"":1,""time"":2841},{""event"":""fullscreenexit"",""trial"":3,""time"":17724},{""event"":""blur"",""trial"":3,""time"":18958},{""event"":""focus"",""trial"":3,""time"":27221},{""event"":""blur"",""trial"":38,""time"":331692},{""event"":""focus"",""trial"":38,""time"":339796}]",NA,NA,NA,NA,NA,5,#741CD8,#D8271C,0,10,0,40,0,347,39,0,576,10,1,experiment,NA,NA,1,0.3,0.7,3,2,93,3,NA
fcp-trial,141,722247,0.0-102.0-0.0,voc_e2,11833,"[{""event"":""focus"",""trial"":0,""time"":0},{""event"":""fullscreenenter"",""trial"":1,""time"":2841},{""event"":""fullscreenexit"",""trial"":3,""time"":17724},{""event"":""blur"",""trial"":3,""time"":18958},{""event"":""focus"",""trial"":3,""time"":27221},{""event"":""blur"",""trial"":38,""time"":331692},{""event"":""focus"",""trial"":38,""time"":339796}]",NA,NA,NA,NA,NA,6,#1CD855,#FA92F8,10,0,1,40,0,475,39,0,555,0,0,experiment,NA,NA,0,0.9,0.1,0,1,94,3,NA
fcp-trial,142,724958,0.0-103.0-0.0,voc_e2,11833,"[{""event"":""focus"",""trial"":0,""time"":0},{""event"":""fullscreenenter"",""trial"":1,""time"":2841},{""event"":""fullscreenexit"",""trial"":3,""time"":17724},{""event"":""blur"",""trial"":3,""time"":18958},{""event"":""focus"",""trial"":3,""time"":27221},{""event"":""blur"",""trial"":38,""time"":331692},{""event"":""focus"",""trial"":38,""time"":339796}]",NA,NA,NA,NA,NA,0,#3386FF,#D89F1C,0,0,0,40,0,543,37,1,642,0,0,experiment,NA,NA,2,0.5,0.5,5,4,95,3,NA
fcp-trial,143,728089,0.0-104.0-0.0,voc_e2,11833,"[{""event"":""focus"",""trial"":0,""time"":0},{""event"":""fullscreenenter"",""trial"":1,""time"":2841},{""event"":""fullscreenexit"",""trial"":3,""time"":17724},{""event"":""blur"",""trial"":3,""time"":18958},{""event"":""focus"",""trial"":3,""time"":27221},{""event"":""blur"",""trial"":38,""time"":331692},{""event"":""focus"",""trial"":38,""time"":339796}]",NA,NA,NA,NA,NA,1,#1CD855,#FA92F8,10,0,1,40,0,581,37,1,1017,10,1,experiment,NA,NA,0,0.9,0.1,0,1,96,3,NA
fcp-trial,144,730877,0.0-105.0-0.0,voc_e2,11833,"[{""event"":""focus"",""trial"":0,""time"":0},{""event"":""fullscreenenter"",""trial"":1,""time"":2841},{""event"":""fullscreenexit"",""trial"":3,""time"":17724},{""event"":""blur"",""trial"":3,""time"":18958},{""event"":""focus"",""trial"":3,""time"":27221},{""event"":""blur"",""trial"":38,""time"":331692},{""event"":""focus"",""trial"":38,""time"":339796}]",NA,NA,NA,NA,NA,2,#741CD8,#D8271C,10,10,0,40,0,635,39,0,637,10,1,experiment,NA,NA,1,0.3,0.7,3,2,97,3,NA
fcp-trial,145,733338,0.0-106.0-0.0,voc_e2,11833,"[{""event"":""focus"",""trial"":0,""time"":0},{""event"":""fullscreenenter"",""trial"":1,""time"":2841},{""event"":""fullscreenexit"",""trial"":3,""time"":17724},{""event"":""blur"",""trial"":3,""time"":18958},{""event"":""focus"",""trial"":3,""time"":27221},{""event"":""blur"",""trial"":38,""time"":331692},{""event"":""focus"",""trial"":38,""time"":339796}]",NA,NA,NA,NA,NA,5,#D89F1C,#3386FF,10,0,1,40,0,446,37,1,497,10,1,experiment,NA,NA,2,0.5,0.5,4,5,98,3,NA
fcp-trial,146,736177,0.0-107.0-0.0,voc_e2,11833,"[{""event"":""focus"",""trial"":0,""time"":0},{""event"":""fullscreenenter"",""trial"":1,""time"":2841},{""event"":""fullscreenexit"",""trial"":3,""time"":17724},{""event"":""blur"",""trial"":3,""time"":18958},{""event"":""focus"",""trial"":3,""time"":27221},{""event"":""blur"",""trial"":38,""time"":331692},{""event"":""focus"",""trial"":38,""time"":339796}]",NA,NA,NA,NA,NA,6,#3386FF,#D89F1C,10,10,0,40,0,609,37,1,704,10,0,experiment,NA,NA,2,0.5,0.5,5,4,99,3,NA
fcp-trial,147,739298,0.0-108.0-0.0,voc_e2,11833,"[{""event"":""focus"",""trial"":0,""time"":0},{""event"":""fullscreenenter"",""trial"":1,""time"":2841},{""event"":""fullscreenexit"",""trial"":3,""time"":17724},{""event"":""blur"",""trial"":3,""time"":18958},{""event"":""focus"",""trial"":3,""time"":27221},{""event"":""blur"",""trial"":38,""time"":331692},{""event"":""focus"",""trial"":38,""time"":339796}]",NA,NA,NA,NA,NA,4,#FA92F8,#1CD855,0,10,0,40,0,1098,39,0,509,10,1,experiment,NA,NA,0,0.1,0.9,1,0,100,3,NA
fcp-trial,148,741817,0.0-109.0-0.0,voc_e2,11833,"[{""event"":""focus"",""trial"":0,""time"":0},{""event"":""fullscreenenter"",""trial"":1,""time"":2841},{""event"":""fullscreenexit"",""trial"":3,""time"":17724},{""event"":""blur"",""trial"":3,""time"":18958},{""event"":""focus"",""trial"":3,""time"":27221},{""event"":""blur"",""trial"":38,""time"":331692},{""event"":""focus"",""trial"":38,""time"":339796}]",NA,NA,NA,NA,NA,2,#D89F1C,#3386FF,10,0,1,40,0,467,37,1,529,10,1,experiment,NA,NA,2,0.5,0.5,4,5,101,3,NA
fcp-trial,149,744091,0.0-110.0-0.0,voc_e2,11833,"[{""event"":""focus"",""trial"":0,""time"":0},{""event"":""fullscreenenter"",""trial"":1,""time"":2841},{""event"":""fullscreenexit"",""trial"":3,""time"":17724},{""event"":""blur"",""trial"":3,""time"":18958},{""event"":""focus"",""trial"":3,""time"":27221},{""event"":""blur"",""trial"":38,""time"":331692},{""event"":""focus"",""trial"":38,""time"":339796}]",NA,NA,NA,NA,NA,6,#D8271C,#741CD8,10,10,1,40,0,98,39,0,538,10,0,experiment,NA,NA,1,0.7,0.3,2,3,102,3,NA
fcp-trial,150,746608,0.0-111.0-0.0,voc_e2,11833,"[{""event"":""focus"",""trial"":0,""time"":0},{""event"":""fullscreenenter"",""trial"":1,""time"":2841},{""event"":""fullscreenexit"",""trial"":3,""time"":17724},{""event"":""blur"",""trial"":3,""time"":18958},{""event"":""focus"",""trial"":3,""time"":27221},{""event"":""blur"",""trial"":38,""time"":331692},{""event"":""focus"",""trial"":38,""time"":339796}]",NA,NA,NA,NA,NA,1,#741CD8,#D8271C,0,0,0,40,0,465,39,0,535,0,1,experiment,NA,NA,1,0.3,0.7,3,2,103,3,NA
fcp-trial,151,748797,0.0-112.0-0.0,voc_e2,11833,"[{""event"":""focus"",""trial"":0,""time"":0},{""event"":""fullscreenenter"",""trial"":1,""time"":2841},{""event"":""fullscreenexit"",""trial"":3,""time"":17724},{""event"":""blur"",""trial"":3,""time"":18958},{""event"":""focus"",""trial"":3,""time"":27221},{""event"":""blur"",""trial"":38,""time"":331692},{""event"":""focus"",""trial"":38,""time"":339796}]",NA,NA,NA,NA,NA,3,#FA92F8,#1CD855,0,10,0,40,0,82,39,0,578,10,1,experiment,NA,NA,0,0.1,0.9,1,0,104,3,NA
fcp-trial,152,750939,0.0-113.0-0.0,voc_e2,11833,"[{""event"":""focus"",""trial"":0,""time"":0},{""event"":""fullscreenenter"",""trial"":1,""time"":2841},{""event"":""fullscreenexit"",""trial"":3,""time"":17724},{""event"":""blur"",""trial"":3,""time"":18958},{""event"":""focus"",""trial"":3,""time"":27221},{""event"":""blur"",""trial"":38,""time"":331692},{""event"":""focus"",""trial"":38,""time"":339796}]",NA,NA,NA,NA,NA,4,#3386FF,#D89F1C,0,10,0,40,0,39,39,0,576,10,1,experiment,NA,NA,2,0.5,0.5,5,4,105,3,NA
audio-instructions,153,756606,0.0-114.0,voc_e2,11833,"[{""event"":""focus"",""trial"":0,""time"":0},{""event"":""fullscreenenter"",""trial"":1,""time"":2841},{""event"":""fullscreenexit"",""trial"":3,""time"":17724},{""event"":""blur"",""trial"":3,""time"":18958},{""event"":""focus"",""trial"":3,""time"":27221},{""event"":""blur"",""trial"":38,""time"":331692},{""event"":""focus"",""trial"":38,""time"":339796}]",NA,1216,static/audio/pause.wav,NA,0,NA,NA,NA,NA,NA,NA,NA,NA,NA,NA,NA,NA,NA,NA,NA,NA,NA,NA,NA,NA,NA,NA,NA,NA,NA
fcp-trial,154,760259,0.0-115.0-0.0,voc_e2,11833,"[{""event"":""focus"",""trial"":0,""time"":0},{""event"":""fullscreenenter"",""trial"":1,""time"":2841},{""event"":""fullscreenexit"",""trial"":3,""time"":17724},{""event"":""blur"",""trial"":3,""time"":18958},{""event"":""focus"",""trial"":3,""time"":27221},{""event"":""blur"",""trial"":38,""time"":331692},{""event"":""focus"",""trial"":38,""time"":339796}]",NA,NA,NA,NA,NA,4,#3386FF,#D89F1C,10,0,0,40,0,1647,37,1,471,10,0,experiment,NA,NA,2,0.5,0.5,5,4,106,3,NA
fcp-trial,155,762818,0.0-116.0-0.0,voc_e2,11833,"[{""event"":""focus"",""trial"":0,""time"":0},{""event"":""fullscreenenter"",""trial"":1,""time"":2841},{""event"":""fullscreenexit"",""trial"":3,""time"":17724},{""event"":""blur"",""trial"":3,""time"":18958},{""event"":""focus"",""trial"":3,""time"":27221},{""event"":""blur"",""trial"":38,""time"":331692},{""event"":""focus"",""trial"":38,""time"":339796}]",NA,NA,NA,NA,NA,3,#741CD8,#D8271C,0,0,0,40,0,521,39,0,512,0,1,experiment,NA,NA,1,0.3,0.7,3,2,107,3,NA
fcp-trial,156,765610,0.0-117.0-0.0,voc_e2,11833,"[{""event"":""focus"",""trial"":0,""time"":0},{""event"":""fullscreenenter"",""trial"":1,""time"":2841},{""event"":""fullscreenexit"",""trial"":3,""time"":17724},{""event"":""blur"",""trial"":3,""time"":18958},{""event"":""focus"",""trial"":3,""time"":27221},{""event"":""blur"",""trial"":38,""time"":331692},{""event"":""focus"",""trial"":38,""time"":339796}]",NA,NA,NA,NA,NA,0,#D89F1C,#3386FF,10,0,1,40,0,442,39,0,815,0,0,experiment,NA,NA,2,0.5,0.5,4,5,108,3,NA
fcp-trial,157,768168,0.0-118.0-0.0,voc_e2,11833,"[{""event"":""focus"",""trial"":0,""time"":0},{""event"":""fullscreenenter"",""trial"":1,""time"":2841},{""event"":""fullscreenexit"",""trial"":3,""time"":17724},{""event"":""blur"",""trial"":3,""time"":18958},{""event"":""focus"",""trial"":3,""time"":27221},{""event"":""blur"",""trial"":38,""time"":331692},{""event"":""focus"",""trial"":38,""time"":339796}]",NA,NA,NA,NA,NA,2,#3386FF,#D89F1C,0,0,0,40,0,506,37,1,520,0,0,experiment,NA,NA,2,0.5,0.5,5,4,109,3,NA
fcp-trial,158,770828,0.0-119.0-0.0,voc_e2,11833,"[{""event"":""focus"",""trial"":0,""time"":0},{""event"":""fullscreenenter"",""trial"":1,""time"":2841},{""event"":""fullscreenexit"",""trial"":3,""time"":17724},{""event"":""blur"",""trial"":3,""time"":18958},{""event"":""focus"",""trial"":3,""time"":27221},{""event"":""blur"",""trial"":38,""time"":331692},{""event"":""focus"",""trial"":38,""time"":339796}]",NA,NA,NA,NA,NA,6,#1CD855,#FA92F8,10,0,1,40,0,493,39,0,621,0,0,experiment,NA,NA,0,0.9,0.1,0,1,110,3,NA
fcp-trial,159,773368,0.0-120.0-0.0,voc_e2,11833,"[{""event"":""focus"",""trial"":0,""time"":0},{""event"":""fullscreenenter"",""trial"":1,""time"":2841},{""event"":""fullscreenexit"",""trial"":3,""time"":17724},{""event"":""blur"",""trial"":3,""time"":18958},{""event"":""focus"",""trial"":3,""time"":27221},{""event"":""blur"",""trial"":38,""time"":331692},{""event"":""focus"",""trial"":38,""time"":339796}]",NA,NA,NA,NA,NA,0,#741CD8,#D8271C,0,10,0,40,0,377,39,0,636,10,1,experiment,NA,NA,1,0.3,0.7,3,2,111,3,NA
fcp-trial,160,775808,0.0-121.0-0.0,voc_e2,11833,"[{""event"":""focus"",""trial"":0,""time"":0},{""event"":""fullscreenenter"",""trial"":1,""time"":2841},{""event"":""fullscreenexit"",""trial"":3,""time"":17724},{""event"":""blur"",""trial"":3,""time"":18958},{""event"":""focus"",""trial"":3,""time"":27221},{""event"":""blur"",""trial"":38,""time"":331692},{""event"":""focus"",""trial"":38,""time"":339796}]",NA,NA,NA,NA,NA,6,#741CD8,#D8271C,0,0,0,40,0,388,39,0,539,0,1,experiment,NA,NA,1,0.3,0.7,3,2,112,3,NA
fcp-trial,161,778158,0.0-122.0-0.0,voc_e2,11833,"[{""event"":""focus"",""trial"":0,""time"":0},{""event"":""fullscreenenter"",""trial"":1,""time"":2841},{""event"":""fullscreenexit"",""trial"":3,""time"":17724},{""event"":""blur"",""trial"":3,""time"":18958},{""event"":""focus"",""trial"":3,""time"":27221},{""event"":""blur"",""trial"":38,""time"":331692},{""event"":""focus"",""trial"":38,""time"":339796}]",NA,NA,NA,NA,NA,6,#3386FF,#D89F1C,0,0,0,40,0,381,39,0,443,0,1,experiment,NA,NA,2,0.5,0.5,5,4,113,3,NA
fcp-trial,162,780708,0.0-123.0-0.0,voc_e2,11833,"[{""event"":""focus"",""trial"":0,""time"":0},{""event"":""fullscreenenter"",""trial"":1,""time"":2841},{""event"":""fullscreenexit"",""trial"":3,""time"":17724},{""event"":""blur"",""trial"":3,""time"":18958},{""event"":""focus"",""trial"":3,""time"":27221},{""event"":""blur"",""trial"":38,""time"":331692},{""event"":""focus"",""trial"":38,""time"":339796}]",NA,NA,NA,NA,NA,0,#FA92F8,#1CD855,0,0,0,40,0,524,39,0,518,0,1,experiment,NA,NA,0,0.1,0.9,1,0,114,3,NA
fcp-trial,163,783148,0.0-124.0-0.0,voc_e2,11833,"[{""event"":""focus"",""trial"":0,""time"":0},{""event"":""fullscreenenter"",""trial"":1,""time"":2841},{""event"":""fullscreenexit"",""trial"":3,""time"":17724},{""event"":""blur"",""trial"":3,""time"":18958},{""event"":""focus"",""trial"":3,""time"":27221},{""event"":""blur"",""trial"":38,""time"":331692},{""event"":""focus"",""trial"":38,""time"":339796}]",NA,NA,NA,NA,NA,5,#FA92F8,#1CD855,0,0,0,40,0,400,39,0,512,0,1,experiment,NA,NA,0,0.1,0.9,1,0,115,3,NA
fcp-trial,164,785617,0.0-125.0-0.0,voc_e2,11833,"[{""event"":""focus"",""trial"":0,""time"":0},{""event"":""fullscreenenter"",""trial"":1,""time"":2841},{""event"":""fullscreenexit"",""trial"":3,""time"":17724},{""event"":""blur"",""trial"":3,""time"":18958},{""event"":""focus"",""trial"":3,""time"":27221},{""event"":""blur"",""trial"":38,""time"":331692},{""event"":""focus"",""trial"":38,""time"":339796}]",NA,NA,NA,NA,NA,4,#741CD8,#D8271C,0,10,0,40,0,409,37,1,539,0,0,experiment,NA,NA,1,0.3,0.7,3,2,116,3,NA
fcp-trial,165,787947,0.0-126.0-0.0,voc_e2,11833,"[{""event"":""focus"",""trial"":0,""time"":0},{""event"":""fullscreenenter"",""trial"":1,""time"":2841},{""event"":""fullscreenexit"",""trial"":3,""time"":17724},{""event"":""blur"",""trial"":3,""time"":18958},{""event"":""focus"",""trial"":3,""time"":27221},{""event"":""blur"",""trial"":38,""time"":331692},{""event"":""focus"",""trial"":38,""time"":339796}]",NA,NA,NA,NA,NA,1,#741CD8,#D8271C,0,10,0,40,0,315,39,0,490,10,1,experiment,NA,NA,1,0.3,0.7,3,2,117,3,NA
fcp-trial,166,790307,0.0-127.0-0.0,voc_e2,11833,"[{""event"":""focus"",""trial"":0,""time"":0},{""event"":""fullscreenenter"",""trial"":1,""time"":2841},{""event"":""fullscreenexit"",""trial"":3,""time"":17724},{""event"":""blur"",""trial"":3,""time"":18958},{""event"":""focus"",""trial"":3,""time"":27221},{""event"":""blur"",""trial"":38,""time"":331692},{""event"":""focus"",""trial"":38,""time"":339796}]",NA,NA,NA,NA,NA,5,#3386FF,#D89F1C,10,0,0,40,0,361,37,1,479,10,0,experiment,NA,NA,2,0.5,0.5,5,4,118,3,NA
fcp-trial,167,792677,0.0-128.0-0.0,voc_e2,11833,"[{""event"":""focus"",""trial"":0,""time"":0},{""event"":""fullscreenenter"",""trial"":1,""time"":2841},{""event"":""fullscreenexit"",""trial"":3,""time"":17724},{""event"":""blur"",""trial"":3,""time"":18958},{""event"":""focus"",""trial"":3,""time"":27221},{""event"":""blur"",""trial"":38,""time"":331692},{""event"":""focus"",""trial"":38,""time"":339796}]",NA,NA,NA,NA,NA,1,#D89F1C,#3386FF,0,0,1,40,0,320,39,0,518,0,0,experiment,NA,NA,2,0.5,0.5,4,5,119,3,NA
fcp-trial,168,795408,0.0-129.0-0.0,voc_e2,11833,"[{""event"":""focus"",""trial"":0,""time"":0},{""event"":""fullscreenenter"",""trial"":1,""time"":2841},{""event"":""fullscreenexit"",""trial"":3,""time"":17724},{""event"":""blur"",""trial"":3,""time"":18958},{""event"":""focus"",""trial"":3,""time"":27221},{""event"":""blur"",""trial"":38,""time"":331692},{""event"":""focus"",""trial"":38,""time"":339796}]",NA,NA,NA,NA,NA,1,#1CD855,#FA92F8,10,0,1,40,0,561,39,0,645,0,0,experiment,NA,NA,0,0.9,0.1,0,1,120,3,NA
fcp-trial,169,797897,0.0-130.0-0.0,voc_e2,11833,"[{""event"":""focus"",""trial"":0,""time"":0},{""event"":""fullscreenenter"",""trial"":1,""time"":2841},{""event"":""fullscreenexit"",""trial"":3,""time"":17724},{""event"":""blur"",""trial"":3,""time"":18958},{""event"":""focus"",""trial"":3,""time"":27221},{""event"":""blur"",""trial"":38,""time"":331692},{""event"":""focus"",""trial"":38,""time"":339796}]",NA,NA,NA,NA,NA,3,#FA92F8,#1CD855,0,10,0,40,0,445,37,1,517,0,0,experiment,NA,NA,0,0.1,0.9,1,0,121,3,NA
fcp-trial,170,800248,0.0-131.0-0.0,voc_e2,11833,"[{""event"":""focus"",""trial"":0,""time"":0},{""event"":""fullscreenenter"",""trial"":1,""time"":2841},{""event"":""fullscreenexit"",""trial"":3,""time"":17724},{""event"":""blur"",""trial"":3,""time"":18958},{""event"":""focus"",""trial"":3,""time"":27221},{""event"":""blur"",""trial"":38,""time"":331692},{""event"":""focus"",""trial"":38,""time"":339796}]",NA,NA,NA,NA,NA,2,#741CD8,#D8271C,0,10,0,40,0,355,39,0,476,10,1,experiment,NA,NA,1,0.3,0.7,3,2,122,3,NA
fcp-trial,171,803339,0.0-132.0-0.0,voc_e2,11833,"[{""event"":""focus"",""trial"":0,""time"":0},{""event"":""fullscreenenter"",""trial"":1,""time"":2841},{""event"":""fullscreenexit"",""trial"":3,""time"":17724},{""event"":""blur"",""trial"":3,""time"":18958},{""event"":""focus"",""trial"":3,""time"":27221},{""event"":""blur"",""trial"":38,""time"":331692},{""event"":""focus"",""trial"":38,""time"":339796}]",NA,NA,NA,NA,NA,3,#D89F1C,#3386FF,10,0,1,40,0,991,39,0,545,0,0,experiment,NA,NA,2,0.5,0.5,4,5,123,3,NA
fcp-trial,172,805868,0.0-133.0-0.0,voc_e2,11833,"[{""event"":""focus"",""trial"":0,""time"":0},{""event"":""fullscreenenter"",""trial"":1,""time"":2841},{""event"":""fullscreenexit"",""trial"":3,""time"":17724},{""event"":""blur"",""trial"":3,""time"":18958},{""event"":""focus"",""trial"":3,""time"":27221},{""event"":""blur"",""trial"":38,""time"":331692},{""event"":""focus"",""trial"":38,""time"":339796}]",NA,NA,NA,NA,NA,4,#FA92F8,#1CD855,0,10,0,40,0,489,39,0,506,10,1,experiment,NA,NA,0,0.1,0.9,1,0,124,3,NA
fcp-trial,173,808368,0.0-134.0-0.0,voc_e2,11833,"[{""event"":""focus"",""trial"":0,""time"":0},{""event"":""fullscreenenter"",""trial"":1,""time"":2841},{""event"":""fullscreenexit"",""trial"":3,""time"":17724},{""event"":""blur"",""trial"":3,""time"":18958},{""event"":""focus"",""trial"":3,""time"":27221},{""event"":""blur"",""trial"":38,""time"":331692},{""event"":""focus"",""trial"":38,""time"":339796}]",NA,NA,NA,NA,NA,5,#741CD8,#D8271C,0,0,0,40,0,471,39,0,502,0,1,experiment,NA,NA,1,0.3,0.7,3,2,125,3,NA
fcp-trial,174,810839,0.0-135.0-0.0,voc_e2,11833,"[{""event"":""focus"",""trial"":0,""time"":0},{""event"":""fullscreenenter"",""trial"":1,""time"":2841},{""event"":""fullscreenexit"",""trial"":3,""time"":17724},{""event"":""blur"",""trial"":3,""time"":18958},{""event"":""focus"",""trial"":3,""time"":27221},{""event"":""blur"",""trial"":38,""time"":331692},{""event"":""focus"",""trial"":38,""time"":339796}]",NA,NA,NA,NA,NA,2,#1CD855,#FA92F8,10,0,1,40,0,391,37,1,547,10,1,experiment,NA,NA,0,0.9,0.1,0,1,126,3,NA
fcp-trial,175,813189,0.0-136.0-0.0,voc_e2,11833,"[{""event"":""focus"",""trial"":0,""time"":0},{""event"":""fullscreenenter"",""trial"":1,""time"":2841},{""event"":""fullscreenexit"",""trial"":3,""time"":17724},{""event"":""blur"",""trial"":3,""time"":18958},{""event"":""focus"",""trial"":3,""time"":27221},{""event"":""blur"",""trial"":38,""time"":331692},{""event"":""focus"",""trial"":38,""time"":339796}]",NA,NA,NA,NA,NA,6,#3386FF,#D89F1C,0,0,0,40,0,371,39,0,450,0,1,experiment,NA,NA,2,0.5,0.5,5,4,127,3,NA
fcp-trial,176,815518,0.0-137.0-0.0,voc_e2,11833,"[{""event"":""focus"",""trial"":0,""time"":0},{""event"":""fullscreenenter"",""trial"":1,""time"":2841},{""event"":""fullscreenexit"",""trial"":3,""time"":17724},{""event"":""blur"",""trial"":3,""time"":18958},{""event"":""focus"",""trial"":3,""time"":27221},{""event"":""blur"",""trial"":38,""time"":331692},{""event"":""focus"",""trial"":38,""time"":339796}]",NA,NA,NA,NA,NA,1,#FA92F8,#1CD855,0,10,0,40,0,266,37,1,538,0,0,experiment,NA,NA,0,0.1,0.9,1,0,128,3,NA
fcp-trial,177,817908,0.0-138.0-0.0,voc_e2,11833,"[{""event"":""focus"",""trial"":0,""time"":0},{""event"":""fullscreenenter"",""trial"":1,""time"":2841},{""event"":""fullscreenexit"",""trial"":3,""time"":17724},{""event"":""blur"",""trial"":3,""time"":18958},{""event"":""focus"",""trial"":3,""time"":27221},{""event"":""blur"",""trial"":38,""time"":331692},{""event"":""focus"",""trial"":38,""time"":339796}]",NA,NA,NA,NA,NA,3,#FA92F8,#1CD855,0,10,0,40,0,351,39,0,501,10,1,experiment,NA,NA,0,0.1,0.9,1,0,129,3,NA
fcp-trial,178,820290,0.0-139.0-0.0,voc_e2,11833,"[{""event"":""focus"",""trial"":0,""time"":0},{""event"":""fullscreenenter"",""trial"":1,""time"":2841},{""event"":""fullscreenexit"",""trial"":3,""time"":17724},{""event"":""blur"",""trial"":3,""time"":18958},{""event"":""focus"",""trial"":3,""time"":27221},{""event"":""blur"",""trial"":38,""time"":331692},{""event"":""focus"",""trial"":38,""time"":339796}]",NA,NA,NA,NA,NA,6,#741CD8,#D8271C,10,10,0,40,0,280,37,1,575,10,0,experiment,NA,NA,1,0.3,0.7,3,2,130,3,NA
fcp-trial,179,822673,0.0-140.0-0.0,voc_e2,11833,"[{""event"":""focus"",""trial"":0,""time"":0},{""event"":""fullscreenenter"",""trial"":1,""time"":2841},{""event"":""fullscreenexit"",""trial"":3,""time"":17724},{""event"":""blur"",""trial"":3,""time"":18958},{""event"":""focus"",""trial"":3,""time"":27221},{""event"":""blur"",""trial"":38,""time"":331692},{""event"":""focus"",""trial"":38,""time"":339796}]",NA,NA,NA,NA,NA,2,#741CD8,#D8271C,0,10,0,40,0,209,37,1,657,0,0,experiment,NA,NA,1,0.3,0.7,3,2,131,3,NA
fcp-trial,180,825188,0.0-141.0-0.0,voc_e2,11833,"[{""event"":""focus"",""trial"":0,""time"":0},{""event"":""fullscreenenter"",""trial"":1,""time"":2841},{""event"":""fullscreenexit"",""trial"":3,""time"":17724},{""event"":""blur"",""trial"":3,""time"":18958},{""event"":""focus"",""trial"":3,""time"":27221},{""event"":""blur"",""trial"":38,""time"":331692},{""event"":""focus"",""trial"":38,""time"":339796}]",NA,NA,NA,NA,NA,1,#D89F1C,#3386FF,0,0,1,40,0,403,37,1,593,0,1,experiment,NA,NA,2,0.5,0.5,4,5,132,3,NA
fcp-trial,181,827539,0.0-142.0-0.0,voc_e2,11833,"[{""event"":""focus"",""trial"":0,""time"":0},{""event"":""fullscreenenter"",""trial"":1,""time"":2841},{""event"":""fullscreenexit"",""trial"":3,""time"":17724},{""event"":""blur"",""trial"":3,""time"":18958},{""event"":""focus"",""trial"":3,""time"":27221},{""event"":""blur"",""trial"":38,""time"":331692},{""event"":""focus"",""trial"":38,""time"":339796}]",NA,NA,NA,NA,NA,3,#D8271C,#741CD8,10,0,1,40,0,326,39,0,503,0,0,experiment,NA,NA,1,0.7,0.3,2,3,133,3,NA
fcp-trial,182,829778,0.0-143.0-0.0,voc_e2,11833,"[{""event"":""focus"",""trial"":0,""time"":0},{""event"":""fullscreenenter"",""trial"":1,""time"":2841},{""event"":""fullscreenexit"",""trial"":3,""time"":17724},{""event"":""blur"",""trial"":3,""time"":18958},{""event"":""focus"",""trial"":3,""time"":27221},{""event"":""blur"",""trial"":38,""time"":331692},{""event"":""focus"",""trial"":38,""time"":339796}]",NA,NA,NA,NA,NA,5,#FA92F8,#1CD855,0,10,0,40,0,170,39,0,541,10,1,experiment,NA,NA,0,0.1,0.9,1,0,134,3,NA
fcp-trial,183,832090,0.0-144.0-0.0,voc_e2,11833,"[{""event"":""focus"",""trial"":0,""time"":0},{""event"":""fullscreenenter"",""trial"":1,""time"":2841},{""event"":""fullscreenexit"",""trial"":3,""time"":17724},{""event"":""blur"",""trial"":3,""time"":18958},{""event"":""focus"",""trial"":3,""time"":27221},{""event"":""blur"",""trial"":38,""time"":331692},{""event"":""focus"",""trial"":38,""time"":339796}]",NA,NA,NA,NA,NA,4,#741CD8,#D8271C,0,10,0,40,0,211,39,0,577,10,1,experiment,NA,NA,1,0.3,0.7,3,2,135,3,NA
fcp-trial,184,834467,0.0-145.0-0.0,voc_e2,11833,"[{""event"":""focus"",""trial"":0,""time"":0},{""event"":""fullscreenenter"",""trial"":1,""time"":2841},{""event"":""fullscreenexit"",""trial"":3,""time"":17724},{""event"":""blur"",""trial"":3,""time"":18958},{""event"":""focus"",""trial"":3,""time"":27221},{""event"":""blur"",""trial"":38,""time"":331692},{""event"":""focus"",""trial"":38,""time"":339796}]",NA,NA,NA,NA,NA,2,#D89F1C,#3386FF,0,10,1,40,0,304,39,0,560,10,0,experiment,NA,NA,2,0.5,0.5,4,5,136,4,NA
fcp-trial,185,837128,0.0-146.0-0.0,voc_e2,11833,"[{""event"":""focus"",""trial"":0,""time"":0},{""event"":""fullscreenenter"",""trial"":1,""time"":2841},{""event"":""fullscreenexit"",""trial"":3,""time"":17724},{""event"":""blur"",""trial"":3,""time"":18958},{""event"":""focus"",""trial"":3,""time"":27221},{""event"":""blur"",""trial"":38,""time"":331692},{""event"":""focus"",""trial"":38,""time"":339796}]",NA,NA,NA,NA,NA,1,#D8271C,#741CD8,10,0,1,40,0,311,37,1,811,10,1,experiment,NA,NA,1,0.7,0.3,2,3,137,4,NA
fcp-trial,186,839548,0.0-147.0-0.0,voc_e2,11833,"[{""event"":""focus"",""trial"":0,""time"":0},{""event"":""fullscreenenter"",""trial"":1,""time"":2841},{""event"":""fullscreenexit"",""trial"":3,""time"":17724},{""event"":""blur"",""trial"":3,""time"":18958},{""event"":""focus"",""trial"":3,""time"":27221},{""event"":""blur"",""trial"":38,""time"":331692},{""event"":""focus"",""trial"":38,""time"":339796}]",NA,NA,NA,NA,NA,2,#FA92F8,#1CD855,0,10,0,40,0,371,39,0,527,10,1,experiment,NA,NA,0,0.1,0.9,1,0,138,4,NA
fcp-trial,187,842018,0.0-148.0-0.0,voc_e2,11833,"[{""event"":""focus"",""trial"":0,""time"":0},{""event"":""fullscreenenter"",""trial"":1,""time"":2841},{""event"":""fullscreenexit"",""trial"":3,""time"":17724},{""event"":""blur"",""trial"":3,""time"":18958},{""event"":""focus"",""trial"":3,""time"":27221},{""event"":""blur"",""trial"":38,""time"":331692},{""event"":""focus"",""trial"":38,""time"":339796}]",NA,NA,NA,NA,NA,5,#741CD8,#D8271C,0,10,0,40,0,360,37,1,593,0,0,experiment,NA,NA,1,0.3,0.7,3,2,139,4,NA
fcp-trial,188,844428,0.0-149.0-0.0,voc_e2,11833,"[{""event"":""focus"",""trial"":0,""time"":0},{""event"":""fullscreenenter"",""trial"":1,""time"":2841},{""event"":""fullscreenexit"",""trial"":3,""time"":17724},{""event"":""blur"",""trial"":3,""time"":18958},{""event"":""focus"",""trial"":3,""time"":27221},{""event"":""blur"",""trial"":38,""time"":331692},{""event"":""focus"",""trial"":38,""time"":339796}]",NA,NA,NA,NA,NA,5,#3386FF,#D89F1C,0,0,0,40,0,372,39,0,500,0,1,experiment,NA,NA,2,0.5,0.5,5,4,140,4,NA
fcp-trial,189,847078,0.0-150.0-0.0,voc_e2,11833,"[{""event"":""focus"",""trial"":0,""time"":0},{""event"":""fullscreenenter"",""trial"":1,""time"":2841},{""event"":""fullscreenexit"",""trial"":3,""time"":17724},{""event"":""blur"",""trial"":3,""time"":18958},{""event"":""focus"",""trial"":3,""time"":27221},{""event"":""blur"",""trial"":38,""time"":331692},{""event"":""focus"",""trial"":38,""time"":339796}]",NA,NA,NA,NA,NA,0,#FA92F8,#1CD855,0,10,0,40,0,496,39,0,627,10,1,experiment,NA,NA,0,0.1,0.9,1,0,141,4,NA
fcp-trial,190,849689,0.0-151.0-0.0,voc_e2,11833,"[{""event"":""focus"",""trial"":0,""time"":0},{""event"":""fullscreenenter"",""trial"":1,""time"":2841},{""event"":""fullscreenexit"",""trial"":3,""time"":17724},{""event"":""blur"",""trial"":3,""time"":18958},{""event"":""focus"",""trial"":3,""time"":27221},{""event"":""blur"",""trial"":38,""time"":331692},{""event"":""focus"",""trial"":38,""time"":339796}]",NA,NA,NA,NA,NA,3,#3386FF,#D89F1C,10,10,0,40,0,497,39,0,584,10,1,experiment,NA,NA,2,0.5,0.5,5,4,142,4,NA
fcp-trial,191,852009,0.0-152.0-0.0,voc_e2,11833,"[{""event"":""focus"",""trial"":0,""time"":0},{""event"":""fullscreenenter"",""trial"":1,""time"":2841},{""event"":""fullscreenexit"",""trial"":3,""time"":17724},{""event"":""blur"",""trial"":3,""time"":18958},{""event"":""focus"",""trial"":3,""time"":27221},{""event"":""blur"",""trial"":38,""time"":331692},{""event"":""focus"",""trial"":38,""time"":339796}]",NA,NA,NA,NA,NA,0,#741CD8,#D8271C,10,10,0,40,0,259,39,0,534,10,1,experiment,NA,NA,1,0.3,0.7,3,2,143,4,NA
fcp-trial,192,854408,0.0-153.0-0.0,voc_e2,11833,"[{""event"":""focus"",""trial"":0,""time"":0},{""event"":""fullscreenenter"",""trial"":1,""time"":2841},{""event"":""fullscreenexit"",""trial"":3,""time"":17724},{""event"":""blur"",""trial"":3,""time"":18958},{""event"":""focus"",""trial"":3,""time"":27221},{""event"":""blur"",""trial"":38,""time"":331692},{""event"":""focus"",""trial"":38,""time"":339796}]",NA,NA,NA,NA,NA,6,#1CD855,#FA92F8,10,0,1,40,0,250,37,1,536,10,1,experiment,NA,NA,0,0.9,0.1,0,1,144,4,NA
fcp-trial,193,856918,0.0-154.0-0.0,voc_e2,11833,"[{""event"":""focus"",""trial"":0,""time"":0},{""event"":""fullscreenenter"",""trial"":1,""time"":2841},{""event"":""fullscreenexit"",""trial"":3,""time"":17724},{""event"":""blur"",""trial"":3,""time"":18958},{""event"":""focus"",""trial"":3,""time"":27221},{""event"":""blur"",""trial"":38,""time"":331692},{""event"":""focus"",""trial"":38,""time"":339796}]",NA,NA,NA,NA,NA,4,#D89F1C,#3386FF,10,10,1,40,0,435,39,0,548,10,0,experiment,NA,NA,2,0.5,0.5,4,5,145,4,NA
fcp-trial,194,859338,0.0-155.0-0.0,voc_e2,11833,"[{""event"":""focus"",""trial"":0,""time"":0},{""event"":""fullscreenenter"",""trial"":1,""time"":2841},{""event"":""fullscreenexit"",""trial"":3,""time"":17724},{""event"":""blur"",""trial"":3,""time"":18958},{""event"":""focus"",""trial"":3,""time"":27221},{""event"":""blur"",""trial"":38,""time"":331692},{""event"":""focus"",""trial"":38,""time"":339796}]",NA,NA,NA,NA,NA,0,#D89F1C,#3386FF,10,0,1,40,0,344,37,1,525,10,1,experiment,NA,NA,2,0.5,0.5,4,5,146,4,NA
fcp-trial,195,861709,0.0-156.0-0.0,voc_e2,11833,"[{""event"":""focus"",""trial"":0,""time"":0},{""event"":""fullscreenenter"",""trial"":1,""time"":2841},{""event"":""fullscreenexit"",""trial"":3,""time"":17724},{""event"":""blur"",""trial"":3,""time"":18958},{""event"":""focus"",""trial"":3,""time"":27221},{""event"":""blur"",""trial"":38,""time"":331692},{""event"":""focus"",""trial"":38,""time"":339796}]",NA,NA,NA,NA,NA,4,#1CD855,#FA92F8,10,0,1,40,0,417,39,0,429,0,0,experiment,NA,NA,0,0.9,0.1,0,1,147,4,NA
fcp-trial,196,864218,0.0-157.0-0.0,voc_e2,11833,"[{""event"":""focus"",""trial"":0,""time"":0},{""event"":""fullscreenenter"",""trial"":1,""time"":2841},{""event"":""fullscreenexit"",""trial"":3,""time"":17724},{""event"":""blur"",""trial"":3,""time"":18958},{""event"":""focus"",""trial"":3,""time"":27221},{""event"":""blur"",""trial"":38,""time"":331692},{""event"":""focus"",""trial"":38,""time"":339796}]",NA,NA,NA,NA,NA,2,#1CD855,#FA92F8,10,0,1,40,0,463,39,0,531,0,0,experiment,NA,NA,0,0.9,0.1,0,1,148,4,NA
fcp-trial,197,867068,0.0-158.0-0.0,voc_e2,11833,"[{""event"":""focus"",""trial"":0,""time"":0},{""event"":""fullscreenenter"",""trial"":1,""time"":2841},{""event"":""fullscreenexit"",""trial"":3,""time"":17724},{""event"":""blur"",""trial"":3,""time"":18958},{""event"":""focus"",""trial"":3,""time"":27221},{""event"":""blur"",""trial"":38,""time"":331692},{""event"":""focus"",""trial"":38,""time"":339796}]",NA,NA,NA,NA,NA,5,#D8271C,#741CD8,0,10,1,40,0,620,37,1,683,0,1,experiment,NA,NA,1,0.7,0.3,2,3,149,4,NA
fcp-trial,198,869368,0.0-159.0-0.0,voc_e2,11833,"[{""event"":""focus"",""trial"":0,""time"":0},{""event"":""fullscreenenter"",""trial"":1,""time"":2841},{""event"":""fullscreenexit"",""trial"":3,""time"":17724},{""event"":""blur"",""trial"":3,""time"":18958},{""event"":""focus"",""trial"":3,""time"":27221},{""event"":""blur"",""trial"":38,""time"":331692},{""event"":""focus"",""trial"":38,""time"":339796}]",NA,NA,NA,NA,NA,1,#FA92F8,#1CD855,0,10,0,40,0,128,37,1,644,0,0,experiment,NA,NA,0,0.1,0.9,1,0,150,4,NA
fcp-trial,199,884399,0.0-160.0-0.0,voc_e2,11833,"[{""event"":""focus"",""trial"":0,""time"":0},{""event"":""fullscreenenter"",""trial"":1,""time"":2841},{""event"":""fullscreenexit"",""trial"":3,""time"":17724},{""event"":""blur"",""trial"":3,""time"":18958},{""event"":""focus"",""trial"":3,""time"":27221},{""event"":""blur"",""trial"":38,""time"":331692},{""event"":""focus"",""trial"":38,""time"":339796}]",NA,NA,NA,NA,NA,5,#1CD855,#FA92F8,10,0,1,null,null,null,null,null,null,NA,0,experiment,NA,NA,0,0.9,0.1,0,1,151,4,NA
fcp-trial,200,899508,0.0-161.0-0.0,voc_e2,11833,"[{""event"":""focus"",""trial"":0,""time"":0},{""event"":""fullscreenenter"",""trial"":1,""time"":2841},{""event"":""fullscreenexit"",""trial"":3,""time"":17724},{""event"":""blur"",""trial"":3,""time"":18958},{""event"":""focus"",""trial"":3,""time"":27221},{""event"":""blur"",""trial"":38,""time"":331692},{""event"":""focus"",""trial"":38,""time"":339796}]",NA,NA,NA,NA,NA,3,#D8271C,#741CD8,10,0,1,null,null,null,null,null,null,NA,0,experiment,NA,NA,1,0.7,0.3,2,3,152,4,NA
