trial_type,trial_index,time_elapsed,internal_node_id,task_version,subject_id,interactions,success,rt,stimulus,key_press,button_pressed,offer,arcade_color_L,arcade_color_R,arcade_outcome_L,arcade_outcome_R,correct,stage_1_key,stage_1_choice,stage_1_rt,stage_2_key,stage_2_choice,stage_2_rt,stage_3_outcome,accuracy,phase,responses,num_errors,context,reward_prob_L,reward_prob_R,arcade_id_L,arcade_id_R,trial,block,response
pavlovia,0,9,0.0-0.0,voc_e2,11742,[],NA,NA,NA,NA,NA,NA,NA,NA,NA,NA,NA,NA,NA,NA,NA,NA,NA,NA,NA,NA,NA,NA,NA,NA,NA,NA,NA,NA,NA,NA
fullscreen,1,5184,0.0-1.0,voc_e2,11742,"[{""event"":""fullscreenenter"",""trial"":1,""time"":4186}]",TRUE,NA,NA,NA,NA,NA,NA,NA,NA,NA,NA,NA,NA,NA,NA,NA,NA,NA,NA,NA,NA,NA,NA,NA,NA,NA,NA,NA,NA,NA
audio-keyboard-response,2,11266,0.0-2.0,voc_e2,11742,"[{""event"":""fullscreenenter"",""trial"":1,""time"":4186}]",NA,5469,static/audio/beep_loop.wav,32,NA,NA,NA,NA,NA,NA,NA,NA,NA,NA,NA,NA,NA,NA,NA,NA,NA,NA,NA,NA,NA,NA,NA,NA,NA,NA
audio-test,3,14125,0.0-3.0,voc_e2,11742,"[{""event"":""fullscreenenter"",""trial"":1,""time"":4186}]",NA,NA,static/audio/turtle.wav,NA,3,NA,NA,NA,NA,NA,NA,NA,NA,NA,NA,NA,NA,NA,NA,NA,NA,NA,NA,NA,NA,NA,NA,NA,NA,NA
audio-test,4,17678,0.0-4.0,voc_e2,11742,"[{""event"":""fullscreenenter"",""trial"":1,""time"":4186}]",NA,NA,static/audio/shark.wav,NA,2,NA,NA,NA,NA,NA,NA,NA,NA,NA,NA,NA,NA,NA,NA,NA,NA,NA,NA,NA,NA,NA,NA,NA,NA,NA
audio-instructions,5,24580,0.0-5.0-0.0,voc_e2,11742,"[{""event"":""fullscreenenter"",""trial"":1,""time"":4186}]",NA,1100.7000000029802,static/audio/instructions1.wav,NA,0,NA,NA,NA,NA,NA,NA,NA,NA,NA,NA,NA,NA,NA,NA,NA,NA,NA,NA,NA,NA,NA,NA,NA,NA,NA
audio-instructions,6,33378,0.0-5.0-1.0,voc_e2,11742,"[{""event"":""fullscreenenter"",""trial"":1,""time"":4186}]",NA,2058.3999999910593,static/audio/instructions2.wav,NA,0,NA,NA,NA,NA,NA,NA,NA,NA,NA,NA,NA,NA,NA,NA,NA,NA,NA,NA,NA,NA,NA,NA,NA,NA,NA
audio-instructions,7,42490,0.0-5.0-2.0,voc_e2,11742,"[{""event"":""fullscreenenter"",""trial"":1,""time"":4186}]",NA,3301.20000000298,static/audio/instructions3.wav,NA,0,NA,NA,NA,NA,NA,NA,NA,NA,NA,NA,NA,NA,NA,NA,NA,NA,NA,NA,NA,NA,NA,NA,NA,NA,NA
audio-instructions,8,59317,0.0-5.0-3.0,voc_e2,11742,"[{""event"":""fullscreenenter"",""trial"":1,""time"":4186}]",NA,3594.6000000089407,static/audio/instructions4.wav,NA,0,NA,NA,NA,NA,NA,NA,NA,NA,NA,NA,NA,NA,NA,NA,NA,NA,NA,NA,NA,NA,NA,NA,NA,NA,NA
audio-instructions,9,72003,0.0-5.0-4.0,voc_e2,11742,"[{""event"":""fullscreenenter"",""trial"":1,""time"":4186}]",NA,3301.199999988079,static/audio/instructions5.wav,NA,0,NA,NA,NA,NA,NA,NA,NA,NA,NA,NA,NA,NA,NA,NA,NA,NA,NA,NA,NA,NA,NA,NA,NA,NA,NA
fcp-practice,10,133005,0.0-5.0-5.0-0.0,voc_e2,11742,"[{""event"":""fullscreenenter"",""trial"":1,""time"":4186}]",NA,NA,NA,NA,NA,NA,#EDC948,#46d3c8,10,0,1,null,null,null,37,1,59493.5,10,1,practice,NA,NA,NA,NA,NA,NA,NA,NA,NA,NA
fcp-practice,11,137897,0.0-5.0-5.0-1.0,voc_e2,11742,"[{""event"":""fullscreenenter"",""trial"":1,""time"":4186}]",NA,NA,NA,NA,NA,NA,#EDC948,#46d3c8,10,0,1,null,null,null,37,1,3388.9000000059605,10,1,practice,NA,NA,NA,NA,NA,NA,NA,NA,NA,NA
fcp-practice,12,140483,0.0-5.0-5.0-2.0,voc_e2,11742,"[{""event"":""fullscreenenter"",""trial"":1,""time"":4186}]",NA,NA,NA,NA,NA,NA,#EDC948,#46d3c8,0,10,1,null,null,null,37,1,1081.8999999910593,0,1,practice,NA,NA,NA,NA,NA,NA,NA,NA,NA,NA
fcp-practice,13,143644,0.0-5.0-5.0-3.0,voc_e2,11742,"[{""event"":""fullscreenenter"",""trial"":1,""time"":4186}]",NA,NA,NA,NA,NA,NA,#EDC948,#46d3c8,10,0,1,null,null,null,37,1,1656.6000000089407,10,1,practice,NA,NA,NA,NA,NA,NA,NA,NA,NA,NA
fcp-practice,14,146293,0.0-5.0-5.0-4.0,voc_e2,11742,"[{""event"":""fullscreenenter"",""trial"":1,""time"":4186}]",NA,NA,NA,NA,NA,NA,#EDC948,#46d3c8,10,0,1,null,null,null,37,1,1141.5,10,1,practice,NA,NA,NA,NA,NA,NA,NA,NA,NA,NA
audio-instructions,15,167691,0.0-5.0-6.0,voc_e2,11742,"[{""event"":""fullscreenenter"",""trial"":1,""time"":4186}]",NA,2842.9000000059605,static/audio/instructions6.wav,NA,0,NA,NA,NA,NA,NA,NA,NA,NA,NA,NA,NA,NA,NA,NA,NA,NA,NA,NA,NA,NA,NA,NA,NA,NA,NA
audio-instructions,16,188108,0.0-5.0-7.0,voc_e2,11742,"[{""event"":""fullscreenenter"",""trial"":1,""time"":4186}]",NA,1216.4000000059605,static/audio/instructions7.wav,NA,0,NA,NA,NA,NA,NA,NA,NA,NA,NA,NA,NA,NA,NA,NA,NA,NA,NA,NA,NA,NA,NA,NA,NA,NA,NA
audio-instructions,17,198491,0.0-5.0-8.0,voc_e2,11742,"[{""event"":""fullscreenenter"",""trial"":1,""time"":4186}]",NA,909.7999999970198,static/audio/instructions8.wav,NA,0,NA,NA,NA,NA,NA,NA,NA,NA,NA,NA,NA,NA,NA,NA,NA,NA,NA,NA,NA,NA,NA,NA,NA,NA,NA
fcp-comprehension,18,210214,0.0-5.0-9.0,voc_e2,11742,"[{""event"":""fullscreenenter"",""trial"":1,""time"":4186}]",NA,11721,NA,NA,NA,NA,NA,NA,NA,NA,NA,NA,NA,NA,NA,NA,NA,NA,NA,NA,"false,true",1,NA,NA,NA,NA,NA,NA,NA,NA
audio-instructions,19,226541,0.0-5.1-0.1,voc_e2,11742,"[{""event"":""fullscreenenter"",""trial"":1,""time"":4186}]",NA,11549.40000000596,static/audio/instructions1.wav,NA,0,NA,NA,NA,NA,NA,NA,NA,NA,NA,NA,NA,NA,NA,NA,NA,NA,NA,NA,NA,NA,NA,NA,NA,NA,NA
audio-instructions,20,234098,0.0-5.1-1.1,voc_e2,11742,"[{""event"":""fullscreenenter"",""trial"":1,""time"":4186}]",NA,806.2999999970198,static/audio/instructions2.wav,NA,0,NA,NA,NA,NA,NA,NA,NA,NA,NA,NA,NA,NA,NA,NA,NA,NA,NA,NA,NA,NA,NA,NA,NA,NA,NA
audio-instructions,21,247532,0.0-5.1-2.1,voc_e2,11742,"[{""event"":""fullscreenenter"",""trial"":1,""time"":4186}]",NA,7630.899999991059,static/audio/instructions3.wav,NA,0,NA,NA,NA,NA,NA,NA,NA,NA,NA,NA,NA,NA,NA,NA,NA,NA,NA,NA,NA,NA,NA,NA,NA,NA,NA
audio-instructions,22,264855,0.0-5.1-3.1,voc_e2,11742,"[{""event"":""fullscreenenter"",""trial"":1,""time"":4186}]",NA,4094,static/audio/instructions4.wav,NA,0,NA,NA,NA,NA,NA,NA,NA,NA,NA,NA,NA,NA,NA,NA,NA,NA,NA,NA,NA,NA,NA,NA,NA,NA,NA
audio-instructions,23,275219,0.0-5.1-4.1,voc_e2,11742,"[{""event"":""fullscreenenter"",""trial"":1,""time"":4186}]",NA,977.4000000059604,static/audio/instructions5.wav,NA,0,NA,NA,NA,NA,NA,NA,NA,NA,NA,NA,NA,NA,NA,NA,NA,NA,NA,NA,NA,NA,NA,NA,NA,NA,NA
fcp-practice,24,277593,0.0-5.1-5.1-0.1,voc_e2,11742,"[{""event"":""fullscreenenter"",""trial"":1,""time"":4186}]",NA,NA,NA,NA,NA,NA,#EDC948,#46d3c8,10,0,1,null,null,null,37,1,862.3999999910593,10,1,practice,NA,NA,NA,NA,NA,NA,NA,NA,NA,NA
fcp-practice,25,279877,0.0-5.1-5.1-1.1,voc_e2,11742,"[{""event"":""fullscreenenter"",""trial"":1,""time"":4186}]",NA,NA,NA,NA,NA,NA,#EDC948,#46d3c8,10,0,1,null,null,null,37,1,776.9000000059605,10,1,practice,NA,NA,NA,NA,NA,NA,NA,NA,NA,NA
fcp-practice,26,281577,0.0-5.1-5.1-2.1,voc_e2,11742,"[{""event"":""fullscreenenter"",""trial"":1,""time"":4186}]",NA,NA,NA,NA,NA,NA,#EDC948,#46d3c8,0,10,1,null,null,null,37,1,188.5,0,1,practice,NA,NA,NA,NA,NA,NA,NA,NA,NA,NA
fcp-practice,27,283226,0.0-5.1-5.1-3.1,voc_e2,11742,"[{""event"":""fullscreenenter"",""trial"":1,""time"":4186}]",NA,NA,NA,NA,NA,NA,#EDC948,#46d3c8,10,0,1,null,null,null,37,1,137.5,10,1,practice,NA,NA,NA,NA,NA,NA,NA,NA,NA,NA
fcp-practice,28,284926,0.0-5.1-5.1-4.1,voc_e2,11742,"[{""event"":""fullscreenenter"",""trial"":1,""time"":4186}]",NA,NA,NA,NA,NA,NA,#EDC948,#46d3c8,10,0,1,null,null,null,37,1,187.3999999910593,10,1,practice,NA,NA,NA,NA,NA,NA,NA,NA,NA,NA
audio-instructions,29,304026,0.0-5.1-6.1,voc_e2,11742,"[{""event"":""fullscreenenter"",""trial"":1,""time"":4186}]",NA,1095,static/audio/instructions6.wav,NA,0,NA,NA,NA,NA,NA,NA,NA,NA,NA,NA,NA,NA,NA,NA,NA,NA,NA,NA,NA,NA,NA,NA,NA,NA,NA
audio-instructions,30,324209,0.0-5.1-7.1,voc_e2,11742,"[{""event"":""fullscreenenter"",""trial"":1,""time"":4186}]",NA,987.7000000029802,static/audio/instructions7.wav,NA,0,NA,NA,NA,NA,NA,NA,NA,NA,NA,NA,NA,NA,NA,NA,NA,NA,NA,NA,NA,NA,NA,NA,NA,NA,NA
audio-instructions,31,335469,0.0-5.1-8.1,voc_e2,11742,"[{""event"":""fullscreenenter"",""trial"":1,""time"":4186}]",NA,1787.8999999910593,static/audio/instructions8.wav,NA,0,NA,NA,NA,NA,NA,NA,NA,NA,NA,NA,NA,NA,NA,NA,NA,NA,NA,NA,NA,NA,NA,NA,NA,NA,NA
fcp-comprehension,32,347171,0.0-5.1-9.1,voc_e2,11742,"[{""event"":""fullscreenenter"",""trial"":1,""time"":4186}]",NA,11699.79999999702,NA,NA,NA,NA,NA,NA,NA,NA,NA,NA,NA,NA,NA,NA,NA,NA,NA,NA,"false,true",1,NA,NA,NA,NA,NA,NA,NA,NA
audio-instructions,33,352466,0.0-5.2-0.2,voc_e2,11742,"[{""event"":""fullscreenenter"",""trial"":1,""time"":4186}]",NA,514.5,static/audio/instructions1.wav,NA,0,NA,NA,NA,NA,NA,NA,NA,NA,NA,NA,NA,NA,NA,NA,NA,NA,NA,NA,NA,NA,NA,NA,NA,NA,NA
audio-instructions,34,360357,0.0-5.2-1.2,voc_e2,11742,"[{""event"":""fullscreenenter"",""trial"":1,""time"":4186}]",NA,1145.5999999940395,static/audio/instructions2.wav,NA,0,NA,NA,NA,NA,NA,NA,NA,NA,NA,NA,NA,NA,NA,NA,NA,NA,NA,NA,NA,NA,NA,NA,NA,NA,NA
audio-instructions,35,367420,0.0-5.2-2.2,voc_e2,11742,"[{""event"":""fullscreenenter"",""trial"":1,""time"":4186}]",NA,1259.5,static/audio/instructions3.wav,NA,0,NA,NA,NA,NA,NA,NA,NA,NA,NA,NA,NA,NA,NA,NA,NA,NA,NA,NA,NA,NA,NA,NA,NA,NA,NA
audio-instructions,36,382448,0.0-5.2-3.2,voc_e2,11742,"[{""event"":""fullscreenenter"",""trial"":1,""time"":4186}]",NA,1796.7000000029802,static/audio/instructions4.wav,NA,0,NA,NA,NA,NA,NA,NA,NA,NA,NA,NA,NA,NA,NA,NA,NA,NA,NA,NA,NA,NA,NA,NA,NA,NA,NA
audio-instructions,37,392533,0.0-5.2-4.2,voc_e2,11742,"[{""event"":""fullscreenenter"",""trial"":1,""time"":4186}]",NA,702.4000000059605,static/audio/instructions5.wav,NA,0,NA,NA,NA,NA,NA,NA,NA,NA,NA,NA,NA,NA,NA,NA,NA,NA,NA,NA,NA,NA,NA,NA,NA,NA,NA
fcp-practice,38,394124,0.0-5.2-5.2-0.2,voc_e2,11742,"[{""event"":""fullscreenenter"",""trial"":1,""time"":4186}]",NA,NA,NA,NA,NA,NA,#EDC948,#46d3c8,10,0,1,null,null,null,37,1,72.80000001192093,10,1,practice,NA,NA,NA,NA,NA,NA,NA,NA,NA,NA
fcp-practice,39,395773,0.0-5.2-5.2-1.2,voc_e2,11742,"[{""event"":""fullscreenenter"",""trial"":1,""time"":4186}]",NA,NA,NA,NA,NA,NA,#EDC948,#46d3c8,10,0,1,null,null,null,37,1,136.3999999910593,10,1,practice,NA,NA,NA,NA,NA,NA,NA,NA,NA,NA
fcp-practice,40,399640,0.0-5.2-5.2-2.2,voc_e2,11742,"[{""event"":""fullscreenenter"",""trial"":1,""time"":4186}]",NA,NA,NA,NA,NA,NA,#EDC948,#46d3c8,0,10,1,null,null,null,37,1,2359.1000000089407,0,1,practice,NA,NA,NA,NA,NA,NA,NA,NA,NA,NA
fcp-practice,41,401473,0.0-5.2-5.2-3.2,voc_e2,11742,"[{""event"":""fullscreenenter"",""trial"":1,""time"":4186}]",NA,NA,NA,NA,NA,NA,#EDC948,#46d3c8,10,0,1,null,null,null,37,1,323.70000000298023,10,1,practice,NA,NA,NA,NA,NA,NA,NA,NA,NA,NA
fcp-practice,42,404239,0.0-5.2-5.2-4.2,voc_e2,11742,"[{""event"":""fullscreenenter"",""trial"":1,""time"":4186}]",NA,NA,NA,NA,NA,NA,#EDC948,#46d3c8,10,0,1,null,null,null,37,1,1256.3999999910593,10,1,practice,NA,NA,NA,NA,NA,NA,NA,NA,NA,NA
audio-instructions,43,423075,0.0-5.2-6.2,voc_e2,11742,"[{""event"":""fullscreenenter"",""trial"":1,""time"":4186}]",NA,834.1000000089407,static/audio/instructions6.wav,NA,0,NA,NA,NA,NA,NA,NA,NA,NA,NA,NA,NA,NA,NA,NA,NA,NA,NA,NA,NA,NA,NA,NA,NA,NA,NA
audio-instructions,44,443798,0.0-5.2-7.2,voc_e2,11742,"[{""event"":""fullscreenenter"",""trial"":1,""time"":4186}]",NA,1526.7000000029802,static/audio/instructions7.wav,NA,0,NA,NA,NA,NA,NA,NA,NA,NA,NA,NA,NA,NA,NA,NA,NA,NA,NA,NA,NA,NA,NA,NA,NA,NA,NA
audio-instructions,45,458975,0.0-5.2-8.2,voc_e2,11742,"[{""event"":""fullscreenenter"",""trial"":1,""time"":4186}]",NA,5714.0999999940395,static/audio/instructions8.wav,NA,0,NA,NA,NA,NA,NA,NA,NA,NA,NA,NA,NA,NA,NA,NA,NA,NA,NA,NA,NA,NA,NA,NA,NA,NA,NA
fcp-comprehension,46,469540,0.0-5.2-9.2,voc_e2,11742,"[{""event"":""fullscreenenter"",""trial"":1,""time"":4186}]",NA,10563.70000000298,NA,NA,NA,NA,NA,NA,NA,NA,NA,NA,NA,NA,NA,NA,NA,NA,NA,NA,"true,true",0,NA,NA,NA,NA,NA,NA,NA,NA
audio-instructions,47,476420,0.0-6.0-0.0,voc_e2,11742,"[{""event"":""fullscreenenter"",""trial"":1,""time"":4186}]",NA,1329.2999999970198,static/audio/instructions9.wav,NA,0,NA,NA,NA,NA,NA,NA,NA,NA,NA,NA,NA,NA,NA,NA,NA,NA,NA,NA,NA,NA,NA,NA,NA,NA,NA
audio-instructions,48,491533,0.0-6.0-1.0,voc_e2,11742,"[{""event"":""fullscreenenter"",""trial"":1,""time"":4186}]",NA,2991.8999999910593,static/audio/instructions10.wav,NA,0,NA,NA,NA,NA,NA,NA,NA,NA,NA,NA,NA,NA,NA,NA,NA,NA,NA,NA,NA,NA,NA,NA,NA,NA,NA
fcp-trial,49,499731,0.0-6.0-2.0,voc_e2,11742,"[{""event"":""fullscreenenter"",""trial"":1,""time"":4186}]",NA,NA,NA,NA,NA,0,#EDC948,#46d3c8,10,10,1,38,1,4065.5,37,1,2609.0999999940395,10,1,practice,NA,NA,NA,NA,NA,NA,NA,NA,NA,NA
audio-instructions,50,512371,0.0-6.0-3.0,voc_e2,11742,"[{""event"":""fullscreenenter"",""trial"":1,""time"":4186}]",NA,1627.3999999910593,static/audio/instructions11.wav,NA,0,NA,NA,NA,NA,NA,NA,NA,NA,NA,NA,NA,NA,NA,NA,NA,NA,NA,NA,NA,NA,NA,NA,NA,NA,NA
fcp-trial,51,516280,0.0-6.0-4.0,voc_e2,11742,"[{""event"":""fullscreenenter"",""trial"":1,""time"":4186}]",NA,NA,NA,NA,NA,6,#EDC948,#46d3c8,10,10,1,40,0,1274.0999999940395,39,0,1117,10,0,practice,NA,NA,NA,NA,NA,NA,NA,NA,NA,NA
audio-instructions,52,536466,0.0-6.0-5.0,voc_e2,11742,"[{""event"":""fullscreenenter"",""trial"":1,""time"":4186}]",NA,1502,static/audio/instructions12.wav,NA,0,NA,NA,NA,NA,NA,NA,NA,NA,NA,NA,NA,NA,NA,NA,NA,NA,NA,NA,NA,NA,NA,NA,NA,NA,NA
audio-instructions,53,548894,0.0-6.0-6.0,voc_e2,11742,"[{""event"":""fullscreenenter"",""trial"":1,""time"":4186}]",NA,4830.100000008941,static/audio/instructions13.wav,NA,0,NA,NA,NA,NA,NA,NA,NA,NA,NA,NA,NA,NA,NA,NA,NA,NA,NA,NA,NA,NA,NA,NA,NA,NA,NA
audio-instructions,54,558908,0.0-6.0-7.0,voc_e2,11742,"[{""event"":""fullscreenenter"",""trial"":1,""time"":4186}]",NA,1558.2999999970198,static/audio/instructions14.wav,NA,0,NA,NA,NA,NA,NA,NA,NA,NA,NA,NA,NA,NA,NA,NA,NA,NA,NA,NA,NA,NA,NA,NA,NA,NA,NA
audio-instructions,55,571577,0.0-7.0-0.0,voc_e2,11742,"[{""event"":""fullscreenenter"",""trial"":1,""time"":4186}]",NA,5756.600000008941,static/audio/instructions15.wav,NA,0,NA,NA,NA,NA,NA,NA,NA,NA,NA,NA,NA,NA,NA,NA,NA,NA,NA,NA,NA,NA,NA,NA,NA,NA,NA
audio-instructions,56,582128,0.0-7.0-1.0,voc_e2,11742,"[{""event"":""fullscreenenter"",""trial"":1,""time"":4186}]",NA,3727.5,static/audio/instructions16.wav,NA,0,NA,NA,NA,NA,NA,NA,NA,NA,NA,NA,NA,NA,NA,NA,NA,NA,NA,NA,NA,NA,NA,NA,NA,NA,NA
audio-instructions,57,595521,0.0-7.0-2.0,voc_e2,11742,"[{""event"":""fullscreenenter"",""trial"":1,""time"":4186}]",NA,5720.699999988079,static/audio/instructions17.wav,NA,0,NA,NA,NA,NA,NA,NA,NA,NA,NA,NA,NA,NA,NA,NA,NA,NA,NA,NA,NA,NA,NA,NA,NA,NA,NA
audio-instructions,58,605329,0.0-7.0-3.0,voc_e2,11742,"[{""event"":""fullscreenenter"",""trial"":1,""time"":4186}]",NA,2038.70000000298,static/audio/instructions18.wav,NA,0,NA,NA,NA,NA,NA,NA,NA,NA,NA,NA,NA,NA,NA,NA,NA,NA,NA,NA,NA,NA,NA,NA,NA,NA,NA
audio-instructions,59,613193,0.0-7.0-4.0,voc_e2,11742,"[{""event"":""fullscreenenter"",""trial"":1,""time"":4186}]",NA,1112.199999988079,static/audio/instructions19.wav,NA,0,NA,NA,NA,NA,NA,NA,NA,NA,NA,NA,NA,NA,NA,NA,NA,NA,NA,NA,NA,NA,NA,NA,NA,NA,NA
fcp-comprehension,60,731092,0.0-7.0-5.0,voc_e2,11742,"[{""event"":""fullscreenenter"",""trial"":1,""time"":4186}]",NA,117902.20000000298,NA,NA,NA,NA,NA,NA,NA,NA,NA,NA,NA,NA,NA,NA,NA,NA,NA,NA,"false,false,false,false",1,NA,NA,NA,NA,NA,NA,NA,NA
audio-instructions,61,740708,0.0-7.1-0.1,voc_e2,11742,"[{""event"":""fullscreenenter"",""trial"":1,""time"":4186}]",NA,2167.5,static/audio/instructions15.wav,NA,0,NA,NA,NA,NA,NA,NA,NA,NA,NA,NA,NA,NA,NA,NA,NA,NA,NA,NA,NA,NA,NA,NA,NA,NA,NA
audio-instructions,62,750958,0.0-7.1-1.1,voc_e2,11742,"[{""event"":""fullscreenenter"",""trial"":1,""time"":4186}]",NA,3427.5999999940395,static/audio/instructions16.wav,NA,0,NA,NA,NA,NA,NA,NA,NA,NA,NA,NA,NA,NA,NA,NA,NA,NA,NA,NA,NA,NA,NA,NA,NA,NA,NA
audio-instructions,63,761097,0.0-7.1-2.1,voc_e2,11742,"[{""event"":""fullscreenenter"",""trial"":1,""time"":4186}]",NA,2466.5,static/audio/instructions17.wav,NA,0,NA,NA,NA,NA,NA,NA,NA,NA,NA,NA,NA,NA,NA,NA,NA,NA,NA,NA,NA,NA,NA,NA,NA,NA,NA
audio-instructions,64,770508,0.0-7.1-3.1,voc_e2,11742,"[{""event"":""fullscreenenter"",""trial"":1,""time"":4186}]",NA,1648.2000000029802,static/audio/instructions18.wav,NA,0,NA,NA,NA,NA,NA,NA,NA,NA,NA,NA,NA,NA,NA,NA,NA,NA,NA,NA,NA,NA,NA,NA,NA,NA,NA
audio-instructions,65,778428,0.0-7.1-4.1,voc_e2,11742,"[{""event"":""fullscreenenter"",""trial"":1,""time"":4186}]",NA,1178,static/audio/instructions19.wav,NA,0,NA,NA,NA,NA,NA,NA,NA,NA,NA,NA,NA,NA,NA,NA,NA,NA,NA,NA,NA,NA,NA,NA,NA,NA,NA
fcp-comprehension,66,803097,0.0-7.1-5.1,voc_e2,11742,"[{""event"":""fullscreenenter"",""trial"":1,""time"":4186}]",NA,24666.90000000596,NA,NA,NA,NA,NA,NA,NA,NA,NA,NA,NA,NA,NA,NA,NA,NA,NA,NA,"false,true,true,false",3,NA,NA,NA,NA,NA,NA,NA,NA
audio-instructions,67,811429,0.0-7.2-0.2,voc_e2,11742,"[{""event"":""fullscreenenter"",""trial"":1,""time"":4186}]",NA,1418,static/audio/instructions15.wav,NA,0,NA,NA,NA,NA,NA,NA,NA,NA,NA,NA,NA,NA,NA,NA,NA,NA,NA,NA,NA,NA,NA,NA,NA,NA,NA
audio-instructions,68,819678,0.0-7.2-1.2,voc_e2,11742,"[{""event"":""fullscreenenter"",""trial"":1,""time"":4186}]",NA,1417.8999999910593,static/audio/instructions16.wav,NA,0,NA,NA,NA,NA,NA,NA,NA,NA,NA,NA,NA,NA,NA,NA,NA,NA,NA,NA,NA,NA,NA,NA,NA,NA,NA
audio-instructions,69,827857,0.0-7.2-2.2,voc_e2,11742,"[{""event"":""fullscreenenter"",""trial"":1,""time"":4186}]",NA,496.8999999910593,static/audio/instructions17.wav,NA,0,NA,NA,NA,NA,NA,NA,NA,NA,NA,NA,NA,NA,NA,NA,NA,NA,NA,NA,NA,NA,NA,NA,NA,NA,NA
audio-instructions,70,836160,0.0-7.2-3.2,voc_e2,11742,"[{""event"":""fullscreenenter"",""trial"":1,""time"":4186}]",NA,539.5,static/audio/instructions18.wav,NA,0,NA,NA,NA,NA,NA,NA,NA,NA,NA,NA,NA,NA,NA,NA,NA,NA,NA,NA,NA,NA,NA,NA,NA,NA,NA
audio-instructions,71,843830,0.0-7.2-4.2,voc_e2,11742,"[{""event"":""fullscreenenter"",""trial"":1,""time"":4186}]",NA,930.5,static/audio/instructions19.wav,NA,0,NA,NA,NA,NA,NA,NA,NA,NA,NA,NA,NA,NA,NA,NA,NA,NA,NA,NA,NA,NA,NA,NA,NA,NA,NA
fcp-comprehension,72,891516,0.0-7.2-5.2,voc_e2,11742,"[{""event"":""fullscreenenter"",""trial"":1,""time"":4186}]",NA,47683.89999999106,NA,NA,NA,NA,NA,NA,NA,NA,NA,NA,NA,NA,NA,NA,NA,NA,NA,NA,"true,false,false,false",2,NA,NA,NA,NA,NA,NA,NA,NA
audio-instructions,73,901269,0.0-7.3-0.3,voc_e2,11742,"[{""event"":""fullscreenenter"",""trial"":1,""time"":4186}]",NA,2313.8999999910593,static/audio/instructions15.wav,NA,0,NA,NA,NA,NA,NA,NA,NA,NA,NA,NA,NA,NA,NA,NA,NA,NA,NA,NA,NA,NA,NA,NA,NA,NA,NA
audio-instructions,74,910084,0.0-7.3-1.3,voc_e2,11742,"[{""event"":""fullscreenenter"",""trial"":1,""time"":4186}]",NA,1989.29999999702,static/audio/instructions16.wav,NA,0,NA,NA,NA,NA,NA,NA,NA,NA,NA,NA,NA,NA,NA,NA,NA,NA,NA,NA,NA,NA,NA,NA,NA,NA,NA
audio-instructions,75,917984,0.0-7.3-2.3,voc_e2,11742,"[{""event"":""fullscreenenter"",""trial"":1,""time"":4186}]",NA,217.6000000089407,static/audio/instructions17.wav,NA,0,NA,NA,NA,NA,NA,NA,NA,NA,NA,NA,NA,NA,NA,NA,NA,NA,NA,NA,NA,NA,NA,NA,NA,NA,NA
audio-instructions,76,926074,0.0-7.3-3.3,voc_e2,11742,"[{""event"":""fullscreenenter"",""trial"":1,""time"":4186}]",NA,319.09999999403954,static/audio/instructions18.wav,NA,0,NA,NA,NA,NA,NA,NA,NA,NA,NA,NA,NA,NA,NA,NA,NA,NA,NA,NA,NA,NA,NA,NA,NA,NA,NA
audio-instructions,77,936155,0.0-7.3-4.3,voc_e2,11742,"[{""event"":""fullscreenenter"",""trial"":1,""time"":4186}]",NA,3330.20000000298,static/audio/instructions19.wav,NA,0,NA,NA,NA,NA,NA,NA,NA,NA,NA,NA,NA,NA,NA,NA,NA,NA,NA,NA,NA,NA,NA,NA,NA,NA,NA
fcp-comprehension,78,948298,0.0-7.3-5.3,voc_e2,11742,"[{""event"":""fullscreenenter"",""trial"":1,""time"":4186}]",NA,12141.29999999702,NA,NA,NA,NA,NA,NA,NA,NA,NA,NA,NA,NA,NA,NA,NA,NA,NA,NA,"false,true,false,false",2,NA,NA,NA,NA,NA,NA,NA,NA
audio-instructions,79,957014,0.0-7.4-0.4,voc_e2,11742,"[{""event"":""fullscreenenter"",""trial"":1,""time"":4186}]",NA,1798.300000011921,static/audio/instructions15.wav,NA,0,NA,NA,NA,NA,NA,NA,NA,NA,NA,NA,NA,NA,NA,NA,NA,NA,NA,NA,NA,NA,NA,NA,NA,NA,NA
audio-instructions,80,969220,0.0-7.4-1.4,voc_e2,11742,"[{""event"":""fullscreenenter"",""trial"":1,""time"":4186}]",NA,5375,static/audio/instructions16.wav,NA,0,NA,NA,NA,NA,NA,NA,NA,NA,NA,NA,NA,NA,NA,NA,NA,NA,NA,NA,NA,NA,NA,NA,NA,NA,NA
audio-instructions,81,978653,0.0-7.4-2.4,voc_e2,11742,"[{""event"":""fullscreenenter"",""trial"":1,""time"":4186}]",NA,1758.1000000089407,static/audio/instructions17.wav,NA,0,NA,NA,NA,NA,NA,NA,NA,NA,NA,NA,NA,NA,NA,NA,NA,NA,NA,NA,NA,NA,NA,NA,NA,NA,NA
audio-instructions,82,987075,0.0-7.4-3.4,voc_e2,11742,"[{""event"":""fullscreenenter"",""trial"":1,""time"":4186}]",NA,660.2999999970198,static/audio/instructions18.wav,NA,0,NA,NA,NA,NA,NA,NA,NA,NA,NA,NA,NA,NA,NA,NA,NA,NA,NA,NA,NA,NA,NA,NA,NA,NA,NA
audio-instructions,83,997649,0.0-7.4-4.4,voc_e2,11742,"[{""event"":""fullscreenenter"",""trial"":1,""time"":4186}]",NA,3823.79999999702,static/audio/instructions19.wav,NA,0,NA,NA,NA,NA,NA,NA,NA,NA,NA,NA,NA,NA,NA,NA,NA,NA,NA,NA,NA,NA,NA,NA,NA,NA,NA
fcp-comprehension,84,1040364,0.0-7.4-5.4,voc_e2,11742,"[{""event"":""fullscreenenter"",""trial"":1,""time"":4186}]",NA,42717.09999999404,NA,NA,NA,NA,NA,NA,NA,NA,NA,NA,NA,NA,NA,NA,NA,NA,NA,NA,"false,false,false,true",0,NA,NA,NA,NA,NA,NA,NA,NA
audio-instructions,85,1051496,0.0-8.0,voc_e2,11742,"[{""event"":""fullscreenenter"",""trial"":1,""time"":4186}]",NA,1379.0999999940395,static/audio/ready.wav,NA,0,NA,NA,NA,NA,NA,NA,NA,NA,NA,NA,NA,NA,NA,NA,NA,NA,NA,NA,NA,NA,NA,NA,NA,NA,NA
fcp-trial,86,1058085,0.0-9.0-0.0,voc_e2,11742,"[{""event"":""fullscreenenter"",""trial"":1,""time"":4186}]",NA,NA,NA,NA,NA,2,#1CD855,#FA92F8,0,10,1,40,0,2432.4000000059605,37,1,2644,0,1,experiment,NA,NA,1,0.7,0.3,2,3,1,1,NA
fcp-trial,87,1061919,0.0-10.0-0.0,voc_e2,11742,"[{""event"":""fullscreenenter"",""trial"":1,""time"":4186}]",NA,NA,NA,NA,NA,4,#D8271C,#741CD8,0,0,0,38,1,1287.4000000059605,39,0,1028.800000011921,0,1,experiment,NA,NA,2,0.5,0.5,5,4,2,1,NA
fcp-trial,88,1065019,0.0-11.0-0.0,voc_e2,11742,"[{""event"":""fullscreenenter"",""trial"":1,""time"":4186}]",NA,NA,NA,NA,NA,3,#D8271C,#741CD8,0,10,0,38,1,1000.0999999940395,37,1,571.4000000059605,0,0,experiment,NA,NA,2,0.5,0.5,5,4,3,1,NA
fcp-trial,89,1069752,0.0-12.0-0.0,voc_e2,11742,"[{""event"":""fullscreenenter"",""trial"":1,""time"":4186}]",NA,NA,NA,NA,NA,5,#D89F1C,#3386FF,0,10,0,38,1,2598.4000000059605,39,0,613.5999999940395,10,1,experiment,NA,NA,0,0.1,0.9,1,0,4,1,NA
fcp-trial,90,1072771,0.0-13.0-0.0,voc_e2,11742,"[{""event"":""fullscreenenter"",""trial"":1,""time"":4186}]",NA,NA,NA,NA,NA,2,#D89F1C,#3386FF,0,10,0,38,1,701.2000000029802,37,1,800.2000000029802,0,0,experiment,NA,NA,0,0.1,0.9,1,0,5,1,NA
fcp-trial,91,1076552,0.0-14.0-0.0,voc_e2,11742,"[{""event"":""fullscreenenter"",""trial"":1,""time"":4186}]",NA,NA,NA,NA,NA,6,#1CD855,#FA92F8,10,10,1,38,1,1708.2999999970198,39,0,554.5999999940395,10,0,experiment,NA,NA,1,0.7,0.3,2,3,6,1,NA
fcp-trial,92,1079802,0.0-15.0-0.0,voc_e2,11742,"[{""event"":""fullscreenenter"",""trial"":1,""time"":4186}]",NA,NA,NA,NA,NA,0,#FA92F8,#1CD855,0,0,0,38,1,1373.2999999970198,37,1,359.09999999403954,0,0,experiment,NA,NA,1,0.3,0.7,3,2,7,1,NA
fcp-trial,93,1083551,0.0-16.0-0.0,voc_e2,11742,"[{""event"":""fullscreenenter"",""trial"":1,""time"":4186}]",NA,NA,NA,NA,NA,2,#741CD8,#D8271C,0,10,1,38,1,570.5,37,1,1660.6000000089407,0,1,experiment,NA,NA,2,0.5,0.5,4,5,8,1,NA
fcp-trial,94,1085810,0.0-17.0-0.0,voc_e2,11742,"[{""event"":""fullscreenenter"",""trial"":1,""time"":4186}]",NA,NA,NA,NA,NA,1,#3386FF,#D89F1C,10,0,1,38,1,422.09999999403954,39,0,322.90000000596046,0,0,experiment,NA,NA,0,0.9,0.1,0,1,9,1,NA
fcp-trial,95,1088155,0.0-18.0-0.0,voc_e2,11742,"[{""event"":""fullscreenenter"",""trial"":1,""time"":4186}]",NA,NA,NA,NA,NA,0,#741CD8,#D8271C,10,10,1,38,1,553.4000000059605,37,1,285.20000000298023,10,1,experiment,NA,NA,2,0.5,0.5,4,5,10,1,NA
fcp-trial,96,1090781,0.0-19.0-0.0,voc_e2,11742,"[{""event"":""fullscreenenter"",""trial"":1,""time"":4186}]",NA,NA,NA,NA,NA,3,#FA92F8,#1CD855,10,0,0,38,1,830.4000000059605,37,1,281.29999999701977,10,0,experiment,NA,NA,1,0.3,0.7,3,2,11,1,NA
fcp-trial,97,1093018,0.0-20.0-0.0,voc_e2,11742,"[{""event"":""fullscreenenter"",""trial"":1,""time"":4186}]",NA,NA,NA,NA,NA,1,#D8271C,#741CD8,10,10,0,38,1,355.5,37,1,375.199999988079,10,0,experiment,NA,NA,2,0.5,0.5,5,4,12,1,NA
fcp-trial,98,1095134,0.0-21.0-0.0,voc_e2,11742,"[{""event"":""fullscreenenter"",""trial"":1,""time"":4186}]",NA,NA,NA,NA,NA,4,#D89F1C,#3386FF,0,10,0,38,1,255.40000000596046,37,1,346.8999999910593,0,0,experiment,NA,NA,0,0.1,0.9,1,0,13,1,NA
fcp-trial,99,1097560,0.0-22.0-0.0,voc_e2,11742,"[{""event"":""fullscreenenter"",""trial"":1,""time"":4186}]",NA,NA,NA,NA,NA,3,#3386FF,#D89F1C,10,0,1,38,1,368.5,37,1,540.7000000029802,10,1,experiment,NA,NA,0,0.9,0.1,0,1,14,1,NA
fcp-trial,100,1099494,0.0-23.0-0.0,voc_e2,11742,"[{""event"":""fullscreenenter"",""trial"":1,""time"":4186}]",NA,NA,NA,NA,NA,4,#FA92F8,#1CD855,0,0,0,38,1,120.40000000596046,37,1,310.70000000298023,0,0,experiment,NA,NA,1,0.3,0.7,3,2,15,1,NA
fcp-trial,101,1101598,0.0-24.0-0.0,voc_e2,11742,"[{""event"":""fullscreenenter"",""trial"":1,""time"":4186}]",NA,NA,NA,NA,NA,0,#3386FF,#D89F1C,10,0,1,38,1,312.90000000596046,37,1,273.69999998807907,10,1,experiment,NA,NA,0,0.9,0.1,0,1,16,1,NA
fcp-trial,102,1104307,0.0-25.0-0.0,voc_e2,11742,"[{""event"":""fullscreenenter"",""trial"":1,""time"":4186}]",NA,NA,NA,NA,NA,5,#741CD8,#D8271C,10,10,1,38,1,777.1999999880791,37,1,423.699999988079,10,1,experiment,NA,NA,2,0.5,0.5,4,5,17,1,NA
fcp-trial,103,1106882,0.0-26.0-0.0,voc_e2,11742,"[{""event"":""fullscreenenter"",""trial"":1,""time"":4186}]",NA,NA,NA,NA,NA,6,#D89F1C,#3386FF,0,10,0,38,1,584.2000000029802,37,1,481.5,0,0,experiment,NA,NA,0,0.1,0.9,1,0,18,1,NA
fcp-trial,104,1109149,0.0-27.0-0.0,voc_e2,11742,"[{""event"":""fullscreenenter"",""trial"":1,""time"":4186}]",NA,NA,NA,NA,NA,6,#741CD8,#D8271C,10,0,1,38,1,143.09999999403954,37,1,609,10,1,experiment,NA,NA,2,0.5,0.5,4,5,19,1,NA
fcp-trial,105,1111267,0.0-28.0-0.0,voc_e2,11742,"[{""event"":""fullscreenenter"",""trial"":1,""time"":4186}]",NA,NA,NA,NA,NA,1,#FA92F8,#1CD855,10,10,0,38,1,299,37,1,307.20000000298023,10,0,experiment,NA,NA,1,0.3,0.7,3,2,20,1,NA
fcp-trial,106,1113394,0.0-29.0-0.0,voc_e2,11742,"[{""event"":""fullscreenenter"",""trial"":1,""time"":4186}]",NA,NA,NA,NA,NA,5,#FA92F8,#1CD855,0,10,0,38,1,358.79999999701977,37,1,256.90000000596046,0,0,experiment,NA,NA,1,0.3,0.7,3,2,21,1,NA
fcp-trial,107,1115707,0.0-30.0-0.0,voc_e2,11742,"[{""event"":""fullscreenenter"",""trial"":1,""time"":4186}]",NA,NA,NA,NA,NA,3,#3386FF,#D89F1C,10,0,1,38,1,195.59999999403954,37,1,611.5999999940395,10,1,experiment,NA,NA,0,0.9,0.1,0,1,22,1,NA
fcp-trial,108,1117657,0.0-31.0-0.0,voc_e2,11742,"[{""event"":""fullscreenenter"",""trial"":1,""time"":4186}]",NA,NA,NA,NA,NA,4,#D8271C,#741CD8,0,0,0,38,1,162.20000000298023,37,1,282.20000000298023,0,0,experiment,NA,NA,2,0.5,0.5,5,4,23,1,NA
fcp-trial,109,1119832,0.0-32.0-0.0,voc_e2,11742,"[{""event"":""fullscreenenter"",""trial"":1,""time"":4186}]",NA,NA,NA,NA,NA,1,#FA92F8,#1CD855,0,10,0,38,1,272.1000000089407,37,1,393.6000000089407,0,0,experiment,NA,NA,1,0.3,0.7,3,2,24,1,NA
fcp-trial,110,1121910,0.0-33.0-0.0,voc_e2,11742,"[{""event"":""fullscreenenter"",""trial"":1,""time"":4186}]",NA,NA,NA,NA,NA,4,#3386FF,#D89F1C,10,0,1,38,1,96.90000000596046,37,1,471.29999999701977,10,1,experiment,NA,NA,0,0.9,0.1,0,1,25,1,NA
fcp-trial,111,1123994,0.0-34.0-0.0,voc_e2,11742,"[{""event"":""fullscreenenter"",""trial"":1,""time"":4186}]",NA,NA,NA,NA,NA,5,#FA92F8,#1CD855,10,0,0,38,1,143.1000000089407,37,1,432.59999999403954,10,0,experiment,NA,NA,1,0.3,0.7,3,2,26,1,NA
fcp-trial,112,1126002,0.0-35.0-0.0,voc_e2,11742,"[{""event"":""fullscreenenter"",""trial"":1,""time"":4186}]",NA,NA,NA,NA,NA,1,#3386FF,#D89F1C,10,10,1,38,1,231.79999999701977,37,1,268.29999999701977,10,1,experiment,NA,NA,0,0.9,0.1,0,1,27,1,NA
fcp-trial,113,1128114,0.0-36.0-0.0,voc_e2,11742,"[{""event"":""fullscreenenter"",""trial"":1,""time"":4186}]",NA,NA,NA,NA,NA,6,#741CD8,#D8271C,10,0,1,38,1,80.8999999910593,37,1,514.5,10,1,experiment,NA,NA,2,0.5,0.5,4,5,28,1,NA
fcp-trial,114,1130315,0.0-37.0-0.0,voc_e2,11742,"[{""event"":""fullscreenenter"",""trial"":1,""time"":4186}]",NA,NA,NA,NA,NA,2,#FA92F8,#1CD855,0,0,0,38,1,215.79999999701977,37,1,474.90000000596046,0,0,experiment,NA,NA,1,0.3,0.7,3,2,29,1,NA
fcp-trial,115,1132315,0.0-38.0-0.0,voc_e2,11742,"[{""event"":""fullscreenenter"",""trial"":1,""time"":4186}]",NA,NA,NA,NA,NA,1,#D8271C,#741CD8,10,10,0,38,1,203.3999999910593,37,1,278.5,10,0,experiment,NA,NA,2,0.5,0.5,5,4,30,1,NA
fcp-trial,116,1134640,0.0-39.0-0.0,voc_e2,11742,"[{""event"":""fullscreenenter"",""trial"":1,""time"":4186}]",NA,NA,NA,NA,NA,0,#FA92F8,#1CD855,0,10,0,38,1,85,37,1,729,0,0,experiment,NA,NA,1,0.3,0.7,3,2,31,1,NA
fcp-trial,117,1136881,0.0-40.0-0.0,voc_e2,11742,"[{""event"":""fullscreenenter"",""trial"":1,""time"":4186}]",NA,NA,NA,NA,NA,0,#D89F1C,#3386FF,0,10,0,38,1,338.5,37,1,393.79999999701977,0,0,experiment,NA,NA,0,0.1,0.9,1,0,32,1,NA
fcp-trial,118,1138823,0.0-41.0-0.0,voc_e2,11742,"[{""event"":""fullscreenenter"",""trial"":1,""time"":4186}]",NA,NA,NA,NA,NA,3,#741CD8,#D8271C,10,0,1,38,1,100.90000000596046,37,1,328.90000000596046,10,1,experiment,NA,NA,2,0.5,0.5,4,5,33,1,NA
fcp-trial,119,1140951,0.0-42.0-0.0,voc_e2,11742,"[{""event"":""fullscreenenter"",""trial"":1,""time"":4186}]",NA,NA,NA,NA,NA,0,#D8271C,#741CD8,0,10,0,38,1,311.09999999403954,37,1,307.70000000298023,0,0,experiment,NA,NA,2,0.5,0.5,5,4,34,1,NA
fcp-trial,120,1144067,0.0-43.0-0.0,voc_e2,11742,"[{""event"":""fullscreenenter"",""trial"":1,""time"":4186}]",NA,NA,NA,NA,NA,2,#D89F1C,#3386FF,10,10,0,38,1,1194.7999999970198,37,1,411.3999999910593,10,0,experiment,NA,NA,0,0.1,0.9,1,0,35,1,NA
fcp-trial,121,1146362,0.0-44.0-0.0,voc_e2,11742,"[{""event"":""fullscreenenter"",""trial"":1,""time"":4186}]",NA,NA,NA,NA,NA,6,#1CD855,#FA92F8,10,10,1,38,1,354.20000000298023,37,1,429.8999999910593,10,1,experiment,NA,NA,1,0.7,0.3,2,3,36,1,NA
fcp-trial,122,1148474,0.0-45.0-0.0,voc_e2,11742,"[{""event"":""fullscreenenter"",""trial"":1,""time"":4186}]",NA,NA,NA,NA,NA,5,#741CD8,#D8271C,10,0,1,38,1,242.09999999403954,37,1,355,10,1,experiment,NA,NA,2,0.5,0.5,4,5,37,1,NA
fcp-trial,123,1150565,0.0-46.0-0.0,voc_e2,11742,"[{""event"":""fullscreenenter"",""trial"":1,""time"":4186}]",NA,NA,NA,NA,NA,3,#1CD855,#FA92F8,10,0,1,38,1,110.79999999701977,37,1,470.09999999403954,10,1,experiment,NA,NA,1,0.7,0.3,2,3,38,1,NA
fcp-trial,124,1152851,0.0-47.0-0.0,voc_e2,11742,"[{""event"":""fullscreenenter"",""trial"":1,""time"":4186}]",NA,NA,NA,NA,NA,5,#3386FF,#D89F1C,10,0,1,38,1,255.79999999701977,37,1,523,10,1,experiment,NA,NA,0,0.9,0.1,0,1,39,1,NA
fcp-trial,125,1154831,0.0-48.0-0.0,voc_e2,11742,"[{""event"":""fullscreenenter"",""trial"":1,""time"":4186}]",NA,NA,NA,NA,NA,4,#FA92F8,#1CD855,0,10,0,38,1,60.6000000089407,37,1,412.5,0,0,experiment,NA,NA,1,0.3,0.7,3,2,40,1,NA
fcp-trial,126,1157190,0.0-49.0-0.0,voc_e2,11742,"[{""event"":""fullscreenenter"",""trial"":1,""time"":4186}]",NA,NA,NA,NA,NA,2,#741CD8,#D8271C,0,10,1,38,1,305.59999999403954,37,1,538.6999999880791,0,1,experiment,NA,NA,2,0.5,0.5,4,5,41,1,NA
fcp-trial,127,1159400,0.0-50.0-0.0,voc_e2,11742,"[{""event"":""fullscreenenter"",""trial"":1,""time"":4186}]",NA,NA,NA,NA,NA,6,#3386FF,#D89F1C,10,0,1,38,1,188.90000000596046,37,1,518.9000000059605,10,1,experiment,NA,NA,0,0.9,0.1,0,1,42,1,NA
fcp-trial,128,1162107,0.0-51.0-0.0,voc_e2,11742,"[{""event"":""fullscreenenter"",""trial"":1,""time"":4186}]",NA,NA,NA,NA,NA,6,#D89F1C,#3386FF,0,10,0,38,1,615.7000000029802,37,1,580,0,0,experiment,NA,NA,0,0.1,0.9,1,0,43,1,NA
fcp-trial,129,1164271,0.0-52.0-0.0,voc_e2,11742,"[{""event"":""fullscreenenter"",""trial"":1,""time"":4186}]",NA,NA,NA,NA,NA,2,#741CD8,#D8271C,10,10,1,38,1,152.90000000596046,37,1,495.8999999910593,10,1,experiment,NA,NA,2,0.5,0.5,4,5,44,1,NA
fcp-trial,130,1166522,0.0-53.0-0.0,voc_e2,11742,"[{""event"":""fullscreenenter"",""trial"":1,""time"":4186}]",NA,NA,NA,NA,NA,2,#1CD855,#FA92F8,10,0,1,38,1,226,37,1,512.3999999910593,10,1,experiment,NA,NA,1,0.7,0.3,2,3,45,1,NA
fcp-trial,131,1168476,0.0-54.0-0.0,voc_e2,11742,"[{""event"":""fullscreenenter"",""trial"":1,""time"":4186}]",NA,NA,NA,NA,NA,5,#D89F1C,#3386FF,0,10,0,38,1,47.900000005960464,37,1,397.1000000089407,0,0,experiment,NA,NA,0,0.1,0.9,1,0,46,2,NA
fcp-trial,132,1170820,0.0-55.0-0.0,voc_e2,11742,"[{""event"":""fullscreenenter"",""trial"":1,""time"":4186}]",NA,NA,NA,NA,NA,4,#FA92F8,#1CD855,0,0,0,38,1,294.40000000596046,37,1,538,0,0,experiment,NA,NA,1,0.3,0.7,3,2,47,2,NA
fcp-trial,133,1172794,0.0-56.0-0.0,voc_e2,11742,"[{""event"":""fullscreenenter"",""trial"":1,""time"":4186}]",NA,NA,NA,NA,NA,4,#741CD8,#D8271C,10,0,1,38,1,147.1000000089407,37,1,320,10,1,experiment,NA,NA,2,0.5,0.5,4,5,48,2,NA
fcp-trial,134,1174662,0.0-57.0-0.0,voc_e2,11742,"[{""event"":""fullscreenenter"",""trial"":1,""time"":4186}]",NA,NA,NA,NA,NA,1,#741CD8,#D8271C,10,0,1,38,1,28,37,1,335.29999999701977,10,1,experiment,NA,NA,2,0.5,0.5,4,5,49,2,NA
fcp-trial,135,1176457,0.0-58.0-0.0,voc_e2,11742,"[{""event"":""fullscreenenter"",""trial"":1,""time"":4186}]",NA,NA,NA,NA,NA,0,#D89F1C,#3386FF,0,10,0,38,1,7,37,1,277.29999999701977,0,0,experiment,NA,NA,0,0.1,0.9,1,0,50,2,NA
fcp-trial,136,1178407,0.0-59.0-0.0,voc_e2,11742,"[{""event"":""fullscreenenter"",""trial"":1,""time"":4186}]",NA,NA,NA,NA,NA,6,#FA92F8,#1CD855,10,10,0,38,1,66.5,37,1,372.5,10,0,experiment,NA,NA,1,0.3,0.7,3,2,51,2,NA
fcp-trial,137,1180365,0.0-60.0-0.0,voc_e2,11742,"[{""event"":""fullscreenenter"",""trial"":1,""time"":4186}]",NA,NA,NA,NA,NA,3,#D8271C,#741CD8,10,0,0,38,1,192.5,37,1,257.1000000089407,10,0,experiment,NA,NA,2,0.5,0.5,5,4,52,2,NA
fcp-trial,138,1182357,0.0-61.0-0.0,voc_e2,11742,"[{""event"":""fullscreenenter"",""trial"":1,""time"":4186}]",NA,NA,NA,NA,NA,3,#1CD855,#FA92F8,0,0,1,38,1,82.40000000596046,37,1,393.79999999701977,0,1,experiment,NA,NA,1,0.7,0.3,2,3,53,2,NA
fcp-trial,139,1184790,0.0-62.0-0.0,voc_e2,11742,"[{""event"":""fullscreenenter"",""trial"":1,""time"":4186}]",NA,NA,NA,NA,NA,5,#1CD855,#FA92F8,0,0,1,38,1,115.20000000298023,37,1,799.8999999910593,0,1,experiment,NA,NA,1,0.7,0.3,2,3,54,2,NA
fcp-trial,140,1186776,0.0-63.0-0.0,voc_e2,11742,"[{""event"":""fullscreenenter"",""trial"":1,""time"":4186}]",NA,NA,NA,NA,NA,1,#3386FF,#D89F1C,10,0,1,38,1,195.8999999910593,37,1,283,10,1,experiment,NA,NA,0,0.9,0.1,0,1,55,2,NA
fcp-trial,141,1188876,0.0-64.0-0.0,voc_e2,11742,"[{""event"":""fullscreenenter"",""trial"":1,""time"":4186}]",NA,NA,NA,NA,NA,3,#D89F1C,#3386FF,10,10,0,38,1,200.30000001192093,37,1,393.1000000089407,10,0,experiment,NA,NA,0,0.1,0.9,1,0,56,2,NA
fcp-trial,142,1190923,0.0-65.0-0.0,voc_e2,11742,"[{""event"":""fullscreenenter"",""trial"":1,""time"":4186}]",NA,NA,NA,NA,NA,5,#D8271C,#741CD8,10,10,0,38,1,115.59999999403954,37,1,416.79999999701977,10,0,experiment,NA,NA,2,0.5,0.5,5,4,57,2,NA
fcp-trial,143,1193315,0.0-66.0-0.0,voc_e2,11742,"[{""event"":""fullscreenenter"",""trial"":1,""time"":4186}]",NA,NA,NA,NA,NA,4,#D89F1C,#3386FF,0,10,0,38,1,180.29999999701977,37,1,701.6999999880791,0,0,experiment,NA,NA,0,0.1,0.9,1,0,58,2,NA
fcp-trial,144,1195431,0.0-67.0-0.0,voc_e2,11742,"[{""event"":""fullscreenenter"",""trial"":1,""time"":4186}]",NA,NA,NA,NA,NA,1,#FA92F8,#1CD855,0,10,0,38,1,77.3999999910593,37,1,529.5999999940395,0,0,experiment,NA,NA,1,0.3,0.7,3,2,59,2,NA
fcp-trial,145,1197493,0.0-68.0-0.0,voc_e2,11742,"[{""event"":""fullscreenenter"",""trial"":1,""time"":4186}]",NA,NA,NA,NA,NA,6,#D8271C,#741CD8,0,0,0,38,1,55,37,1,502.79999999701977,0,0,experiment,NA,NA,2,0.5,0.5,5,4,60,2,NA
fcp-trial,146,1199523,0.0-69.0-0.0,voc_e2,11742,"[{""event"":""fullscreenenter"",""trial"":1,""time"":4186}]",NA,NA,NA,NA,NA,2,#3386FF,#D89F1C,10,0,1,38,1,25.5,37,1,499.3999999910593,10,1,experiment,NA,NA,0,0.9,0.1,0,1,61,2,NA
fcp-trial,147,1201548,0.0-70.0-0.0,voc_e2,11742,"[{""event"":""fullscreenenter"",""trial"":1,""time"":4186}]",NA,NA,NA,NA,NA,0,#741CD8,#D8271C,10,0,1,38,1,93.30000001192093,37,1,424.5,10,1,experiment,NA,NA,2,0.5,0.5,4,5,62,2,NA
fcp-trial,148,1203341,0.0-71.0-0.0,voc_e2,11742,"[{""event"":""fullscreenenter"",""trial"":1,""time"":4186}]",NA,NA,NA,NA,NA,0,#1CD855,#FA92F8,10,0,1,38,1,8.199999988079071,37,1,279.30000001192093,10,1,experiment,NA,NA,1,0.7,0.3,2,3,63,2,NA
fcp-trial,149,1205423,0.0-72.0-0.0,voc_e2,11742,"[{""event"":""fullscreenenter"",""trial"":1,""time"":4186}]",NA,NA,NA,NA,NA,1,#3386FF,#D89F1C,10,0,1,38,1,156.8999999910593,37,1,407.5,10,1,experiment,NA,NA,0,0.9,0.1,0,1,64,2,NA
fcp-trial,150,1207456,0.0-73.0-0.0,voc_e2,11742,"[{""event"":""fullscreenenter"",""trial"":1,""time"":4186}]",NA,NA,NA,NA,NA,1,#D8271C,#741CD8,10,10,0,38,1,48.599999994039536,37,1,473,10,0,experiment,NA,NA,2,0.5,0.5,5,4,65,2,NA
fcp-trial,151,1209473,0.0-74.0-0.0,voc_e2,11742,"[{""event"":""fullscreenenter"",""trial"":1,""time"":4186}]",NA,NA,NA,NA,NA,1,#FA92F8,#1CD855,0,10,0,38,1,187.6000000089407,37,1,315.19999998807907,0,0,experiment,NA,NA,1,0.3,0.7,3,2,66,2,NA
fcp-trial,152,1211592,0.0-75.0-0.0,voc_e2,11742,"[{""event"":""fullscreenenter"",""trial"":1,""time"":4186}]",NA,NA,NA,NA,NA,4,#1CD855,#FA92F8,10,0,1,38,1,223.59999999403954,37,1,382.70000000298023,10,1,experiment,NA,NA,1,0.7,0.3,2,3,67,2,NA
fcp-trial,153,1213606,0.0-76.0-0.0,voc_e2,11742,"[{""event"":""fullscreenenter"",""trial"":1,""time"":4186}]",NA,NA,NA,NA,NA,3,#3386FF,#D89F1C,10,0,1,38,1,150,37,1,358.20000000298023,10,1,experiment,NA,NA,0,0.9,0.1,0,1,68,2,NA
fcp-trial,154,1215458,0.0-77.0-0.0,voc_e2,11742,"[{""event"":""fullscreenenter"",""trial"":1,""time"":4186}]",NA,NA,NA,NA,NA,6,#D89F1C,#3386FF,0,10,0,38,1,12.200000002980232,37,1,332.79999999701977,0,0,experiment,NA,NA,0,0.1,0.9,1,0,69,2,NA
fcp-trial,155,1217716,0.0-78.0-0.0,voc_e2,11742,"[{""event"":""fullscreenenter"",""trial"":1,""time"":4186}]",NA,NA,NA,NA,NA,2,#D8271C,#741CD8,0,0,0,38,1,267,37,1,486,0,0,experiment,NA,NA,2,0.5,0.5,5,4,70,2,NA
fcp-trial,156,1219676,0.0-79.0-0.0,voc_e2,11742,"[{""event"":""fullscreenenter"",""trial"":1,""time"":4186}]",NA,NA,NA,NA,NA,5,#FA92F8,#1CD855,0,10,0,38,1,116.1000000089407,37,1,334.8999999910593,0,0,experiment,NA,NA,1,0.3,0.7,3,2,71,2,NA
fcp-trial,157,1221757,0.0-80.0-0.0,voc_e2,11742,"[{""event"":""fullscreenenter"",""trial"":1,""time"":4186}]",NA,NA,NA,NA,NA,2,#1CD855,#FA92F8,10,10,1,38,1,9.299999997019768,37,1,564.8999999910593,10,1,experiment,NA,NA,1,0.7,0.3,2,3,72,2,NA
fcp-trial,158,1224084,0.0-81.0-0.0,voc_e2,11742,"[{""event"":""fullscreenenter"",""trial"":1,""time"":4186}]",NA,NA,NA,NA,NA,3,#D8271C,#741CD8,10,0,0,38,1,250.79999999701977,37,1,566,10,0,experiment,NA,NA,2,0.5,0.5,5,4,73,2,NA
fcp-trial,159,1226165,0.0-82.0-0.0,voc_e2,11742,"[{""event"":""fullscreenenter"",""trial"":1,""time"":4186}]",NA,NA,NA,NA,NA,2,#3386FF,#D89F1C,10,0,1,38,1,86.5,37,1,489.3999999910593,10,1,experiment,NA,NA,0,0.9,0.1,0,1,74,2,NA
fcp-trial,160,1228598,0.0-83.0-0.0,voc_e2,11742,"[{""event"":""fullscreenenter"",""trial"":1,""time"":4186}]",NA,NA,NA,NA,NA,6,#FA92F8,#1CD855,0,10,0,38,1,430.40000000596046,37,1,497.70000000298023,0,0,experiment,NA,NA,1,0.3,0.7,3,2,75,2,NA
fcp-trial,161,1230716,0.0-84.0-0.0,voc_e2,11742,"[{""event"":""fullscreenenter"",""trial"":1,""time"":4186}]",NA,NA,NA,NA,NA,0,#1CD855,#FA92F8,10,10,1,38,1,5.200000002980232,37,1,605.3999999910593,10,1,experiment,NA,NA,1,0.7,0.3,2,3,76,2,NA
fcp-trial,162,1232918,0.0-85.0-0.0,voc_e2,11742,"[{""event"":""fullscreenenter"",""trial"":1,""time"":4186}]",NA,NA,NA,NA,NA,5,#3386FF,#D89F1C,10,0,1,38,1,280.70000000298023,37,1,411,10,1,experiment,NA,NA,0,0.9,0.1,0,1,77,2,NA
fcp-trial,163,1235814,0.0-86.0-0.0,voc_e2,11742,"[{""event"":""fullscreenenter"",""trial"":1,""time"":4186}]",NA,NA,NA,NA,NA,5,#741CD8,#D8271C,10,0,1,38,1,953.6999999880791,37,1,435,10,1,experiment,NA,NA,2,0.5,0.5,4,5,78,2,NA
fcp-trial,164,1237670,0.0-87.0-0.0,voc_e2,11742,"[{""event"":""fullscreenenter"",""trial"":1,""time"":4186}]",NA,NA,NA,NA,NA,0,#3386FF,#D89F1C,10,0,1,38,1,45.29999999701977,37,1,301.20000000298023,10,1,experiment,NA,NA,0,0.9,0.1,0,1,79,2,NA
fcp-trial,165,1239543,0.0-88.0-0.0,voc_e2,11742,"[{""event"":""fullscreenenter"",""trial"":1,""time"":4186}]",NA,NA,NA,NA,NA,3,#FA92F8,#1CD855,0,10,0,38,1,57.900000005960464,37,1,297.6000000089407,0,0,experiment,NA,NA,1,0.3,0.7,3,2,80,2,NA
fcp-trial,166,1241973,0.0-89.0-0.0,voc_e2,11742,"[{""event"":""fullscreenenter"",""trial"":1,""time"":4186}]",NA,NA,NA,NA,NA,0,#D8271C,#741CD8,0,10,0,38,1,67.90000000596046,37,1,856.8999999910593,0,0,experiment,NA,NA,2,0.5,0.5,5,4,81,2,NA
fcp-trial,167,1244802,0.0-90.0-0.0,voc_e2,11742,"[{""event"":""fullscreenenter"",""trial"":1,""time"":4186}]",NA,NA,NA,NA,NA,4,#741CD8,#D8271C,0,10,1,38,1,202.19999998807907,37,1,1119.2999999970198,0,1,experiment,NA,NA,2,0.5,0.5,4,5,82,2,NA
fcp-trial,168,1247331,0.0-91.0-0.0,voc_e2,11742,"[{""event"":""fullscreenenter"",""trial"":1,""time"":4186}]",NA,NA,NA,NA,NA,6,#741CD8,#D8271C,10,10,1,38,1,24.5,37,1,989,10,1,experiment,NA,NA,2,0.5,0.5,4,5,83,2,NA
fcp-trial,169,1249373,0.0-92.0-0.0,voc_e2,11742,"[{""event"":""fullscreenenter"",""trial"":1,""time"":4186}]",NA,NA,NA,NA,NA,4,#D89F1C,#3386FF,0,10,0,38,1,235.29999999701977,37,1,298.80000001192093,0,0,experiment,NA,NA,0,0.1,0.9,1,0,84,2,NA
fcp-trial,170,1251282,0.0-93.0-0.0,voc_e2,11742,"[{""event"":""fullscreenenter"",""trial"":1,""time"":4186}]",NA,NA,NA,NA,NA,1,#3386FF,#D89F1C,10,0,1,38,1,21.099999994039536,37,1,374.79999999701977,10,1,experiment,NA,NA,0,0.9,0.1,0,1,85,2,NA
fcp-trial,171,1254603,0.0-94.0-0.0,voc_e2,11742,"[{""event"":""fullscreenenter"",""trial"":1,""time"":4186}]",NA,NA,NA,NA,NA,2,#1CD855,#FA92F8,10,10,1,38,1,208.70000000298023,37,1,1598,10,1,experiment,NA,NA,1,0.7,0.3,2,3,86,2,NA
fcp-trial,172,1256770,0.0-95.0-0.0,voc_e2,11742,"[{""event"":""fullscreenenter"",""trial"":1,""time"":4186}]",NA,NA,NA,NA,NA,0,#FA92F8,#1CD855,0,10,0,38,1,48.70000000298023,37,1,612.8000000119209,0,0,experiment,NA,NA,1,0.3,0.7,3,2,87,2,NA
fcp-trial,173,1259056,0.0-96.0-0.0,voc_e2,11742,"[{""event"":""fullscreenenter"",""trial"":1,""time"":4186}]",NA,NA,NA,NA,NA,4,#D8271C,#741CD8,10,10,0,38,1,153.6000000089407,37,1,617.7999999970198,10,0,experiment,NA,NA,2,0.5,0.5,5,4,88,2,NA
fcp-trial,174,1262057,0.0-97.0-0.0,voc_e2,11742,"[{""event"":""fullscreenenter"",""trial"":1,""time"":4186}]",NA,NA,NA,NA,NA,0,#D89F1C,#3386FF,10,10,0,38,1,59.5,37,1,1433.5,10,0,experiment,NA,NA,0,0.1,0.9,1,0,89,2,NA
fcp-trial,175,1264381,0.0-98.0-0.0,voc_e2,11742,"[{""event"":""fullscreenenter"",""trial"":1,""time"":4186}]",NA,NA,NA,NA,NA,6,#3386FF,#D89F1C,0,0,1,38,1,219.79999999701977,37,1,589.5,0,1,experiment,NA,NA,0,0.9,0.1,0,1,90,2,NA
fcp-trial,176,1266321,0.0-99.0-0.0,voc_e2,11742,"[{""event"":""fullscreenenter"",""trial"":1,""time"":4186}]",NA,NA,NA,NA,NA,0,#741CD8,#D8271C,0,0,1,38,1,112.09999999403954,37,1,314.79999999701977,0,1,experiment,NA,NA,2,0.5,0.5,4,5,91,3,NA
fcp-trial,177,1268481,0.0-100.0-0.0,voc_e2,11742,"[{""event"":""fullscreenenter"",""trial"":1,""time"":4186}]",NA,NA,NA,NA,NA,6,#FA92F8,#1CD855,0,0,0,38,1,150.70000000298023,37,1,495.20000000298023,0,0,experiment,NA,NA,1,0.3,0.7,3,2,92,3,NA
fcp-trial,178,1270307,0.0-101.0-0.0,voc_e2,11742,"[{""event"":""fullscreenenter"",""trial"":1,""time"":4186}]",NA,NA,NA,NA,NA,5,#D89F1C,#3386FF,10,10,0,38,1,59,37,1,259.20000000298023,10,0,experiment,NA,NA,0,0.1,0.9,1,0,93,3,NA
fcp-trial,179,1272356,0.0-102.0-0.0,voc_e2,11742,"[{""event"":""fullscreenenter"",""trial"":1,""time"":4186}]",NA,NA,NA,NA,NA,1,#D8271C,#741CD8,0,0,0,38,1,49.5,37,1,490.70000000298023,0,0,experiment,NA,NA,2,0.5,0.5,5,4,94,3,NA
fcp-trial,180,1274459,0.0-103.0-0.0,voc_e2,11742,"[{""event"":""fullscreenenter"",""trial"":1,""time"":4186}]",NA,NA,NA,NA,NA,5,#1CD855,#FA92F8,0,0,1,38,1,70,37,1,520.2999999970198,0,1,experiment,NA,NA,1,0.7,0.3,2,3,95,3,NA
fcp-trial,181,1276606,0.0-104.0-0.0,voc_e2,11742,"[{""event"":""fullscreenenter"",""trial"":1,""time"":4186}]",NA,NA,NA,NA,NA,4,#3386FF,#D89F1C,10,0,1,38,1,83.59999999403954,37,1,557.2999999970198,10,1,experiment,NA,NA,0,0.9,0.1,0,1,96,3,NA
fcp-trial,182,1278810,0.0-105.0-0.0,voc_e2,11742,"[{""event"":""fullscreenenter"",""trial"":1,""time"":4186}]",NA,NA,NA,NA,NA,3,#3386FF,#D89F1C,10,0,1,38,1,283.5,37,1,414.5,10,1,experiment,NA,NA,0,0.9,0.1,0,1,97,3,NA
fcp-trial,183,1280934,0.0-106.0-0.0,voc_e2,11742,"[{""event"":""fullscreenenter"",""trial"":1,""time"":4186}]",NA,NA,NA,NA,NA,6,#741CD8,#D8271C,10,0,1,38,1,7.300000011920929,37,1,601.2999999970198,10,1,experiment,NA,NA,2,0.5,0.5,4,5,98,3,NA
fcp-trial,184,1283046,0.0-107.0-0.0,voc_e2,11742,"[{""event"":""fullscreenenter"",""trial"":1,""time"":4186}]",NA,NA,NA,NA,NA,3,#FA92F8,#1CD855,0,0,0,38,1,214.59999999403954,37,1,390.20000000298023,0,0,experiment,NA,NA,1,0.3,0.7,3,2,99,3,NA
fcp-trial,185,1285101,0.0-108.0-0.0,voc_e2,11742,"[{""event"":""fullscreenenter"",""trial"":1,""time"":4186}]",NA,NA,NA,NA,NA,5,#741CD8,#D8271C,0,0,1,38,1,170.59999999403954,37,1,378.20000000298023,0,1,experiment,NA,NA,2,0.5,0.5,4,5,100,3,NA
fcp-trial,186,1287276,0.0-109.0-0.0,voc_e2,11742,"[{""event"":""fullscreenenter"",""trial"":1,""time"":4186}]",NA,NA,NA,NA,NA,2,#3386FF,#D89F1C,10,0,1,38,1,214.90000000596046,37,1,450,10,1,experiment,NA,NA,0,0.9,0.1,0,1,101,3,NA
fcp-trial,187,1289604,0.0-110.0-0.0,voc_e2,11742,"[{""event"":""fullscreenenter"",""trial"":1,""time"":4186}]",NA,NA,NA,NA,NA,3,#D8271C,#741CD8,10,0,0,38,1,266.29999999701977,37,1,555.7000000029802,10,0,experiment,NA,NA,2,0.5,0.5,5,4,102,3,NA
fcp-trial,188,1292051,0.0-111.0-0.0,voc_e2,11742,"[{""event"":""fullscreenenter"",""trial"":1,""time"":4186}]",NA,NA,NA,NA,NA,1,#1CD855,#FA92F8,0,0,1,38,1,239.70000000298023,37,1,697.4000000059605,0,1,experiment,NA,NA,1,0.7,0.3,2,3,103,3,NA
fcp-trial,189,1294014,0.0-112.0-0.0,voc_e2,11742,"[{""event"":""fullscreenenter"",""trial"":1,""time"":4186}]",NA,NA,NA,NA,NA,2,#741CD8,#D8271C,10,10,1,38,1,100.09999999403954,37,1,349.1000000089407,10,1,experiment,NA,NA,2,0.5,0.5,4,5,104,3,NA
fcp-trial,190,1296120,0.0-113.0-0.0,voc_e2,11742,"[{""event"":""fullscreenenter"",""trial"":1,""time"":4186}]",NA,NA,NA,NA,NA,4,#1CD855,#FA92F8,10,0,1,38,1,132.79999999701977,37,1,461.699999988079,10,1,experiment,NA,NA,1,0.7,0.3,2,3,105,3,NA
audio-instructions,191,1327696,0.0-114.0,voc_e2,11742,"[{""event"":""fullscreenenter"",""trial"":1,""time"":4186}]",NA,26586.39999999106,static/audio/pause.wav,NA,0,NA,NA,NA,NA,NA,NA,NA,NA,NA,NA,NA,NA,NA,NA,NA,NA,NA,NA,NA,NA,NA,NA,NA,NA,NA
fcp-trial,192,1331286,0.0-115.0-0.0,voc_e2,11742,"[{""event"":""fullscreenenter"",""trial"":1,""time"":4186}]",NA,NA,NA,NA,NA,4,#741CD8,#D8271C,0,10,1,38,1,1659.5,37,1,418.199999988079,0,1,experiment,NA,NA,2,0.5,0.5,4,5,106,3,NA
fcp-trial,193,1333316,0.0-116.0-0.0,voc_e2,11742,"[{""event"":""fullscreenenter"",""trial"":1,""time"":4186}]",NA,NA,NA,NA,NA,3,#D89F1C,#3386FF,0,10,0,38,1,153.79999999701977,37,1,369.699999988079,0,0,experiment,NA,NA,0,0.1,0.9,1,0,107,3,NA
fcp-trial,194,1335485,0.0-117.0-0.0,voc_e2,11742,"[{""event"":""fullscreenenter"",""trial"":1,""time"":4186}]",NA,NA,NA,NA,NA,2,#D89F1C,#3386FF,0,10,0,38,1,247.40000000596046,37,1,404.59999999403954,0,0,experiment,NA,NA,0,0.1,0.9,1,0,108,3,NA
fcp-trial,195,1337345,0.0-118.0-0.0,voc_e2,11742,"[{""event"":""fullscreenenter"",""trial"":1,""time"":4186}]",NA,NA,NA,NA,NA,4,#FA92F8,#1CD855,0,10,0,38,1,74.1000000089407,37,1,276.80000001192093,0,0,experiment,NA,NA,1,0.3,0.7,3,2,109,3,NA
fcp-trial,196,1339531,0.0-119.0-0.0,voc_e2,11742,"[{""event"":""fullscreenenter"",""trial"":1,""time"":4186}]",NA,NA,NA,NA,NA,1,#FA92F8,#1CD855,0,10,0,38,1,148,37,1,529.0999999940395,0,0,experiment,NA,NA,1,0.3,0.7,3,2,110,3,NA
fcp-trial,197,1342657,0.0-120.0-0.0,voc_e2,11742,"[{""event"":""fullscreenenter"",""trial"":1,""time"":4186}]",NA,NA,NA,NA,NA,1,#D8271C,#741CD8,10,10,0,40,0,943.1000000089407,37,1,673.7999999970198,10,0,experiment,NA,NA,2,0.5,0.5,5,4,111,3,NA
fcp-trial,198,1346498,0.0-121.0-0.0,voc_e2,11742,"[{""event"":""fullscreenenter"",""trial"":1,""time"":4186}]",NA,NA,NA,NA,NA,6,#D8271C,#741CD8,0,0,0,40,0,265.90000000596046,39,0,2065.29999999702,0,1,experiment,NA,NA,2,0.5,0.5,5,4,112,3,NA
fcp-trial,199,1348895,0.0-122.0-0.0,voc_e2,11742,"[{""event"":""fullscreenenter"",""trial"":1,""time"":4186}]",NA,NA,NA,NA,NA,1,#D89F1C,#3386FF,0,10,0,38,1,600.8999999910593,37,1,279.20000000298023,0,0,experiment,NA,NA,0,0.1,0.9,1,0,113,3,NA
fcp-trial,200,1350873,0.0-123.0-0.0,voc_e2,11742,"[{""event"":""fullscreenenter"",""trial"":1,""time"":4186}]",NA,NA,NA,NA,NA,5,#FA92F8,#1CD855,0,10,0,38,1,110.30000001192093,37,1,356.6000000089407,0,0,experiment,NA,NA,1,0.3,0.7,3,2,114,3,NA
fcp-trial,201,1352763,0.0-124.0-0.0,voc_e2,11742,"[{""event"":""fullscreenenter"",""trial"":1,""time"":4186}]",NA,NA,NA,NA,NA,4,#D89F1C,#3386FF,0,0,0,38,1,61.8999999910593,37,1,315,0,0,experiment,NA,NA,0,0.1,0.9,1,0,115,3,NA
fcp-trial,202,1355454,0.0-125.0-0.0,voc_e2,11742,"[{""event"":""fullscreenenter"",""trial"":1,""time"":4186}]",NA,NA,NA,NA,NA,5,#3386FF,#D89F1C,10,0,1,38,1,398.20000000298023,37,1,783.9000000059605,10,1,experiment,NA,NA,0,0.9,0.1,0,1,116,3,NA
fcp-trial,203,1357432,0.0-126.0-0.0,voc_e2,11742,"[{""event"":""fullscreenenter"",""trial"":1,""time"":4186}]",NA,NA,NA,NA,NA,2,#D8271C,#741CD8,0,0,0,38,1,176,37,1,297.70000000298023,0,0,experiment,NA,NA,2,0.5,0.5,5,4,117,3,NA
fcp-trial,204,1362513,0.0-127.0-0.0,voc_e2,11742,"[{""event"":""fullscreenenter"",""trial"":1,""time"":4186}]",NA,NA,NA,NA,NA,2,#1CD855,#FA92F8,0,0,1,40,0,487.09999999403954,39,0,3079.29999999702,0,0,experiment,NA,NA,1,0.7,0.3,2,3,118,3,NA
fcp-trial,205,1364722,0.0-128.0-0.0,voc_e2,11742,"[{""event"":""fullscreenenter"",""trial"":1,""time"":4186}]",NA,NA,NA,NA,NA,6,#D89F1C,#3386FF,0,10,0,38,1,392.90000000596046,37,1,305.70000000298023,0,0,experiment,NA,NA,0,0.1,0.9,1,0,119,3,NA
fcp-trial,206,1366837,0.0-129.0-0.0,voc_e2,11742,"[{""event"":""fullscreenenter"",""trial"":1,""time"":4186}]",NA,NA,NA,NA,NA,6,#1CD855,#FA92F8,10,0,1,38,1,315.5,37,1,289.59999999403954,10,1,experiment,NA,NA,1,0.7,0.3,2,3,120,3,NA
fcp-trial,207,1368748,0.0-130.0-0.0,voc_e2,11742,"[{""event"":""fullscreenenter"",""trial"":1,""time"":4186}]",NA,NA,NA,NA,NA,0,#D8271C,#741CD8,10,10,0,38,1,94.09999999403954,37,1,300.5,10,0,experiment,NA,NA,2,0.5,0.5,5,4,121,3,NA
fcp-trial,208,1370859,0.0-131.0-0.0,voc_e2,11742,"[{""event"":""fullscreenenter"",""trial"":1,""time"":4186}]",NA,NA,NA,NA,NA,3,#741CD8,#D8271C,0,10,1,38,1,327.19999998807907,37,1,270.5,0,1,experiment,NA,NA,2,0.5,0.5,4,5,122,3,NA
fcp-trial,209,1372803,0.0-132.0-0.0,voc_e2,11742,"[{""event"":""fullscreenenter"",""trial"":1,""time"":4186}]",NA,NA,NA,NA,NA,0,#D89F1C,#3386FF,0,10,0,38,1,28.700000002980232,37,1,404.59999999403954,0,0,experiment,NA,NA,0,0.1,0.9,1,0,123,3,NA
fcp-trial,210,1374867,0.0-133.0-0.0,voc_e2,11742,"[{""event"":""fullscreenenter"",""trial"":1,""time"":4186}]",NA,NA,NA,NA,NA,3,#1CD855,#FA92F8,0,10,1,38,1,254.79999999701977,37,1,304.30000001192093,0,1,experiment,NA,NA,1,0.7,0.3,2,3,124,3,NA
fcp-trial,211,1377203,0.0-134.0-0.0,voc_e2,11742,"[{""event"":""fullscreenenter"",""trial"":1,""time"":4186}]",NA,NA,NA,NA,NA,0,#1CD855,#FA92F8,10,0,1,38,1,302,37,1,522.7000000029802,10,1,experiment,NA,NA,1,0.7,0.3,2,3,125,3,NA
fcp-trial,212,1379511,0.0-135.0-0.0,voc_e2,11742,"[{""event"":""fullscreenenter"",""trial"":1,""time"":4186}]",NA,NA,NA,NA,NA,5,#741CD8,#D8271C,10,0,1,38,1,229.90000000596046,37,1,564.6000000089407,10,1,experiment,NA,NA,2,0.5,0.5,4,5,126,3,NA
fcp-trial,213,1381946,0.0-136.0-0.0,voc_e2,11742,"[{""event"":""fullscreenenter"",""trial"":1,""time"":4186}]",NA,NA,NA,NA,NA,2,#741CD8,#D8271C,0,10,1,38,1,316.5,37,1,606.0999999940395,0,1,experiment,NA,NA,2,0.5,0.5,4,5,127,3,NA
fcp-trial,214,1384139,0.0-137.0-0.0,voc_e2,11742,"[{""event"":""fullscreenenter"",""trial"":1,""time"":4186}]",NA,NA,NA,NA,NA,4,#3386FF,#D89F1C,0,0,1,38,1,404.79999999701977,37,1,276.8999999910593,0,1,experiment,NA,NA,0,0.9,0.1,0,1,128,3,NA
fcp-trial,215,1386354,0.0-138.0-0.0,voc_e2,11742,"[{""event"":""fullscreenenter"",""trial"":1,""time"":4186}]",NA,NA,NA,NA,NA,4,#FA92F8,#1CD855,10,10,0,38,1,444.29999999701977,37,1,260.5,10,0,experiment,NA,NA,1,0.3,0.7,3,2,129,3,NA
fcp-trial,216,1388332,0.0-139.0-0.0,voc_e2,11742,"[{""event"":""fullscreenenter"",""trial"":1,""time"":4186}]",NA,NA,NA,NA,NA,1,#3386FF,#D89F1C,10,0,1,38,1,26.099999994039536,37,1,444.20000000298023,10,1,experiment,NA,NA,0,0.9,0.1,0,1,130,3,NA
fcp-trial,217,1390431,0.0-140.0-0.0,voc_e2,11742,"[{""event"":""fullscreenenter"",""trial"":1,""time"":4186}]",NA,NA,NA,NA,NA,5,#D8271C,#741CD8,0,10,0,38,1,146.40000000596046,37,1,443.29999999701977,0,0,experiment,NA,NA,2,0.5,0.5,5,4,131,3,NA
fcp-trial,218,1393104,0.0-141.0-0.0,voc_e2,11742,"[{""event"":""fullscreenenter"",""trial"":1,""time"":4186}]",NA,NA,NA,NA,NA,4,#D8271C,#741CD8,10,10,0,38,1,709.2999999970198,37,1,457.199999988079,10,0,experiment,NA,NA,2,0.5,0.5,5,4,132,3,NA
fcp-trial,219,1395221,0.0-142.0-0.0,voc_e2,11742,"[{""event"":""fullscreenenter"",""trial"":1,""time"":4186}]",NA,NA,NA,NA,NA,3,#1CD855,#FA92F8,0,0,1,38,1,141.70000000298023,37,1,466.699999988079,0,1,experiment,NA,NA,1,0.7,0.3,2,3,133,3,NA
fcp-trial,220,1397114,0.0-143.0-0.0,voc_e2,11742,"[{""event"":""fullscreenenter"",""trial"":1,""time"":4186}]",NA,NA,NA,NA,NA,2,#FA92F8,#1CD855,10,10,0,38,1,25.899999991059303,37,1,357.20000000298023,10,0,experiment,NA,NA,1,0.3,0.7,3,2,134,3,NA
fcp-trial,221,1399145,0.0-144.0-0.0,voc_e2,11742,"[{""event"":""fullscreenenter"",""trial"":1,""time"":4186}]",NA,NA,NA,NA,NA,5,#3386FF,#D89F1C,0,0,1,38,1,31.899999991059303,37,1,485.90000000596046,0,1,experiment,NA,NA,0,0.9,0.1,0,1,135,3,NA
fcp-trial,222,1401105,0.0-145.0-0.0,voc_e2,11742,"[{""event"":""fullscreenenter"",""trial"":1,""time"":4186}]",NA,NA,NA,NA,NA,5,#1CD855,#FA92F8,10,0,1,38,1,17.5,37,1,427.90000000596046,10,1,experiment,NA,NA,1,0.7,0.3,2,3,136,4,NA
fcp-trial,223,1404113,0.0-146.0-0.0,voc_e2,11742,"[{""event"":""fullscreenenter"",""trial"":1,""time"":4186}]",NA,NA,NA,NA,NA,1,#741CD8,#D8271C,10,10,1,38,1,400,37,1,1097.4000000059605,10,1,experiment,NA,NA,2,0.5,0.5,4,5,137,4,NA
fcp-trial,224,1406089,0.0-147.0-0.0,voc_e2,11742,"[{""event"":""fullscreenenter"",""trial"":1,""time"":4186}]",NA,NA,NA,NA,NA,6,#3386FF,#D89F1C,0,0,1,38,1,114.29999999701977,37,1,350.70000000298023,0,1,experiment,NA,NA,0,0.9,0.1,0,1,138,4,NA
fcp-trial,225,1408086,0.0-148.0-0.0,voc_e2,11742,"[{""event"":""fullscreenenter"",""trial"":1,""time"":4186}]",NA,NA,NA,NA,NA,0,#FA92F8,#1CD855,0,0,0,38,1,45,37,1,443.29999999701977,0,0,experiment,NA,NA,1,0.3,0.7,3,2,139,4,NA
fcp-trial,226,1410688,0.0-149.0-0.0,voc_e2,11742,"[{""event"":""fullscreenenter"",""trial"":1,""time"":4186}]",NA,NA,NA,NA,NA,0,#D8271C,#741CD8,0,10,0,38,1,325.20000000298023,37,1,769.3999999910593,0,0,experiment,NA,NA,2,0.5,0.5,5,4,140,4,NA
fcp-trial,227,1412580,0.0-150.0-0.0,voc_e2,11742,"[{""event"":""fullscreenenter"",""trial"":1,""time"":4186}]",NA,NA,NA,NA,NA,0,#D89F1C,#3386FF,0,10,0,38,1,125.3999999910593,37,1,257.1000000089407,0,0,experiment,NA,NA,0,0.1,0.9,1,0,141,4,NA
fcp-trial,228,1414608,0.0-151.0-0.0,voc_e2,11742,"[{""event"":""fullscreenenter"",""trial"":1,""time"":4186}]",NA,NA,NA,NA,NA,3,#D8271C,#741CD8,0,10,0,38,1,149.1000000089407,37,1,358.20000000298023,0,0,experiment,NA,NA,2,0.5,0.5,5,4,142,4,NA
fcp-trial,229,1416844,0.0-152.0-0.0,voc_e2,11742,"[{""event"":""fullscreenenter"",""trial"":1,""time"":4186}]",NA,NA,NA,NA,NA,1,#1CD855,#FA92F8,10,0,1,38,1,197.6000000089407,37,1,528.5999999940395,10,1,experiment,NA,NA,1,0.7,0.3,2,3,143,4,NA
fcp-trial,230,1418636,0.0-153.0-0.0,voc_e2,11742,"[{""event"":""fullscreenenter"",""trial"":1,""time"":4186}]",NA,NA,NA,NA,NA,2,#3386FF,#D89F1C,10,0,1,38,1,15.300000011920929,37,1,264.3999999910593,10,1,experiment,NA,NA,0,0.9,0.1,0,1,144,4,NA
fcp-trial,231,1420464,0.0-154.0-0.0,voc_e2,11742,"[{""event"":""fullscreenenter"",""trial"":1,""time"":4186}]",NA,NA,NA,NA,NA,6,#741CD8,#D8271C,0,10,1,38,1,38.599999994039536,37,1,276.80000001192093,0,1,experiment,NA,NA,2,0.5,0.5,4,5,145,4,NA
fcp-trial,232,1422396,0.0-155.0-0.0,voc_e2,11742,"[{""event"":""fullscreenenter"",""trial"":1,""time"":4186}]",NA,NA,NA,NA,NA,6,#FA92F8,#1CD855,0,10,0,38,1,117.79999999701977,37,1,297.1000000089407,0,0,experiment,NA,NA,1,0.3,0.7,3,2,146,4,NA
fcp-trial,233,1424752,0.0-156.0-0.0,voc_e2,11742,"[{""event"":""fullscreenenter"",""trial"":1,""time"":4186}]",NA,NA,NA,NA,NA,3,#D89F1C,#3386FF,0,10,0,38,1,280.69999998807907,37,1,569.2000000029802,0,0,experiment,NA,NA,0,0.1,0.9,1,0,147,4,NA
fcp-trial,234,1426720,0.0-157.0-0.0,voc_e2,11742,"[{""event"":""fullscreenenter"",""trial"":1,""time"":4186}]",NA,NA,NA,NA,NA,3,#1CD855,#FA92F8,10,10,1,38,1,145.79999999701977,37,1,312.1000000089407,10,1,experiment,NA,NA,1,0.7,0.3,2,3,148,4,NA
fcp-trial,235,1428917,0.0-158.0-0.0,voc_e2,11742,"[{""event"":""fullscreenenter"",""trial"":1,""time"":4186}]",NA,NA,NA,NA,NA,0,#D8271C,#741CD8,10,0,0,38,1,420.80000001192093,37,1,270.1000000089407,10,0,experiment,NA,NA,2,0.5,0.5,5,4,149,4,NA
fcp-trial,236,1431094,0.0-159.0-0.0,voc_e2,11742,"[{""event"":""fullscreenenter"",""trial"":1,""time"":4186}]",NA,NA,NA,NA,NA,1,#FA92F8,#1CD855,0,10,0,38,1,129.29999999701977,37,1,533.8000000119209,0,0,experiment,NA,NA,1,0.3,0.7,3,2,150,4,NA
fcp-trial,237,1433387,0.0-160.0-0.0,voc_e2,11742,"[{""event"":""fullscreenenter"",""trial"":1,""time"":4186}]",NA,NA,NA,NA,NA,2,#D89F1C,#3386FF,0,0,0,38,1,138.70000000298023,37,1,641,0,0,experiment,NA,NA,0,0.1,0.9,1,0,151,4,NA
fcp-trial,238,1435926,0.0-161.0-0.0,voc_e2,11742,"[{""event"":""fullscreenenter"",""trial"":1,""time"":4186}]",NA,NA,NA,NA,NA,3,#D89F1C,#3386FF,0,10,0,38,1,11.799999997019768,37,1,1021,0,0,experiment,NA,NA,0,0.1,0.9,1,0,152,4,NA
fcp-trial,239,1438194,0.0-162.0-0.0,voc_e2,11742,"[{""event"":""fullscreenenter"",""trial"":1,""time"":4186}]",NA,NA,NA,NA,NA,2,#FA92F8,#1CD855,10,10,0,38,1,199,37,1,558.7000000029802,10,0,experiment,NA,NA,1,0.3,0.7,3,2,153,4,NA
fcp-trial,240,1440076,0.0-163.0-0.0,voc_e2,11742,"[{""event"":""fullscreenenter"",""trial"":1,""time"":4186}]",NA,NA,NA,NA,NA,3,#D8271C,#741CD8,10,0,0,38,1,47.900000005960464,37,1,325.70000000298023,10,0,experiment,NA,NA,2,0.5,0.5,5,4,154,4,NA
fcp-trial,241,1442428,0.0-164.0-0.0,voc_e2,11742,"[{""event"":""fullscreenenter"",""trial"":1,""time"":4186}]",NA,NA,NA,NA,NA,6,#3386FF,#D89F1C,10,0,1,38,1,258,37,1,581.7000000029802,10,1,experiment,NA,NA,0,0.9,0.1,0,1,155,4,NA
fcp-trial,242,1444438,0.0-165.0-0.0,voc_e2,11742,"[{""event"":""fullscreenenter"",""trial"":1,""time"":4186}]",NA,NA,NA,NA,NA,6,#1CD855,#FA92F8,10,0,1,38,1,6.899999991059303,37,1,495,10,1,experiment,NA,NA,1,0.7,0.3,2,3,156,4,NA
fcp-trial,243,1446285,0.0-166.0-0.0,voc_e2,11742,"[{""event"":""fullscreenenter"",""trial"":1,""time"":4186}]",NA,NA,NA,NA,NA,1,#D8271C,#741CD8,0,0,0,38,1,51.6000000089407,37,1,285.79999999701977,0,0,experiment,NA,NA,2,0.5,0.5,5,4,157,4,NA
fcp-trial,244,1448804,0.0-167.0-0.0,voc_e2,11742,"[{""event"":""fullscreenenter"",""trial"":1,""time"":4186}]",NA,NA,NA,NA,NA,5,#D89F1C,#3386FF,0,10,0,38,1,133.90000000596046,37,1,871.8000000119209,0,0,experiment,NA,NA,0,0.1,0.9,1,0,158,4,NA
fcp-trial,245,1451181,0.0-168.0-0.0,voc_e2,11742,"[{""event"":""fullscreenenter"",""trial"":1,""time"":4186}]",NA,NA,NA,NA,NA,4,#FA92F8,#1CD855,10,10,0,38,1,3.5,37,1,869.2000000029802,10,0,experiment,NA,NA,1,0.3,0.7,3,2,159,4,NA
fcp-trial,246,1453185,0.0-169.0-0.0,voc_e2,11742,"[{""event"":""fullscreenenter"",""trial"":1,""time"":4186}]",NA,NA,NA,NA,NA,0,#FA92F8,#1CD855,0,10,0,38,1,191.79999999701977,37,1,306.29999999701977,0,0,experiment,NA,NA,1,0.3,0.7,3,2,160,4,NA
fcp-trial,247,1455568,0.0-170.0-0.0,voc_e2,11742,"[{""event"":""fullscreenenter"",""trial"":1,""time"":4186}]",NA,NA,NA,NA,NA,0,#D89F1C,#3386FF,0,10,0,38,1,231.1000000089407,37,1,637.3000000119209,0,0,experiment,NA,NA,0,0.1,0.9,1,0,161,4,NA
fcp-trial,248,1457690,0.0-171.0-0.0,voc_e2,11742,"[{""event"":""fullscreenenter"",""trial"":1,""time"":4186}]",NA,NA,NA,NA,NA,5,#D8271C,#741CD8,10,10,0,38,1,192.40000000596046,37,1,420.29999999701977,10,0,experiment,NA,NA,2,0.5,0.5,5,4,162,4,NA
fcp-trial,249,1459699,0.0-172.0-0.0,voc_e2,11742,"[{""event"":""fullscreenenter"",""trial"":1,""time"":4186}]",NA,NA,NA,NA,NA,4,#741CD8,#D8271C,10,0,1,38,1,170.3999999910593,37,1,334.59999999403954,10,1,experiment,NA,NA,2,0.5,0.5,4,5,163,4,NA
fcp-trial,250,1461718,0.0-173.0-0.0,voc_e2,11742,"[{""event"":""fullscreenenter"",""trial"":1,""time"":4186}]",NA,NA,NA,NA,NA,2,#D8271C,#741CD8,0,0,0,38,1,192.19999998807907,37,1,318.09999999403954,0,0,experiment,NA,NA,2,0.5,0.5,5,4,164,4,NA
fcp-trial,251,1464427,0.0-174.0-0.0,voc_e2,11742,"[{""event"":""fullscreenenter"",""trial"":1,""time"":4186}]",NA,NA,NA,NA,NA,5,#FA92F8,#1CD855,0,10,0,38,1,149,37,1,1052.4000000059605,0,0,experiment,NA,NA,1,0.3,0.7,3,2,165,4,NA
fcp-trial,252,1466441,0.0-175.0-0.0,voc_e2,11742,"[{""event"":""fullscreenenter"",""trial"":1,""time"":4186}]",NA,NA,NA,NA,NA,4,#3386FF,#D89F1C,10,0,1,38,1,221.90000000596046,37,1,282.09999999403954,10,1,experiment,NA,NA,0,0.9,0.1,0,1,166,4,NA
fcp-trial,253,1468624,0.0-176.0-0.0,voc_e2,11742,"[{""event"":""fullscreenenter"",""trial"":1,""time"":4186}]",NA,NA,NA,NA,NA,1,#D89F1C,#3386FF,10,10,0,38,1,124,37,1,545.7999999970198,10,0,experiment,NA,NA,0,0.1,0.9,1,0,167,4,NA
fcp-trial,254,1470691,0.0-177.0-0.0,voc_e2,11742,"[{""event"":""fullscreenenter"",""trial"":1,""time"":4186}]",NA,NA,NA,NA,NA,6,#741CD8,#D8271C,0,0,1,38,1,124.19999998807907,37,1,426.29999999701977,0,1,experiment,NA,NA,2,0.5,0.5,4,5,168,4,NA
fcp-trial,255,1472688,0.0-178.0-0.0,voc_e2,11742,"[{""event"":""fullscreenenter"",""trial"":1,""time"":4186}]",NA,NA,NA,NA,NA,5,#D89F1C,#3386FF,0,10,0,38,1,192,37,1,290,0,0,experiment,NA,NA,0,0.1,0.9,1,0,169,4,NA
fcp-trial,256,1474961,0.0-179.0-0.0,voc_e2,11742,"[{""event"":""fullscreenenter"",""trial"":1,""time"":4186}]",NA,NA,NA,NA,NA,1,#FA92F8,#1CD855,10,10,0,38,1,219.70000000298023,37,1,543.4000000059605,10,0,experiment,NA,NA,1,0.3,0.7,3,2,170,4,NA
fcp-trial,257,1477057,0.0-180.0-0.0,voc_e2,11742,"[{""event"":""fullscreenenter"",""trial"":1,""time"":4186}]",NA,NA,NA,NA,NA,0,#D8271C,#741CD8,0,10,0,38,1,222.90000000596046,37,1,362.90000000596046,0,0,experiment,NA,NA,2,0.5,0.5,5,4,171,4,NA
fcp-trial,258,1479343,0.0-181.0-0.0,voc_e2,11742,"[{""event"":""fullscreenenter"",""trial"":1,""time"":4186}]",NA,NA,NA,NA,NA,5,#D8271C,#741CD8,0,0,0,38,1,226.29999999701977,37,1,547,0,0,experiment,NA,NA,2,0.5,0.5,5,4,172,4,NA
fcp-trial,259,1481909,0.0-182.0-0.0,voc_e2,11742,"[{""event"":""fullscreenenter"",""trial"":1,""time"":4186}]",NA,NA,NA,NA,NA,0,#D89F1C,#3386FF,0,10,0,38,1,263.20000000298023,37,1,793.1000000089407,0,0,experiment,NA,NA,0,0.1,0.9,1,0,173,4,NA
fcp-trial,260,1484058,0.0-183.0-0.0,voc_e2,11742,"[{""event"":""fullscreenenter"",""trial"":1,""time"":4186}]",NA,NA,NA,NA,NA,4,#741CD8,#D8271C,10,10,1,38,1,48.80000001192093,37,1,580.8999999910593,10,1,experiment,NA,NA,2,0.5,0.5,4,5,174,4,NA
fcp-trial,261,1486460,0.0-184.0-0.0,voc_e2,11742,"[{""event"":""fullscreenenter"",""trial"":1,""time"":4186}]",NA,NA,NA,NA,NA,5,#FA92F8,#1CD855,0,0,0,38,1,265.70000000298023,37,1,627.0999999940395,0,0,experiment,NA,NA,1,0.3,0.7,3,2,175,4,NA
fcp-trial,262,1489632,0.0-185.0-0.0,voc_e2,11742,"[{""event"":""fullscreenenter"",""trial"":1,""time"":4186}]",NA,NA,NA,NA,NA,1,#3386FF,#D89F1C,10,0,1,38,1,246.90000000596046,37,1,1416.5,10,1,experiment,NA,NA,0,0.9,0.1,0,1,176,4,NA
fcp-trial,263,1494092,0.0-186.0-0.0,voc_e2,11742,"[{""event"":""fullscreenenter"",""trial"":1,""time"":4186}]",NA,NA,NA,NA,NA,1,#741CD8,#D8271C,10,10,1,40,0,34.5,39,0,2916.29999999702,10,0,experiment,NA,NA,2,0.5,0.5,4,5,177,4,NA
fcp-trial,264,1496093,0.0-187.0-0.0,voc_e2,11742,"[{""event"":""fullscreenenter"",""trial"":1,""time"":4186}]",NA,NA,NA,NA,NA,2,#3386FF,#D89F1C,10,0,1,38,1,207,37,1,285.70000000298023,10,1,experiment,NA,NA,0,0.9,0.1,0,1,178,4,NA
fcp-trial,265,1498310,0.0-188.0-0.0,voc_e2,11742,"[{""event"":""fullscreenenter"",""trial"":1,""time"":4186}]",NA,NA,NA,NA,NA,2,#FA92F8,#1CD855,0,10,0,38,1,427.40000000596046,37,1,284,0,0,experiment,NA,NA,1,0.3,0.7,3,2,179,4,NA
fcp-trial,266,1500557,0.0-189.0-0.0,voc_e2,11742,"[{""event"":""fullscreenenter"",""trial"":1,""time"":4186}]",NA,NA,NA,NA,NA,3,#D8271C,#741CD8,0,10,0,38,1,322,37,1,416.29999999701977,0,0,experiment,NA,NA,2,0.5,0.5,5,4,180,4,NA
fcp-trial,267,1502665,0.0-190.0-0.0,voc_e2,11742,"[{""event"":""fullscreenenter"",""trial"":1,""time"":4186}]",NA,NA,NA,NA,NA,6,#741CD8,#D8271C,10,10,1,38,1,72.70000000298023,37,1,523.7999999970198,10,1,experiment,NA,NA,2,0.5,0.5,4,5,181,5,NA
fcp-trial,268,1504582,0.0-191.0-0.0,voc_e2,11742,"[{""event"":""fullscreenenter"",""trial"":1,""time"":4186}]",NA,NA,NA,NA,NA,3,#FA92F8,#1CD855,0,10,0,38,1,84.59999999403954,37,1,320.19999998807907,0,0,experiment,NA,NA,1,0.3,0.7,3,2,182,5,NA
fcp-trial,269,1506538,0.0-192.0-0.0,voc_e2,11742,"[{""event"":""fullscreenenter"",""trial"":1,""time"":4186}]",NA,NA,NA,NA,NA,6,#3386FF,#D89F1C,10,0,1,38,1,26.30000001192093,37,1,419.5,10,1,experiment,NA,NA,0,0.9,0.1,0,1,183,5,NA
fcp-trial,270,1509092,0.0-193.0-0.0,voc_e2,11742,"[{""event"":""fullscreenenter"",""trial"":1,""time"":4186}]",NA,NA,NA,NA,NA,0,#1CD855,#FA92F8,10,0,1,38,1,440,37,1,600.7999999970198,10,1,experiment,NA,NA,1,0.7,0.3,2,3,184,5,NA
fcp-trial,271,1511247,0.0-194.0-0.0,voc_e2,11742,"[{""event"":""fullscreenenter"",""trial"":1,""time"":4186}]",NA,NA,NA,NA,NA,4,#3386FF,#D89F1C,10,0,1,38,1,64.79999999701977,37,1,578.1000000089407,10,1,experiment,NA,NA,0,0.9,0.1,0,1,185,5,NA
fcp-trial,272,1513342,0.0-195.0-0.0,voc_e2,11742,"[{""event"":""fullscreenenter"",""trial"":1,""time"":4186}]",NA,NA,NA,NA,NA,2,#741CD8,#D8271C,10,0,1,38,1,144.8999999910593,37,1,442.70000000298023,10,1,experiment,NA,NA,2,0.5,0.5,4,5,186,5,NA
fcp-trial,273,1515673,0.0-196.0-0.0,voc_e2,11742,"[{""event"":""fullscreenenter"",""trial"":1,""time"":4186}]",NA,NA,NA,NA,NA,6,#1CD855,#FA92F8,10,10,1,38,1,14.200000002980232,37,1,800.7000000029802,10,1,experiment,NA,NA,1,0.7,0.3,2,3,187,5,NA
fcp-trial,274,1521260,0.0-197.0-0.0,voc_e2,11742,"[{""event"":""fullscreenenter"",""trial"":1,""time"":4186}]",NA,NA,NA,NA,NA,4,#1CD855,#FA92F8,10,10,1,38,1,131.59999999403954,37,1,3945,10,1,experiment,NA,NA,1,0.7,0.3,2,3,188,5,NA
fcp-trial,275,1523243,0.0-198.0-0.0,voc_e2,11742,"[{""event"":""fullscreenenter"",""trial"":1,""time"":4186}]",NA,NA,NA,NA,NA,3,#3386FF,#D89F1C,10,0,1,38,1,184.3999999910593,37,1,290.90000000596046,10,1,experiment,NA,NA,0,0.9,0.1,0,1,189,5,NA
fcp-trial,276,1525244,0.0-199.0-0.0,voc_e2,11742,"[{""event"":""fullscreenenter"",""trial"":1,""time"":4186}]",NA,NA,NA,NA,NA,5,#1CD855,#FA92F8,10,0,1,38,1,228.69999998807907,37,1,265.80000001192093,10,1,experiment,NA,NA,1,0.7,0.3,2,3,190,5,NA
fcp-trial,277,1527327,0.0-200.0-0.0,voc_e2,11742,"[{""event"":""fullscreenenter"",""trial"":1,""time"":4186}]",NA,NA,NA,NA,NA,6,#3386FF,#D89F1C,10,0,1,38,1,77.59999999403954,37,1,498.79999999701977,10,1,experiment,NA,NA,0,0.9,0.1,0,1,191,5,NA
fcp-trial,278,1529775,0.0-201.0-0.0,voc_e2,11742,"[{""event"":""fullscreenenter"",""trial"":1,""time"":4186}]",NA,NA,NA,NA,NA,0,#FA92F8,#1CD855,0,0,0,38,1,234.5,37,1,701.0999999940395,0,0,experiment,NA,NA,1,0.3,0.7,3,2,192,5,NA
fcp-trial,279,1531758,0.0-202.0-0.0,voc_e2,11742,"[{""event"":""fullscreenenter"",""trial"":1,""time"":4186}]",NA,NA,NA,NA,NA,4,#FA92F8,#1CD855,10,10,0,38,1,60,37,1,415.90000000596046,10,0,experiment,NA,NA,1,0.3,0.7,3,2,193,5,NA
fcp-trial,280,1533743,0.0-203.0-0.0,voc_e2,11742,"[{""event"":""fullscreenenter"",""trial"":1,""time"":4186}]",NA,NA,NA,NA,NA,5,#3386FF,#D89F1C,10,0,1,38,1,117.8999999910593,37,1,353.79999999701977,10,1,experiment,NA,NA,0,0.9,0.1,0,1,194,5,NA
fcp-trial,281,1536260,0.0-204.0-0.0,voc_e2,11742,"[{""event"":""fullscreenenter"",""trial"":1,""time"":4186}]",NA,NA,NA,NA,NA,6,#D8271C,#741CD8,0,10,0,38,1,259.5,37,1,743.7000000029802,0,0,experiment,NA,NA,2,0.5,0.5,5,4,195,5,NA
fcp-trial,282,1538619,0.0-205.0-0.0,voc_e2,11742,"[{""event"":""fullscreenenter"",""trial"":1,""time"":4186}]",NA,NA,NA,NA,NA,1,#1CD855,#FA92F8,10,0,1,38,1,173.09999999403954,37,1,673.2000000029802,10,1,experiment,NA,NA,1,0.7,0.3,2,3,196,5,NA
fcp-trial,283,1540676,0.0-206.0-0.0,voc_e2,11742,"[{""event"":""fullscreenenter"",""trial"":1,""time"":4186}]",NA,NA,NA,NA,NA,5,#741CD8,#D8271C,10,0,1,38,1,191.5,37,1,359.69999998807907,10,1,experiment,NA,NA,2,0.5,0.5,4,5,197,5,NA
fcp-trial,284,1542560,0.0-207.0-0.0,voc_e2,11742,"[{""event"":""fullscreenenter"",""trial"":1,""time"":4186}]",NA,NA,NA,NA,NA,2,#D89F1C,#3386FF,0,10,0,38,1,71.09999999403954,37,1,295.30000001192093,0,0,experiment,NA,NA,0,0.1,0.9,1,0,198,5,NA
fcp-trial,285,1544719,0.0-208.0-0.0,voc_e2,11742,"[{""event"":""fullscreenenter"",""trial"":1,""time"":4186}]",NA,NA,NA,NA,NA,3,#FA92F8,#1CD855,10,10,0,38,1,25.100000008940697,37,1,627,10,0,experiment,NA,NA,1,0.3,0.7,3,2,199,5,NA
fcp-trial,286,1547232,0.0-209.0-0.0,voc_e2,11742,"[{""event"":""fullscreenenter"",""trial"":1,""time"":4186}]",NA,NA,NA,NA,NA,0,#D8271C,#741CD8,0,10,0,38,1,378.5,37,1,624.5999999940395,0,0,experiment,NA,NA,2,0.5,0.5,5,4,200,5,NA
fcp-trial,287,1549526,0.0-210.0-0.0,voc_e2,11742,"[{""event"":""fullscreenenter"",""trial"":1,""time"":4186}]",NA,NA,NA,NA,NA,1,#D8271C,#741CD8,0,0,0,38,1,186.5,37,1,601.2999999970198,0,0,experiment,NA,NA,2,0.5,0.5,5,4,201,5,NA
fcp-trial,288,1551838,0.0-211.0-0.0,voc_e2,11742,"[{""event"":""fullscreenenter"",""trial"":1,""time"":4186}]",NA,NA,NA,NA,NA,0,#D89F1C,#3386FF,0,10,0,38,1,120.5,37,1,675.3999999910593,0,0,experiment,NA,NA,0,0.1,0.9,1,0,202,5,NA
fcp-trial,289,1554293,0.0-212.0-0.0,voc_e2,11742,"[{""event"":""fullscreenenter"",""trial"":1,""time"":4186}]",NA,NA,NA,NA,NA,3,#D89F1C,#3386FF,0,10,0,38,1,286.5,37,1,659.6000000089407,0,0,experiment,NA,NA,0,0.1,0.9,1,0,203,5,NA
fcp-trial,290,1556724,0.0-213.0-0.0,voc_e2,11742,"[{""event"":""fullscreenenter"",""trial"":1,""time"":4186}]",NA,NA,NA,NA,NA,2,#FA92F8,#1CD855,0,0,0,38,1,413.70000000298023,37,1,504.79999999701977,0,0,experiment,NA,NA,1,0.3,0.7,3,2,204,5,NA
fcp-trial,291,1558993,0.0-214.0-0.0,voc_e2,11742,"[{""event"":""fullscreenenter"",""trial"":1,""time"":4186}]",NA,NA,NA,NA,NA,4,#3386FF,#D89F1C,10,0,1,38,1,242.3999999910593,37,1,507.40000000596046,10,1,experiment,NA,NA,0,0.9,0.1,0,1,205,5,NA
fcp-trial,292,1561031,0.0-215.0-0.0,voc_e2,11742,"[{""event"":""fullscreenenter"",""trial"":1,""time"":4186}]",NA,NA,NA,NA,NA,4,#741CD8,#D8271C,0,10,1,38,1,21,37,1,502.8999999910593,0,1,experiment,NA,NA,2,0.5,0.5,4,5,206,5,NA
fcp-trial,293,1563032,0.0-216.0-0.0,voc_e2,11742,"[{""event"":""fullscreenenter"",""trial"":1,""time"":4186}]",NA,NA,NA,NA,NA,1,#D89F1C,#3386FF,0,10,0,38,1,194.20000000298023,37,1,297.70000000298023,0,0,experiment,NA,NA,0,0.1,0.9,1,0,207,5,NA
fcp-trial,294,1565181,0.0-217.0-0.0,voc_e2,11742,"[{""event"":""fullscreenenter"",""trial"":1,""time"":4186}]",NA,NA,NA,NA,NA,6,#1CD855,#FA92F8,10,0,1,38,1,191.5,37,1,453.90000000596046,10,1,experiment,NA,NA,1,0.7,0.3,2,3,208,5,NA
fcp-trial,295,1567260,0.0-218.0-0.0,voc_e2,11742,"[{""event"":""fullscreenenter"",""trial"":1,""time"":4186}]",NA,NA,NA,NA,NA,2,#D8271C,#741CD8,0,10,0,38,1,122,37,1,450.5,0,0,experiment,NA,NA,2,0.5,0.5,5,4,209,5,NA
fcp-trial,296,1569409,0.0-219.0-0.0,voc_e2,11742,"[{""event"":""fullscreenenter"",""trial"":1,""time"":4186}]",NA,NA,NA,NA,NA,3,#D8271C,#741CD8,10,10,0,38,1,350.40000000596046,37,1,294.40000000596046,10,0,experiment,NA,NA,2,0.5,0.5,5,4,210,5,NA
audio-instructions,297,1590355,0.0-220.0,voc_e2,11742,"[{""event"":""fullscreenenter"",""trial"":1,""time"":4186}]",NA,15966.10000000894,static/audio/pause.wav,NA,0,NA,NA,NA,NA,NA,NA,NA,NA,NA,NA,NA,NA,NA,NA,NA,NA,NA,NA,NA,NA,NA,NA,NA,NA,NA
fcp-trial,298,1594703,0.0-221.0-0.0,voc_e2,11742,"[{""event"":""fullscreenenter"",""trial"":1,""time"":4186}]",NA,NA,NA,NA,NA,1,#D8271C,#741CD8,0,0,0,38,1,1048.4000000059605,37,1,1772.7999999970198,0,0,experiment,NA,NA,2,0.5,0.5,5,4,211,5,NA
fcp-trial,299,1597106,0.0-222.0-0.0,voc_e2,11742,"[{""event"":""fullscreenenter"",""trial"":1,""time"":4186}]",NA,NA,NA,NA,NA,1,#D89F1C,#3386FF,0,10,0,38,1,388.90000000596046,37,1,499.79999999701977,0,0,experiment,NA,NA,0,0.1,0.9,1,0,212,5,NA
fcp-trial,300,1599922,0.0-223.0-0.0,voc_e2,11742,"[{""event"":""fullscreenenter"",""trial"":1,""time"":4186}]",NA,NA,NA,NA,NA,4,#1CD855,#FA92F8,0,0,1,38,1,780.2000000029802,37,1,517.3000000119209,0,1,experiment,NA,NA,1,0.7,0.3,2,3,213,5,NA
fcp-trial,301,1602170,0.0-224.0-0.0,voc_e2,11742,"[{""event"":""fullscreenenter"",""trial"":1,""time"":4186}]",NA,NA,NA,NA,NA,0,#1CD855,#FA92F8,0,0,1,38,1,287.1000000089407,37,1,439.09999999403954,0,1,experiment,NA,NA,1,0.7,0.3,2,3,214,5,NA
fcp-trial,302,1604364,0.0-225.0-0.0,voc_e2,11742,"[{""event"":""fullscreenenter"",""trial"":1,""time"":4186}]",NA,NA,NA,NA,NA,0,#D8271C,#741CD8,0,0,0,38,1,326.79999999701977,37,1,354.29999999701977,0,0,experiment,NA,NA,2,0.5,0.5,5,4,215,5,NA
fcp-trial,303,1606586,0.0-226.0-0.0,voc_e2,11742,"[{""event"":""fullscreenenter"",""trial"":1,""time"":4186}]",NA,NA,NA,NA,NA,3,#FA92F8,#1CD855,0,10,0,38,1,355.90000000596046,37,1,357.6000000089407,0,0,experiment,NA,NA,1,0.3,0.7,3,2,216,5,NA
fcp-trial,304,1609653,0.0-227.0-0.0,voc_e2,11742,"[{""event"":""fullscreenenter"",""trial"":1,""time"":4186}]",NA,NA,NA,NA,NA,6,#D89F1C,#3386FF,0,10,0,38,1,1185.7999999970198,37,1,369.300000011921,0,0,experiment,NA,NA,0,0.1,0.9,1,0,217,5,NA
fcp-trial,305,1612461,0.0-228.0-0.0,voc_e2,11742,"[{""event"":""fullscreenenter"",""trial"":1,""time"":4186}]",NA,NA,NA,NA,NA,4,#3386FF,#D89F1C,10,0,1,38,1,386.59999999403954,37,1,911.9000000059604,10,1,experiment,NA,NA,0,0.9,0.1,0,1,218,5,NA
fcp-trial,306,1614827,0.0-229.0-0.0,voc_e2,11742,"[{""event"":""fullscreenenter"",""trial"":1,""time"":4186}]",NA,NA,NA,NA,NA,3,#D8271C,#741CD8,10,10,0,38,1,57,37,1,799.5,10,0,experiment,NA,NA,2,0.5,0.5,5,4,219,5,NA
fcp-trial,307,1617931,0.0-230.0-0.0,voc_e2,11742,"[{""event"":""fullscreenenter"",""trial"":1,""time"":4186}]",NA,NA,NA,NA,NA,0,#3386FF,#D89F1C,10,0,1,38,1,1309.6000000089407,37,1,286.79999999701977,10,1,experiment,NA,NA,0,0.9,0.1,0,1,220,5,NA
fcp-trial,308,1620277,0.0-231.0-0.0,voc_e2,11742,"[{""event"":""fullscreenenter"",""trial"":1,""time"":4186}]",NA,NA,NA,NA,NA,2,#FA92F8,#1CD855,0,10,0,38,1,321.79999999701977,37,1,517,0,0,experiment,NA,NA,1,0.3,0.7,3,2,221,5,NA
fcp-trial,309,1622535,0.0-232.0-0.0,voc_e2,11742,"[{""event"":""fullscreenenter"",""trial"":1,""time"":4186}]",NA,NA,NA,NA,NA,5,#741CD8,#D8271C,10,0,1,38,1,293.09999999403954,37,1,452,10,1,experiment,NA,NA,2,0.5,0.5,4,5,222,5,NA
fcp-trial,310,1624802,0.0-233.0-0.0,voc_e2,11742,"[{""event"":""fullscreenenter"",""trial"":1,""time"":4186}]",NA,NA,NA,NA,NA,6,#1CD855,#FA92F8,10,0,1,38,1,332.5,37,1,419.6000000089407,10,1,experiment,NA,NA,1,0.7,0.3,2,3,223,5,NA
fcp-trial,311,1627502,0.0-234.0-0.0,voc_e2,11742,"[{""event"":""fullscreenenter"",""trial"":1,""time"":4186}]",NA,NA,NA,NA,NA,3,#3386FF,#D89F1C,10,0,1,38,1,66.6000000089407,37,1,1118.199999988079,10,1,experiment,NA,NA,0,0.9,0.1,0,1,224,5,NA
fcp-trial,312,1629554,0.0-235.0-0.0,voc_e2,11742,"[{""event"":""fullscreenenter"",""trial"":1,""time"":4186}]",NA,NA,NA,NA,NA,6,#741CD8,#D8271C,10,0,1,38,1,153.80000001192093,37,1,387.09999999403954,10,1,experiment,NA,NA,2,0.5,0.5,4,5,225,5,NA
fcp-trial,313,1632271,0.0-236.0-0.0,voc_e2,11742,"[{""event"":""fullscreenenter"",""trial"":1,""time"":4186}]",NA,NA,NA,NA,NA,1,#FA92F8,#1CD855,0,0,0,38,1,631.5,37,1,568.7000000029802,0,0,experiment,NA,NA,1,0.3,0.7,3,2,226,6,NA
fcp-trial,314,1634843,0.0-237.0-0.0,voc_e2,11742,"[{""event"":""fullscreenenter"",""trial"":1,""time"":4186}]",NA,NA,NA,NA,NA,2,#741CD8,#D8271C,0,0,1,38,1,336.20000000298023,37,1,721.5999999940395,0,1,experiment,NA,NA,2,0.5,0.5,4,5,227,6,NA
fcp-trial,315,1637369,0.0-238.0-0.0,voc_e2,11742,"[{""event"":""fullscreenenter"",""trial"":1,""time"":4186}]",NA,NA,NA,NA,NA,2,#D89F1C,#3386FF,0,10,0,38,1,182.1000000089407,37,1,828.5999999940395,0,0,experiment,NA,NA,0,0.1,0.9,1,0,228,6,NA
fcp-trial,316,1642395,0.0-239.0-0.0,voc_e2,11742,"[{""event"":""fullscreenenter"",""trial"":1,""time"":4186}]",NA,NA,NA,NA,NA,4,#741CD8,#D8271C,0,10,1,38,1,2851.5,37,1,658.9000000059605,0,1,experiment,NA,NA,2,0.5,0.5,4,5,229,6,NA
fcp-trial,317,1644685,0.0-240.0-0.0,voc_e2,11742,"[{""event"":""fullscreenenter"",""trial"":1,""time"":4186}]",NA,NA,NA,NA,NA,5,#1CD855,#FA92F8,10,0,1,38,1,275.20000000298023,37,1,504.09999999403954,10,1,experiment,NA,NA,1,0.7,0.3,2,3,230,6,NA
fcp-trial,318,1647064,0.0-241.0-0.0,voc_e2,11742,"[{""event"":""fullscreenenter"",""trial"":1,""time"":4186}]",NA,NA,NA,NA,NA,5,#D89F1C,#3386FF,0,10,0,38,1,323.1000000089407,37,1,537.7000000029802,0,0,experiment,NA,NA,0,0.1,0.9,1,0,231,6,NA
fcp-trial,319,1650290,0.0-242.0-0.0,voc_e2,11742,"[{""event"":""fullscreenenter"",""trial"":1,""time"":4186}]",NA,NA,NA,NA,NA,2,#1CD855,#FA92F8,10,10,1,38,1,121.09999999403954,37,1,1604.1000000089407,10,1,experiment,NA,NA,1,0.7,0.3,2,3,232,6,NA
fcp-trial,320,1653094,0.0-243.0-0.0,voc_e2,11742,"[{""event"":""fullscreenenter"",""trial"":1,""time"":4186}]",NA,NA,NA,NA,NA,3,#FA92F8,#1CD855,0,10,0,38,1,551.2999999970198,37,1,744,0,0,experiment,NA,NA,1,0.3,0.7,3,2,233,6,NA
fcp-trial,321,1655832,0.0-244.0-0.0,voc_e2,11742,"[{""event"":""fullscreenenter"",""trial"":1,""time"":4186}]",NA,NA,NA,NA,NA,1,#D89F1C,#3386FF,0,0,0,38,1,461.90000000596046,37,1,761.4000000059605,0,0,experiment,NA,NA,0,0.1,0.9,1,0,234,6,NA
fcp-trial,322,1658126,0.0-245.0-0.0,voc_e2,11742,"[{""event"":""fullscreenenter"",""trial"":1,""time"":4186}]",NA,NA,NA,NA,NA,2,#D8271C,#741CD8,0,0,0,38,1,303.6000000089407,37,1,473.40000000596046,0,0,experiment,NA,NA,2,0.5,0.5,5,4,235,6,NA
fcp-trial,323,1660424,0.0-246.0-0.0,voc_e2,11742,"[{""event"":""fullscreenenter"",""trial"":1,""time"":4186}]",NA,NA,NA,NA,NA,4,#1CD855,#FA92F8,10,0,1,38,1,376.5,37,1,410.79999999701977,10,1,experiment,NA,NA,1,0.7,0.3,2,3,236,6,NA
fcp-trial,324,1663332,0.0-247.0-0.0,voc_e2,11742,"[{""event"":""fullscreenenter"",""trial"":1,""time"":4186}]",NA,NA,NA,NA,NA,6,#D89F1C,#3386FF,0,10,0,38,1,976.1000000089407,37,1,421.6000000089407,0,0,experiment,NA,NA,0,0.1,0.9,1,0,237,6,NA
fcp-trial,325,1665666,0.0-248.0-0.0,voc_e2,11742,"[{""event"":""fullscreenenter"",""trial"":1,""time"":4186}]",NA,NA,NA,NA,NA,5,#3386FF,#D89F1C,0,0,1,38,1,407.5,39,0,408.70000000298023,0,0,experiment,NA,NA,0,0.9,0.1,0,1,238,6,NA
fcp-trial,326,1668344,0.0-249.0-0.0,voc_e2,11742,"[{""event"":""fullscreenenter"",""trial"":1,""time"":4186}]",NA,NA,NA,NA,NA,4,#741CD8,#D8271C,10,10,1,38,1,709.5,39,0,452.40000000596046,10,0,experiment,NA,NA,2,0.5,0.5,4,5,239,6,NA
fcp-trial,327,1670632,0.0-250.0-0.0,voc_e2,11742,"[{""event"":""fullscreenenter"",""trial"":1,""time"":4186}]",NA,NA,NA,NA,NA,5,#1CD855,#FA92F8,10,0,1,38,1,330,39,0,453.5,0,0,experiment,NA,NA,1,0.7,0.3,2,3,240,6,NA
fcp-trial,328,1672999,0.0-251.0-0.0,voc_e2,11742,"[{""event"":""fullscreenenter"",""trial"":1,""time"":4186}]",NA,NA,NA,NA,NA,6,#741CD8,#D8271C,0,0,1,38,1,456.09999999403954,39,0,396.699999988079,0,0,experiment,NA,NA,2,0.5,0.5,4,5,241,6,NA
fcp-trial,329,1675280,0.0-252.0-0.0,voc_e2,11742,"[{""event"":""fullscreenenter"",""trial"":1,""time"":4186}]",NA,NA,NA,NA,NA,3,#D8271C,#741CD8,10,0,0,38,1,349,39,0,421.90000000596046,0,1,experiment,NA,NA,2,0.5,0.5,5,4,242,6,NA
fcp-trial,330,1677415,0.0-253.0-0.0,voc_e2,11742,"[{""event"":""fullscreenenter"",""trial"":1,""time"":4186}]",NA,NA,NA,NA,NA,4,#D89F1C,#3386FF,0,10,0,38,1,203.59999999403954,39,0,420.79999999701977,10,1,experiment,NA,NA,0,0.1,0.9,1,0,243,6,NA
fcp-trial,331,1679579,0.0-254.0-0.0,voc_e2,11742,"[{""event"":""fullscreenenter"",""trial"":1,""time"":4186}]",NA,NA,NA,NA,NA,1,#1CD855,#FA92F8,0,0,1,38,1,212.6000000089407,39,0,437.29999999701977,0,0,experiment,NA,NA,1,0.7,0.3,2,3,244,6,NA
fcp-trial,332,1682485,0.0-255.0-0.0,voc_e2,11742,"[{""event"":""fullscreenenter"",""trial"":1,""time"":4186}]",NA,NA,NA,NA,NA,5,#741CD8,#D8271C,10,10,1,38,1,756.2000000029802,39,0,640.0999999940395,10,0,experiment,NA,NA,2,0.5,0.5,4,5,245,6,NA
fcp-trial,333,1684998,0.0-256.0-0.0,voc_e2,11742,"[{""event"":""fullscreenenter"",""trial"":1,""time"":4186}]",NA,NA,NA,NA,NA,1,#D8271C,#741CD8,0,10,0,38,1,526.5,39,0,476.79999999701977,10,1,experiment,NA,NA,2,0.5,0.5,5,4,246,6,NA
fcp-trial,334,1687505,0.0-257.0-0.0,voc_e2,11742,"[{""event"":""fullscreenenter"",""trial"":1,""time"":4186}]",NA,NA,NA,NA,NA,6,#FA92F8,#1CD855,0,0,0,38,1,537,37,1,463.40000000596046,0,0,experiment,NA,NA,1,0.3,0.7,3,2,247,6,NA
fcp-trial,335,1690093,0.0-258.0-0.0,voc_e2,11742,"[{""event"":""fullscreenenter"",""trial"":1,""time"":4186}]",NA,NA,NA,NA,NA,3,#3386FF,#D89F1C,10,0,1,38,1,615.5,37,1,455.699999988079,10,1,experiment,NA,NA,0,0.9,0.1,0,1,248,6,NA
fcp-trial,336,1692450,0.0-259.0-0.0,voc_e2,11742,"[{""event"":""fullscreenenter"",""trial"":1,""time"":4186}]",NA,NA,NA,NA,NA,0,#D89F1C,#3386FF,0,10,0,38,1,401.70000000298023,39,0,448,10,1,experiment,NA,NA,0,0.1,0.9,1,0,249,6,NA
fcp-trial,337,1694760,0.0-260.0-0.0,voc_e2,11742,"[{""event"":""fullscreenenter"",""trial"":1,""time"":4186}]",NA,NA,NA,NA,NA,2,#D89F1C,#3386FF,0,10,0,38,1,379.09999999403954,37,1,419.70000000298023,0,0,experiment,NA,NA,0,0.1,0.9,1,0,250,6,NA
fcp-trial,338,1697248,0.0-261.0-0.0,voc_e2,11742,"[{""event"":""fullscreenenter"",""trial"":1,""time"":4186}]",NA,NA,NA,NA,NA,0,#741CD8,#D8271C,10,10,1,38,1,21.299999997019768,39,0,960.4000000059604,10,0,experiment,NA,NA,2,0.5,0.5,4,5,251,6,NA
fcp-trial,339,1699428,0.0-262.0-0.0,voc_e2,11742,"[{""event"":""fullscreenenter"",""trial"":1,""time"":4186}]",NA,NA,NA,NA,NA,0,#1CD855,#FA92F8,10,10,1,38,1,249.19999998807907,37,1,413.70000000298023,10,1,experiment,NA,NA,1,0.7,0.3,2,3,252,6,NA
fcp-trial,340,1702906,0.0-263.0-0.0,voc_e2,11742,"[{""event"":""fullscreenenter"",""trial"":1,""time"":4186}]",NA,NA,NA,NA,NA,6,#D89F1C,#3386FF,0,10,0,38,1,1471,37,1,495.59999999403954,0,0,experiment,NA,NA,0,0.1,0.9,1,0,253,6,NA
fcp-trial,341,1705281,0.0-264.0-0.0,voc_e2,11742,"[{""event"":""fullscreenenter"",""trial"":1,""time"":4186}]",NA,NA,NA,NA,NA,6,#741CD8,#D8271C,0,10,1,38,1,335.6000000089407,39,0,530.2000000029802,10,0,experiment,NA,NA,2,0.5,0.5,4,5,254,6,NA
fcp-trial,342,1707564,0.0-265.0-0.0,voc_e2,11742,"[{""event"":""fullscreenenter"",""trial"":1,""time"":4186}]",NA,NA,NA,NA,NA,2,#FA92F8,#1CD855,0,10,0,38,1,35.599999994039536,37,1,734.0999999940395,0,0,experiment,NA,NA,1,0.3,0.7,3,2,255,6,NA
fcp-trial,343,1709959,0.0-266.0-0.0,voc_e2,11742,"[{""event"":""fullscreenenter"",""trial"":1,""time"":4186}]",NA,NA,NA,NA,NA,1,#3386FF,#D89F1C,10,0,1,38,1,548.3999999910593,39,0,328.29999999701977,0,0,experiment,NA,NA,0,0.9,0.1,0,1,256,6,NA
fcp-trial,344,1712333,0.0-267.0-0.0,voc_e2,11742,"[{""event"":""fullscreenenter"",""trial"":1,""time"":4186}]",NA,NA,NA,NA,NA,4,#FA92F8,#1CD855,0,10,0,38,1,437.8999999910593,37,1,428.29999999701977,0,0,experiment,NA,NA,1,0.3,0.7,3,2,257,6,NA
fcp-trial,345,1714607,0.0-268.0-0.0,voc_e2,11742,"[{""event"":""fullscreenenter"",""trial"":1,""time"":4186}]",NA,NA,NA,NA,NA,5,#741CD8,#D8271C,0,0,1,38,1,357.59999999403954,37,1,408.5,0,1,experiment,NA,NA,2,0.5,0.5,4,5,258,6,NA
fcp-trial,346,1716858,0.0-269.0-0.0,voc_e2,11742,"[{""event"":""fullscreenenter"",""trial"":1,""time"":4186}]",NA,NA,NA,NA,NA,5,#1CD855,#FA92F8,10,0,1,38,1,393.70000000298023,37,1,347.90000000596046,10,1,experiment,NA,NA,1,0.7,0.3,2,3,259,6,NA
fcp-trial,347,1719568,0.0-270.0-0.0,voc_e2,11742,"[{""event"":""fullscreenenter"",""trial"":1,""time"":4186}]",NA,NA,NA,NA,NA,5,#3386FF,#D89F1C,10,0,1,38,1,854.9000000059605,39,0,347.5,0,0,experiment,NA,NA,0,0.9,0.1,0,1,260,6,NA
fcp-trial,348,1721983,0.0-271.0-0.0,voc_e2,11742,"[{""event"":""fullscreenenter"",""trial"":1,""time"":4186}]",NA,NA,NA,NA,NA,0,#3386FF,#D89F1C,10,0,1,38,1,420.59999999403954,37,1,481.90000000596046,10,1,experiment,NA,NA,0,0.9,0.1,0,1,261,6,NA
fcp-trial,349,1724501,0.0-272.0-0.0,voc_e2,11742,"[{""event"":""fullscreenenter"",""trial"":1,""time"":4186}]",NA,NA,NA,NA,NA,6,#FA92F8,#1CD855,10,10,0,38,1,655.2000000029802,39,0,349.70000000298023,10,1,experiment,NA,NA,1,0.3,0.7,3,2,262,6,NA
fcp-trial,350,1726936,0.0-273.0-0.0,voc_e2,11742,"[{""event"":""fullscreenenter"",""trial"":1,""time"":4186}]",NA,NA,NA,NA,NA,0,#741CD8,#D8271C,0,10,1,38,1,347.70000000298023,37,1,582.2999999970198,0,1,experiment,NA,NA,2,0.5,0.5,4,5,263,6,NA
fcp-trial,351,1729316,0.0-274.0-0.0,voc_e2,11742,"[{""event"":""fullscreenenter"",""trial"":1,""time"":4186}]",NA,NA,NA,NA,NA,3,#741CD8,#D8271C,10,10,1,38,1,493.09999999403954,39,0,377.20000000298023,10,0,experiment,NA,NA,2,0.5,0.5,4,5,264,6,NA
fcp-trial,352,1731768,0.0-275.0-0.0,voc_e2,11742,"[{""event"":""fullscreenenter"",""trial"":1,""time"":4186}]",NA,NA,NA,NA,NA,2,#D89F1C,#3386FF,0,10,0,38,1,415.5,37,1,527,0,0,experiment,NA,NA,0,0.1,0.9,1,0,265,6,NA
fcp-trial,353,1734202,0.0-276.0-0.0,voc_e2,11742,"[{""event"":""fullscreenenter"",""trial"":1,""time"":4186}]",NA,NA,NA,NA,NA,0,#1CD855,#FA92F8,10,0,1,38,1,420.30000001192093,39,0,504.5,0,0,experiment,NA,NA,1,0.7,0.3,2,3,266,6,NA
fcp-trial,354,1736635,0.0-277.0-0.0,voc_e2,11742,"[{""event"":""fullscreenenter"",""trial"":1,""time"":4186}]",NA,NA,NA,NA,NA,1,#D8271C,#741CD8,0,0,0,38,1,493.70000000298023,37,1,434.29999999701977,0,0,experiment,NA,NA,2,0.5,0.5,5,4,267,6,NA
fcp-trial,355,1738665,0.0-278.0-0.0,voc_e2,11742,"[{""event"":""fullscreenenter"",""trial"":1,""time"":4186}]",NA,NA,NA,NA,NA,1,#1CD855,#FA92F8,10,10,1,38,1,38.099999994039536,39,0,479.79999999701977,10,0,experiment,NA,NA,1,0.7,0.3,2,3,268,6,NA
fcp-trial,356,1740974,0.0-279.0-0.0,voc_e2,11742,"[{""event"":""fullscreenenter"",""trial"":1,""time"":4186}]",NA,NA,NA,NA,NA,4,#741CD8,#D8271C,0,0,1,38,1,383.20000000298023,37,1,412.5,0,1,experiment,NA,NA,2,0.5,0.5,4,5,269,6,NA
fcp-trial,357,1743224,0.0-280.0-0.0,voc_e2,11742,"[{""event"":""fullscreenenter"",""trial"":1,""time"":4186}]",NA,NA,NA,NA,NA,3,#D89F1C,#3386FF,0,10,0,38,1,345,37,1,397.1000000089407,0,0,experiment,NA,NA,0,0.1,0.9,1,0,270,6,NA
fcp-trial,358,1745871,0.0-281.0-0.0,voc_e2,11742,"[{""event"":""fullscreenenter"",""trial"":1,""time"":4186}]",NA,NA,NA,NA,NA,2,#D8271C,#741CD8,0,0,0,38,1,341.30000001192093,37,1,800.2999999970198,0,0,experiment,NA,NA,2,0.5,0.5,5,4,271,7,NA
fcp-trial,359,1748423,0.0-282.0-0.0,voc_e2,11742,"[{""event"":""fullscreenenter"",""trial"":1,""time"":4186}]",NA,NA,NA,NA,NA,3,#1CD855,#FA92F8,10,0,1,38,1,356.20000000298023,37,1,687.6000000089407,10,1,experiment,NA,NA,1,0.7,0.3,2,3,272,7,NA
fcp-trial,360,1751110,0.0-283.0-0.0,voc_e2,11742,"[{""event"":""fullscreenenter"",""trial"":1,""time"":4186}]",NA,NA,NA,NA,NA,4,#3386FF,#D89F1C,10,0,1,38,1,642.7000000029802,39,0,538.1000000089407,0,0,experiment,NA,NA,0,0.9,0.1,0,1,273,7,NA
fcp-trial,361,1753217,0.0-284.0-0.0,voc_e2,11742,"[{""event"":""fullscreenenter"",""trial"":1,""time"":4186}]",NA,NA,NA,NA,NA,1,#D8271C,#741CD8,10,0,0,38,1,106.69999998807907,37,1,495,10,0,experiment,NA,NA,2,0.5,0.5,5,4,274,7,NA
fcp-trial,362,1756240,0.0-285.0-0.0,voc_e2,11742,"[{""event"":""fullscreenenter"",""trial"":1,""time"":4186}]",NA,NA,NA,NA,NA,2,#1CD855,#FA92F8,10,0,1,38,1,547,37,1,962.5,10,1,experiment,NA,NA,1,0.7,0.3,2,3,275,7,NA
fcp-trial,363,1759801,0.0-286.0-0.0,voc_e2,11742,"[{""event"":""fullscreenenter"",""trial"":1,""time"":4186}]",NA,NA,NA,NA,NA,4,#3386FF,#D89F1C,10,0,1,38,1,1458.7999999970198,39,0,598.2999999970198,0,0,experiment,NA,NA,0,0.9,0.1,0,1,276,7,NA
fcp-trial,364,1762368,0.0-287.0-0.0,voc_e2,11742,"[{""event"":""fullscreenenter"",""trial"":1,""time"":4186}]",NA,NA,NA,NA,NA,5,#741CD8,#D8271C,10,10,1,38,1,630,37,1,432.199999988079,10,1,experiment,NA,NA,2,0.5,0.5,4,5,277,7,NA
fcp-trial,365,1764999,0.0-288.0-0.0,voc_e2,11742,"[{""event"":""fullscreenenter"",""trial"":1,""time"":4186}]",NA,NA,NA,NA,NA,3,#FA92F8,#1CD855,0,10,0,38,1,638.5,39,0,477.3999999910593,10,1,experiment,NA,NA,1,0.3,0.7,3,2,278,7,NA
fcp-trial,366,1767489,0.0-289.0-0.0,voc_e2,11742,"[{""event"":""fullscreenenter"",""trial"":1,""time"":4186}]",NA,NA,NA,NA,NA,2,#D8271C,#741CD8,10,10,0,38,1,528.2999999970198,37,1,451,10,0,experiment,NA,NA,2,0.5,0.5,5,4,279,7,NA
fcp-trial,367,1769932,0.0-290.0-0.0,voc_e2,11742,"[{""event"":""fullscreenenter"",""trial"":1,""time"":4186}]",NA,NA,NA,NA,NA,4,#D8271C,#741CD8,0,10,0,38,1,493.69999998807907,39,0,436.09999999403954,10,1,experiment,NA,NA,2,0.5,0.5,5,4,280,7,NA
fcp-trial,368,1772367,0.0-291.0-0.0,voc_e2,11742,"[{""event"":""fullscreenenter"",""trial"":1,""time"":4186}]",NA,NA,NA,NA,NA,3,#D89F1C,#3386FF,0,10,0,38,1,422.5,37,1,492.90000000596046,0,0,experiment,NA,NA,0,0.1,0.9,1,0,281,7,NA
fcp-trial,369,1774967,0.0-292.0-0.0,voc_e2,11742,"[{""event"":""fullscreenenter"",""trial"":1,""time"":4186}]",NA,NA,NA,NA,NA,5,#FA92F8,#1CD855,10,10,0,38,1,633.5999999940395,39,0,454.20000000298023,10,1,experiment,NA,NA,1,0.3,0.7,3,2,282,7,NA
fcp-trial,370,1777483,0.0-293.0-0.0,voc_e2,11742,"[{""event"":""fullscreenenter"",""trial"":1,""time"":4186}]",NA,NA,NA,NA,NA,6,#741CD8,#D8271C,0,0,1,38,1,597.5999999940395,39,0,411.8999999910593,0,0,experiment,NA,NA,2,0.5,0.5,4,5,283,7,NA
fcp-trial,371,1779833,0.0-294.0-0.0,voc_e2,11742,"[{""event"":""fullscreenenter"",""trial"":1,""time"":4186}]",NA,NA,NA,NA,NA,1,#D89F1C,#3386FF,0,10,0,38,1,355.20000000298023,37,1,479.800000011921,0,0,experiment,NA,NA,0,0.1,0.9,1,0,284,7,NA
fcp-trial,372,1782050,0.0-295.0-0.0,voc_e2,11742,"[{""event"":""fullscreenenter"",""trial"":1,""time"":4186}]",NA,NA,NA,NA,NA,3,#D8271C,#741CD8,0,10,0,38,1,322.29999999701977,37,1,385.09999999403954,0,0,experiment,NA,NA,2,0.5,0.5,5,4,285,7,NA
fcp-trial,373,1784353,0.0-296.0-0.0,voc_e2,11742,"[{""event"":""fullscreenenter"",""trial"":1,""time"":4186}]",NA,NA,NA,NA,NA,4,#FA92F8,#1CD855,10,10,0,38,1,376,37,1,418.59999999403954,10,0,experiment,NA,NA,1,0.3,0.7,3,2,286,7,NA
fcp-trial,374,1786819,0.0-297.0-0.0,voc_e2,11742,"[{""event"":""fullscreenenter"",""trial"":1,""time"":4186}]",NA,NA,NA,NA,NA,0,#3386FF,#D89F1C,10,0,1,38,1,467.8999999910593,37,1,491.70000000298023,10,1,experiment,NA,NA,0,0.9,0.1,0,1,287,7,NA
fcp-trial,375,1789161,0.0-298.0-0.0,voc_e2,11742,"[{""event"":""fullscreenenter"",""trial"":1,""time"":4186}]",NA,NA,NA,NA,NA,0,#FA92F8,#1CD855,10,0,0,38,1,304.5,37,1,520,10,0,experiment,NA,NA,1,0.3,0.7,3,2,288,7,NA
fcp-trial,376,1792069,0.0-299.0-0.0,voc_e2,11742,"[{""event"":""fullscreenenter"",""trial"":1,""time"":4186}]",NA,NA,NA,NA,NA,1,#FA92F8,#1CD855,0,0,0,38,1,889.2999999970198,39,0,515.2999999970198,0,1,experiment,NA,NA,1,0.3,0.7,3,2,289,7,NA
fcp-trial,377,1794494,0.0-300.0-0.0,voc_e2,11742,"[{""event"":""fullscreenenter"",""trial"":1,""time"":4186}]",NA,NA,NA,NA,NA,0,#D8271C,#741CD8,10,0,0,38,1,521.2000000029802,37,1,390.70000000298023,10,0,experiment,NA,NA,2,0.5,0.5,5,4,290,7,NA
fcp-trial,378,1797116,0.0-301.0-0.0,voc_e2,11742,"[{""event"":""fullscreenenter"",""trial"":1,""time"":4186}]",NA,NA,NA,NA,NA,5,#D89F1C,#3386FF,0,10,0,38,1,550.0999999940395,39,0,560.2999999970198,10,1,experiment,NA,NA,0,0.1,0.9,1,0,291,7,NA
fcp-trial,379,1799886,0.0-302.0-0.0,voc_e2,11742,"[{""event"":""fullscreenenter"",""trial"":1,""time"":4186}]",NA,NA,NA,NA,NA,2,#3386FF,#D89F1C,10,0,1,38,1,748.7999999970198,37,1,514.6999999880791,10,1,experiment,NA,NA,0,0.9,0.1,0,1,292,7,NA
fcp-trial,380,1802474,0.0-303.0-0.0,voc_e2,11742,"[{""event"":""fullscreenenter"",""trial"":1,""time"":4186}]",NA,NA,NA,NA,NA,6,#D89F1C,#3386FF,0,10,0,38,1,666.4000000059605,37,1,416.29999999701977,0,0,experiment,NA,NA,0,0.1,0.9,1,0,293,7,NA
fcp-trial,381,1805116,0.0-304.0-0.0,voc_e2,11742,"[{""event"":""fullscreenenter"",""trial"":1,""time"":4186}]",NA,NA,NA,NA,NA,6,#1CD855,#FA92F8,10,10,1,38,1,698.8999999910593,39,0,425.29999999701977,10,0,experiment,NA,NA,1,0.7,0.3,2,3,294,7,NA
fcp-trial,382,1807366,0.0-305.0-0.0,voc_e2,11742,"[{""event"":""fullscreenenter"",""trial"":1,""time"":4186}]",NA,NA,NA,NA,NA,1,#741CD8,#D8271C,10,0,1,38,1,338,39,0,399.29999999701977,0,0,experiment,NA,NA,2,0.5,0.5,4,5,295,7,NA
fcp-trial,383,1810727,0.0-306.0-0.0,voc_e2,11742,"[{""event"":""fullscreenenter"",""trial"":1,""time"":4186}]",NA,NA,NA,NA,NA,1,#D89F1C,#3386FF,0,10,0,38,1,1463.5999999940395,37,1,383.5,0,0,experiment,NA,NA,0,0.1,0.9,1,0,296,7,NA
fcp-trial,384,1813101,0.0-307.0-0.0,voc_e2,11742,"[{""event"":""fullscreenenter"",""trial"":1,""time"":4186}]",NA,NA,NA,NA,NA,5,#D8271C,#741CD8,0,0,0,38,1,424.5,37,1,437.70000000298023,0,0,experiment,NA,NA,2,0.5,0.5,5,4,297,7,NA
fcp-trial,385,1815436,0.0-308.0-0.0,voc_e2,11742,"[{""event"":""fullscreenenter"",""trial"":1,""time"":4186}]",NA,NA,NA,NA,NA,3,#FA92F8,#1CD855,0,10,0,38,1,315.90000000596046,37,1,510.29999999701977,0,0,experiment,NA,NA,1,0.3,0.7,3,2,298,7,NA
fcp-trial,386,1818294,0.0-309.0-0.0,voc_e2,11742,"[{""event"":""fullscreenenter"",""trial"":1,""time"":4186}]",NA,NA,NA,NA,NA,0,#D89F1C,#3386FF,0,10,0,38,1,521.8999999910593,37,1,821.0999999940395,0,0,experiment,NA,NA,0,0.1,0.9,1,0,299,7,NA
fcp-trial,387,1821082,0.0-310.0-0.0,voc_e2,11742,"[{""event"":""fullscreenenter"",""trial"":1,""time"":4186}]",NA,NA,NA,NA,NA,1,#1CD855,#FA92F8,10,0,1,38,1,588.9000000059605,39,0,691.2999999970198,0,0,experiment,NA,NA,1,0.7,0.3,2,3,300,7,NA
fcp-trial,388,1823507,0.0-311.0-0.0,voc_e2,11742,"[{""event"":""fullscreenenter"",""trial"":1,""time"":4186}]",NA,NA,NA,NA,NA,3,#D89F1C,#3386FF,0,10,0,38,1,426,37,1,487.79999999701977,0,0,experiment,NA,NA,0,0.1,0.9,1,0,301,7,NA
fcp-trial,389,1825944,0.0-312.0-0.0,voc_e2,11742,"[{""event"":""fullscreenenter"",""trial"":1,""time"":4186}]",NA,NA,NA,NA,NA,0,#741CD8,#D8271C,0,0,1,38,1,443.79999999701977,39,0,480,0,0,experiment,NA,NA,2,0.5,0.5,4,5,302,7,NA
fcp-trial,390,1828661,0.0-313.0-0.0,voc_e2,11742,"[{""event"":""fullscreenenter"",""trial"":1,""time"":4186}]",NA,NA,NA,NA,NA,6,#FA92F8,#1CD855,0,10,0,38,1,437,39,0,770.5,10,1,experiment,NA,NA,1,0.3,0.7,3,2,303,7,NA
fcp-trial,391,1831701,0.0-314.0-0.0,voc_e2,11742,"[{""event"":""fullscreenenter"",""trial"":1,""time"":4186}]",NA,NA,NA,NA,NA,2,#1CD855,#FA92F8,10,10,1,38,1,693.3999999910593,39,0,837.2999999970198,10,0,experiment,NA,NA,1,0.7,0.3,2,3,304,7,NA
fcp-trial,392,1834113,0.0-315.0-0.0,voc_e2,11742,"[{""event"":""fullscreenenter"",""trial"":1,""time"":4186}]",NA,NA,NA,NA,NA,3,#D8271C,#741CD8,10,10,0,38,1,458.20000000298023,39,0,442.699999988079,10,1,experiment,NA,NA,2,0.5,0.5,5,4,305,7,NA
fcp-trial,393,1836652,0.0-316.0-0.0,voc_e2,11742,"[{""event"":""fullscreenenter"",""trial"":1,""time"":4186}]",NA,NA,NA,NA,NA,4,#3386FF,#D89F1C,10,0,1,38,1,431.5,39,0,593.2000000029802,0,0,experiment,NA,NA,0,0.9,0.1,0,1,306,7,NA
fcp-trial,394,1839084,0.0-317.0-0.0,voc_e2,11742,"[{""event"":""fullscreenenter"",""trial"":1,""time"":4186}]",NA,NA,NA,NA,NA,0,#1CD855,#FA92F8,10,10,1,38,1,427.40000000596046,37,1,499.3999999910593,10,1,experiment,NA,NA,1,0.7,0.3,2,3,307,7,NA
fcp-trial,395,1841869,0.0-318.0-0.0,voc_e2,11742,"[{""event"":""fullscreenenter"",""trial"":1,""time"":4186}]",NA,NA,NA,NA,NA,6,#741CD8,#D8271C,0,0,1,38,1,468.20000000298023,37,1,807.6000000089407,0,1,experiment,NA,NA,2,0.5,0.5,4,5,308,7,NA
fcp-trial,396,1844356,0.0-319.0-0.0,voc_e2,11742,"[{""event"":""fullscreenenter"",""trial"":1,""time"":4186}]",NA,NA,NA,NA,NA,2,#D8271C,#741CD8,0,10,0,38,1,370.79999999701977,39,0,607,10,1,experiment,NA,NA,2,0.5,0.5,5,4,309,7,NA
fcp-trial,397,1847696,0.0-320.0-0.0,voc_e2,11742,"[{""event"":""fullscreenenter"",""trial"":1,""time"":4186}]",NA,NA,NA,NA,NA,5,#D89F1C,#3386FF,0,10,0,38,1,1191.7000000029802,37,1,631.6000000089407,0,0,experiment,NA,NA,0,0.1,0.9,1,0,310,7,NA
fcp-trial,398,1849893,0.0-321.0-0.0,voc_e2,11742,"[{""event"":""fullscreenenter"",""trial"":1,""time"":4186}]",NA,NA,NA,NA,NA,5,#1CD855,#FA92F8,10,0,1,38,1,97.70000000298023,39,0,590.8999999910593,0,0,experiment,NA,NA,1,0.7,0.3,2,3,311,7,NA
fcp-trial,399,1852510,0.0-322.0-0.0,voc_e2,11742,"[{""event"":""fullscreenenter"",""trial"":1,""time"":4186}]",NA,NA,NA,NA,NA,6,#3386FF,#D89F1C,0,0,1,38,1,464,37,1,639.5999999940395,0,1,experiment,NA,NA,0,0.9,0.1,0,1,312,7,NA
fcp-trial,400,1855493,0.0-323.0-0.0,voc_e2,11742,"[{""event"":""fullscreenenter"",""trial"":1,""time"":4186}]",NA,NA,NA,NA,NA,2,#3386FF,#D89F1C,10,0,1,38,1,520.7000000029802,37,1,954.9000000059604,10,1,experiment,NA,NA,0,0.9,0.1,0,1,313,7,NA
fcp-trial,401,1858612,0.0-324.0-0.0,voc_e2,11742,"[{""event"":""fullscreenenter"",""trial"":1,""time"":4186}]",NA,NA,NA,NA,NA,4,#D8271C,#741CD8,10,10,0,38,1,943.4000000059605,37,1,668.0999999940395,10,0,experiment,NA,NA,2,0.5,0.5,5,4,314,7,NA
fcp-trial,402,1861426,0.0-325.0-0.0,voc_e2,11742,"[{""event"":""fullscreenenter"",""trial"":1,""time"":4186}]",NA,NA,NA,NA,NA,4,#FA92F8,#1CD855,0,0,0,38,1,447.70000000298023,39,0,859.2000000029802,0,1,experiment,NA,NA,1,0.3,0.7,3,2,315,7,NA
audio-instructions,403,1868100,0.0-326.0,voc_e2,11742,"[{""event"":""fullscreenenter"",""trial"":1,""time"":4186}]",NA,495.5,static/audio/finished.wav,NA,0,NA,NA,NA,NA,NA,NA,NA,NA,NA,NA,NA,NA,NA,NA,NA,NA,NA,NA,NA,NA,NA,NA,NA,NA,NA
audio-instructions,404,1880134,0.0-327.0-0.0,voc_e2,11742,"[{""event"":""fullscreenenter"",""trial"":1,""time"":4186}]",NA,1198.8999999910593,static/audio/explicit1.wav,NA,0,NA,NA,NA,NA,NA,NA,NA,NA,NA,NA,NA,NA,NA,NA,NA,NA,NA,NA,NA,NA,NA,NA,NA,NA,NA
audio-instructions,405,1888632,0.0-327.0-1.0,voc_e2,11742,"[{""event"":""fullscreenenter"",""trial"":1,""time"":4186}]",NA,892.8999999910593,static/audio/explicit2.wav,NA,0,NA,NA,NA,NA,NA,NA,NA,NA,NA,NA,NA,NA,NA,NA,NA,NA,NA,NA,NA,NA,NA,NA,NA,NA,NA
image-slider-response,406,1899175,0.0-328.0,voc_e2,11742,"[{""event"":""fullscreenenter"",""trial"":1,""time"":4186}]",NA,10541,static/img/machines/machine2.png,NA,NA,NA,NA,NA,NA,NA,NA,NA,NA,NA,NA,NA,NA,NA,NA,explicit,NA,NA,NA,NA,NA,NA,NA,NA,NA,4
image-slider-response,407,1901114,0.0-329.0,voc_e2,11742,"[{""event"":""fullscreenenter"",""trial"":1,""time"":4186}]",NA,1938.29999999702,static/img/machines/machine6.png,NA,NA,NA,NA,NA,NA,NA,NA,NA,NA,NA,NA,NA,NA,NA,NA,explicit,NA,NA,NA,NA,NA,NA,NA,NA,NA,5
image-slider-response,408,1902351,0.0-330.0,voc_e2,11742,"[{""event"":""fullscreenenter"",""trial"":1,""time"":4186}]",NA,1235.5999999940395,static/img/machines/machine5.png,NA,NA,NA,NA,NA,NA,NA,NA,NA,NA,NA,NA,NA,NA,NA,NA,explicit,NA,NA,NA,NA,NA,NA,NA,NA,NA,5
image-slider-response,409,1906724,0.0-331.0,voc_e2,11742,"[{""event"":""fullscreenenter"",""trial"":1,""time"":4186}]",NA,4371.0999999940395,static/img/machines/machine1.png,NA,NA,NA,NA,NA,NA,NA,NA,NA,NA,NA,NA,NA,NA,NA,NA,explicit,NA,NA,NA,NA,NA,NA,NA,NA,NA,6
image-slider-response,410,1911095,0.0-332.0,voc_e2,11742,"[{""event"":""fullscreenenter"",""trial"":1,""time"":4186}]",NA,4370.0999999940395,static/img/machines/machine3.png,NA,NA,NA,NA,NA,NA,NA,NA,NA,NA,NA,NA,NA,NA,NA,NA,explicit,NA,NA,NA,NA,NA,NA,NA,NA,NA,8
image-slider-response,411,1915368,0.0-333.0,voc_e2,11742,"[{""event"":""fullscreenenter"",""trial"":1,""time"":4186}]",NA,4270.899999991059,static/img/machines/machine4.png,NA,NA,NA,NA,NA,NA,NA,NA,NA,NA,NA,NA,NA,NA,NA,NA,explicit,NA,NA,NA,NA,NA,NA,NA,NA,NA,9
