trial_type,trial_index,time_elapsed,internal_node_id,task_version,subject_id,interactions,success,rt,stimulus,key_press,button_pressed,offer,arcade_color_L,arcade_color_R,arcade_outcome_L,arcade_outcome_R,correct,stage_1_key,stage_1_choice,stage_1_rt,stage_2_key,stage_2_choice,stage_2_rt,stage_3_outcome,accuracy,phase,responses,num_errors,context,reward_prob_L,reward_prob_R,arcade_id_L,arcade_id_R,trial,block,response
pavlovia,0,10,0.0-0.0,voc_e2,11740,[],NA,NA,NA,NA,NA,NA,NA,NA,NA,NA,NA,NA,NA,NA,NA,NA,NA,NA,NA,NA,NA,NA,NA,NA,NA,NA,NA,NA,NA,NA
fullscreen,1,3154,0.0-1.0,voc_e2,11740,"[{""event"":""fullscreenenter"",""trial"":1,""time"":2168}]",TRUE,NA,NA,NA,NA,NA,NA,NA,NA,NA,NA,NA,NA,NA,NA,NA,NA,NA,NA,NA,NA,NA,NA,NA,NA,NA,NA,NA,NA,NA
audio-keyboard-response,2,6335,0.0-2.0,voc_e2,11740,"[{""event"":""fullscreenenter"",""trial"":1,""time"":2168}]",NA,3109,static/audio/beep_loop.wav,32,NA,NA,NA,NA,NA,NA,NA,NA,NA,NA,NA,NA,NA,NA,NA,NA,NA,NA,NA,NA,NA,NA,NA,NA,NA,NA
audio-test,3,9627,0.0-3.0,voc_e2,11740,"[{""event"":""fullscreenenter"",""trial"":1,""time"":2168}]",NA,NA,static/audio/turtle.wav,NA,3,NA,NA,NA,NA,NA,NA,NA,NA,NA,NA,NA,NA,NA,NA,NA,NA,NA,NA,NA,NA,NA,NA,NA,NA,NA
audio-test,4,12294,0.0-4.0,voc_e2,11740,"[{""event"":""fullscreenenter"",""trial"":1,""time"":2168}]",NA,NA,static/audio/shark.wav,NA,2,NA,NA,NA,NA,NA,NA,NA,NA,NA,NA,NA,NA,NA,NA,NA,NA,NA,NA,NA,NA,NA,NA,NA,NA,NA
audio-instructions,5,19197,0.0-5.0-0.0,voc_e2,11740,"[{""event"":""fullscreenenter"",""trial"":1,""time"":2168}]",NA,1102.5999999940395,static/audio/instructions1.wav,NA,0,NA,NA,NA,NA,NA,NA,NA,NA,NA,NA,NA,NA,NA,NA,NA,NA,NA,NA,NA,NA,NA,NA,NA,NA,NA
audio-instructions,6,33280,0.0-5.0-1.0,voc_e2,11740,"[{""event"":""fullscreenenter"",""trial"":1,""time"":2168}]",NA,7337,static/audio/instructions2.wav,NA,0,NA,NA,NA,NA,NA,NA,NA,NA,NA,NA,NA,NA,NA,NA,NA,NA,NA,NA,NA,NA,NA,NA,NA,NA,NA
audio-instructions,7,41158,0.0-5.0-2.0,voc_e2,11740,"[{""event"":""fullscreenenter"",""trial"":1,""time"":2168}]",NA,2074.5,static/audio/instructions3.wav,NA,0,NA,NA,NA,NA,NA,NA,NA,NA,NA,NA,NA,NA,NA,NA,NA,NA,NA,NA,NA,NA,NA,NA,NA,NA,NA
audio-instructions,8,64368,0.0-5.0-3.0,voc_e2,11740,"[{""event"":""fullscreenenter"",""trial"":1,""time"":2168}]",NA,9984.60000000894,static/audio/instructions4.wav,NA,0,NA,NA,NA,NA,NA,NA,NA,NA,NA,NA,NA,NA,NA,NA,NA,NA,NA,NA,NA,NA,NA,NA,NA,NA,NA
audio-instructions,9,76454,0.0-5.0-4.0,voc_e2,11740,"[{""event"":""fullscreenenter"",""trial"":1,""time"":2168}]",NA,2701,static/audio/instructions5.wav,NA,0,NA,NA,NA,NA,NA,NA,NA,NA,NA,NA,NA,NA,NA,NA,NA,NA,NA,NA,NA,NA,NA,NA,NA,NA,NA
fcp-practice,10,78919,0.0-5.0-5.0-0.0,voc_e2,11740,"[{""event"":""fullscreenenter"",""trial"":1,""time"":2168}]",NA,NA,NA,NA,NA,NA,#EDC948,#46d3c8,10,0,1,null,null,null,37,1,940.2000000029802,10,1,practice,NA,NA,NA,NA,NA,NA,NA,NA,NA,NA
fcp-practice,11,80522,0.0-5.0-5.0-1.0,voc_e2,11740,"[{""event"":""fullscreenenter"",""trial"":1,""time"":2168}]",NA,NA,NA,NA,NA,NA,#EDC948,#46d3c8,10,0,1,null,null,null,37,1,82.1000000089407,10,1,practice,NA,NA,NA,NA,NA,NA,NA,NA,NA,NA
fcp-practice,12,82390,0.0-5.0-5.0-2.0,voc_e2,11740,"[{""event"":""fullscreenenter"",""trial"":1,""time"":2168}]",NA,NA,NA,NA,NA,NA,#EDC948,#46d3c8,0,10,1,null,null,null,37,1,350.29999999701977,0,1,practice,NA,NA,NA,NA,NA,NA,NA,NA,NA,NA
fcp-practice,13,84209,0.0-5.0-5.0-3.0,voc_e2,11740,"[{""event"":""fullscreenenter"",""trial"":1,""time"":2168}]",NA,NA,NA,NA,NA,NA,#EDC948,#46d3c8,10,0,1,null,null,null,37,1,306,10,1,practice,NA,NA,NA,NA,NA,NA,NA,NA,NA,NA
fcp-practice,14,86092,0.0-5.0-5.0-4.0,voc_e2,11740,"[{""event"":""fullscreenenter"",""trial"":1,""time"":2168}]",NA,NA,NA,NA,NA,NA,#EDC948,#46d3c8,10,0,1,null,null,null,37,1,375.20000000298023,10,1,practice,NA,NA,NA,NA,NA,NA,NA,NA,NA,NA
audio-instructions,15,107266,0.0-5.0-6.0,voc_e2,11740,"[{""event"":""fullscreenenter"",""trial"":1,""time"":2168}]",NA,3162.5999999940395,static/audio/instructions6.wav,NA,0,NA,NA,NA,NA,NA,NA,NA,NA,NA,NA,NA,NA,NA,NA,NA,NA,NA,NA,NA,NA,NA,NA,NA,NA,NA
audio-instructions,16,140928,0.0-5.0-7.0,voc_e2,11740,"[{""event"":""fullscreenenter"",""trial"":1,""time"":2168}]",NA,14464.5,static/audio/instructions7.wav,NA,0,NA,NA,NA,NA,NA,NA,NA,NA,NA,NA,NA,NA,NA,NA,NA,NA,NA,NA,NA,NA,NA,NA,NA,NA,NA
audio-instructions,17,153318,0.0-5.0-8.0,voc_e2,11740,"[{""event"":""fullscreenenter"",""trial"":1,""time"":2168}]",NA,2914.0999999940395,static/audio/instructions8.wav,NA,0,NA,NA,NA,NA,NA,NA,NA,NA,NA,NA,NA,NA,NA,NA,NA,NA,NA,NA,NA,NA,NA,NA,NA,NA,NA
fcp-comprehension,18,166617,0.0-5.0-9.0,voc_e2,11740,"[{""event"":""fullscreenenter"",""trial"":1,""time"":2168}]",NA,13297.30000001192,NA,NA,NA,NA,NA,NA,NA,NA,NA,NA,NA,NA,NA,NA,NA,NA,NA,NA,"true,true",0,NA,NA,NA,NA,NA,NA,NA,NA
audio-instructions,19,174844,0.0-6.0-0.0,voc_e2,11740,"[{""event"":""fullscreenenter"",""trial"":1,""time"":2168}]",NA,2680.5999999940395,static/audio/instructions9.wav,NA,0,NA,NA,NA,NA,NA,NA,NA,NA,NA,NA,NA,NA,NA,NA,NA,NA,NA,NA,NA,NA,NA,NA,NA,NA,NA
audio-instructions,20,191498,0.0-6.0-1.0,voc_e2,11740,"[{""event"":""fullscreenenter"",""trial"":1,""time"":2168}]",NA,4534.600000008941,static/audio/instructions10.wav,NA,0,NA,NA,NA,NA,NA,NA,NA,NA,NA,NA,NA,NA,NA,NA,NA,NA,NA,NA,NA,NA,NA,NA,NA,NA,NA
fcp-trial,21,206521,0.0-6.0-2.0,voc_e2,11740,"[{""event"":""fullscreenenter"",""trial"":1,""time"":2168}]",NA,NA,NA,NA,NA,0,#EDC948,#46d3c8,10,10,1,null,null,null,null,null,null,NA,0,practice,NA,NA,NA,NA,NA,NA,NA,NA,NA,NA
audio-instructions,22,220656,0.0-6.0-3.0,voc_e2,11740,"[{""event"":""fullscreenenter"",""trial"":1,""time"":2168}]",NA,3122.70000000298,static/audio/instructions11.wav,NA,0,NA,NA,NA,NA,NA,NA,NA,NA,NA,NA,NA,NA,NA,NA,NA,NA,NA,NA,NA,NA,NA,NA,NA,NA,NA
fcp-trial,23,225433,0.0-6.0-4.0,voc_e2,11740,"[{""event"":""fullscreenenter"",""trial"":1,""time"":2168}]",NA,NA,NA,NA,NA,6,#EDC948,#46d3c8,10,10,1,40,0,896.5999999940395,37,1,2362.300000011921,10,1,practice,NA,NA,NA,NA,NA,NA,NA,NA,NA,NA
audio-instructions,24,246434,0.0-6.0-5.0,voc_e2,11740,"[{""event"":""fullscreenenter"",""trial"":1,""time"":2168}]",NA,2310,static/audio/instructions12.wav,NA,0,NA,NA,NA,NA,NA,NA,NA,NA,NA,NA,NA,NA,NA,NA,NA,NA,NA,NA,NA,NA,NA,NA,NA,NA,NA
audio-instructions,25,255250,0.0-6.0-6.0,voc_e2,11740,"[{""event"":""fullscreenenter"",""trial"":1,""time"":2168}]",NA,1216.9000000059605,static/audio/instructions13.wav,NA,0,NA,NA,NA,NA,NA,NA,NA,NA,NA,NA,NA,NA,NA,NA,NA,NA,NA,NA,NA,NA,NA,NA,NA,NA,NA
audio-instructions,26,266668,0.0-6.0-7.0,voc_e2,11740,"[{""event"":""fullscreenenter"",""trial"":1,""time"":2168}]",NA,2975,static/audio/instructions14.wav,NA,0,NA,NA,NA,NA,NA,NA,NA,NA,NA,NA,NA,NA,NA,NA,NA,NA,NA,NA,NA,NA,NA,NA,NA,NA,NA
audio-instructions,27,275614,0.0-7.0-0.0,voc_e2,11740,"[{""event"":""fullscreenenter"",""trial"":1,""time"":2168}]",NA,2031.20000000298,static/audio/instructions15.wav,NA,0,NA,NA,NA,NA,NA,NA,NA,NA,NA,NA,NA,NA,NA,NA,NA,NA,NA,NA,NA,NA,NA,NA,NA,NA,NA
audio-instructions,28,283284,0.0-7.0-1.0,voc_e2,11740,"[{""event"":""fullscreenenter"",""trial"":1,""time"":2168}]",NA,840.9000000059605,static/audio/instructions16.wav,NA,0,NA,NA,NA,NA,NA,NA,NA,NA,NA,NA,NA,NA,NA,NA,NA,NA,NA,NA,NA,NA,NA,NA,NA,NA,NA
audio-instructions,29,291820,0.0-7.0-2.0,voc_e2,11740,"[{""event"":""fullscreenenter"",""trial"":1,""time"":2168}]",NA,855.9000000059605,static/audio/instructions17.wav,NA,0,NA,NA,NA,NA,NA,NA,NA,NA,NA,NA,NA,NA,NA,NA,NA,NA,NA,NA,NA,NA,NA,NA,NA,NA,NA
audio-instructions,30,300593,0.0-7.0-3.0,voc_e2,11740,"[{""event"":""fullscreenenter"",""trial"":1,""time"":2168}]",NA,1010.2999999970198,static/audio/instructions18.wav,NA,0,NA,NA,NA,NA,NA,NA,NA,NA,NA,NA,NA,NA,NA,NA,NA,NA,NA,NA,NA,NA,NA,NA,NA,NA,NA
audio-instructions,31,308122,0.0-7.0-4.0,voc_e2,11740,"[{""event"":""fullscreenenter"",""trial"":1,""time"":2168}]",NA,778.2999999970198,static/audio/instructions19.wav,NA,0,NA,NA,NA,NA,NA,NA,NA,NA,NA,NA,NA,NA,NA,NA,NA,NA,NA,NA,NA,NA,NA,NA,NA,NA,NA
fcp-comprehension,32,330024,0.0-7.0-5.0,voc_e2,11740,"[{""event"":""fullscreenenter"",""trial"":1,""time"":2168}]",NA,21900.59999999404,NA,NA,NA,NA,NA,NA,NA,NA,NA,NA,NA,NA,NA,NA,NA,NA,NA,NA,"false,false,false,true",0,NA,NA,NA,NA,NA,NA,NA,NA
audio-instructions,33,344864,0.0-8.0,voc_e2,11740,"[{""event"":""fullscreenenter"",""trial"":1,""time"":2168}]",NA,5620.9000000059605,static/audio/ready.wav,NA,0,NA,NA,NA,NA,NA,NA,NA,NA,NA,NA,NA,NA,NA,NA,NA,NA,NA,NA,NA,NA,NA,NA,NA,NA,NA
fcp-trial,34,350875,0.0-9.0-0.0,voc_e2,11740,"[{""event"":""fullscreenenter"",""trial"":1,""time"":2168}]",NA,NA,NA,NA,NA,3,#D8271C,#741CD8,0,10,0,38,1,2423.7000000029802,39,0,2070.5,10,1,experiment,NA,NA,1,0.3,0.7,3,2,1,1,NA
fcp-trial,35,355763,0.0-10.0-0.0,voc_e2,11740,"[{""event"":""fullscreenenter"",""trial"":1,""time"":2168}]",NA,NA,NA,NA,NA,1,#FA92F8,#1CD855,10,10,0,38,1,2708.7999999970198,37,1,654.2000000029802,10,0,experiment,NA,NA,2,0.5,0.5,5,4,2,1,NA
fcp-trial,36,359365,0.0-11.0-0.0,voc_e2,11740,"[{""event"":""fullscreenenter"",""trial"":1,""time"":2168}]",NA,NA,NA,NA,NA,6,#D8271C,#741CD8,0,10,0,40,0,1405.4000000059605,39,0,672.0999999940395,10,1,experiment,NA,NA,1,0.3,0.7,3,2,3,1,NA
fcp-trial,37,363619,0.0-12.0-0.0,voc_e2,11740,"[{""event"":""fullscreenenter"",""trial"":1,""time"":2168}]",NA,NA,NA,NA,NA,0,#1CD855,#FA92F8,0,10,1,40,0,1842.7999999970198,37,1,888.9000000059605,0,1,experiment,NA,NA,2,0.5,0.5,4,5,4,1,NA
fcp-trial,38,368090,0.0-13.0-0.0,voc_e2,11740,"[{""event"":""fullscreenenter"",""trial"":1,""time"":2168}]",NA,NA,NA,NA,NA,5,#3386FF,#D89F1C,0,10,0,40,0,1587.7000000029802,39,0,1358.6000000089407,10,1,experiment,NA,NA,0,0.1,0.9,1,0,5,1,NA
fcp-trial,39,371369,0.0-14.0-0.0,voc_e2,11740,"[{""event"":""fullscreenenter"",""trial"":1,""time"":2168}]",NA,NA,NA,NA,NA,0,#D89F1C,#3386FF,10,10,1,38,1,1269.4000000059605,39,0,502.5,10,0,experiment,NA,NA,0,0.9,0.1,0,1,6,1,NA
fcp-trial,40,374114,0.0-15.0-0.0,voc_e2,11740,"[{""event"":""fullscreenenter"",""trial"":1,""time"":2168}]",NA,NA,NA,NA,NA,3,#3386FF,#D89F1C,0,10,0,38,1,816.7999999970198,39,0,423.1000000089407,10,1,experiment,NA,NA,0,0.1,0.9,1,0,7,1,NA
fcp-trial,41,376705,0.0-16.0-0.0,voc_e2,11740,"[{""event"":""fullscreenenter"",""trial"":1,""time"":2168}]",NA,NA,NA,NA,NA,4,#741CD8,#D8271C,10,10,1,38,1,661.1999999880791,37,1,423.09999999403954,10,1,experiment,NA,NA,1,0.7,0.3,2,3,8,1,NA
fcp-trial,42,379233,0.0-17.0-0.0,voc_e2,11740,"[{""event"":""fullscreenenter"",""trial"":1,""time"":2168}]",NA,NA,NA,NA,NA,2,#FA92F8,#1CD855,0,10,0,38,1,719.7999999970198,37,1,303.5,0,0,experiment,NA,NA,2,0.5,0.5,5,4,9,1,NA
fcp-trial,43,381708,0.0-18.0-0.0,voc_e2,11740,"[{""event"":""fullscreenenter"",""trial"":1,""time"":2168}]",NA,NA,NA,NA,NA,2,#3386FF,#D89F1C,0,10,0,38,1,591.5,37,1,377.40000000596046,0,0,experiment,NA,NA,0,0.1,0.9,1,0,10,1,NA
fcp-trial,44,384170,0.0-19.0-0.0,voc_e2,11740,"[{""event"":""fullscreenenter"",""trial"":1,""time"":2168}]",NA,NA,NA,NA,NA,3,#1CD855,#FA92F8,10,10,1,38,1,480.29999999701977,37,1,475.70000000298023,10,1,experiment,NA,NA,2,0.5,0.5,4,5,11,1,NA
fcp-trial,45,387097,0.0-20.0-0.0,voc_e2,11740,"[{""event"":""fullscreenenter"",""trial"":1,""time"":2168}]",NA,NA,NA,NA,NA,5,#D8271C,#741CD8,0,0,0,38,1,1096,37,1,327.5,0,0,experiment,NA,NA,1,0.3,0.7,3,2,12,1,NA
fcp-trial,46,390538,0.0-21.0-0.0,voc_e2,11740,"[{""event"":""fullscreenenter"",""trial"":1,""time"":2168}]",NA,NA,NA,NA,NA,5,#FA92F8,#1CD855,0,10,0,38,1,1131,37,1,805.2000000029802,0,0,experiment,NA,NA,2,0.5,0.5,5,4,13,1,NA
fcp-trial,47,396345,0.0-22.0-0.0,voc_e2,11740,"[{""event"":""fullscreenenter"",""trial"":1,""time"":2168}]",NA,NA,NA,NA,NA,1,#3386FF,#D89F1C,0,0,0,38,1,3713.5,39,0,589.5,0,1,experiment,NA,NA,0,0.1,0.9,1,0,14,1,NA
fcp-trial,48,400937,0.0-23.0-0.0,voc_e2,11740,"[{""event"":""fullscreenenter"",""trial"":1,""time"":2168}]",NA,NA,NA,NA,NA,2,#741CD8,#D8271C,10,10,1,38,1,2192.5999999940395,37,1,893.5,10,1,experiment,NA,NA,1,0.7,0.3,2,3,15,1,NA
fcp-trial,49,405073,0.0-24.0-0.0,voc_e2,11740,"[{""event"":""fullscreenenter"",""trial"":1,""time"":2168}]",NA,NA,NA,NA,NA,1,#741CD8,#D8271C,10,10,1,38,1,2256.0999999940395,37,1,374.69999998807907,10,1,experiment,NA,NA,1,0.7,0.3,2,3,16,1,NA
fcp-trial,50,408457,0.0-25.0-0.0,voc_e2,11740,"[{""event"":""fullscreenenter"",""trial"":1,""time"":2168}]",NA,NA,NA,NA,NA,0,#D8271C,#741CD8,10,0,0,38,1,1289.5999999940395,39,0,590.2000000029802,0,1,experiment,NA,NA,1,0.3,0.7,3,2,17,1,NA
fcp-trial,51,411122,0.0-26.0-0.0,voc_e2,11740,"[{""event"":""fullscreenenter"",""trial"":1,""time"":2168}]",NA,NA,NA,NA,NA,4,#FA92F8,#1CD855,10,10,0,38,1,776.5,37,1,371.59999999403954,10,0,experiment,NA,NA,2,0.5,0.5,5,4,18,1,NA
fcp-trial,52,413728,0.0-27.0-0.0,voc_e2,11740,"[{""event"":""fullscreenenter"",""trial"":1,""time"":2168}]",NA,NA,NA,NA,NA,6,#D89F1C,#3386FF,10,0,1,38,1,784,37,1,310.09999999403954,10,1,experiment,NA,NA,0,0.9,0.1,0,1,19,1,NA
fcp-trial,53,416114,0.0-28.0-0.0,voc_e2,11740,"[{""event"":""fullscreenenter"",""trial"":1,""time"":2168}]",NA,NA,NA,NA,NA,6,#FA92F8,#1CD855,10,0,0,38,1,593,39,0,286,0,1,experiment,NA,NA,2,0.5,0.5,5,4,20,1,NA
fcp-trial,54,419857,0.0-29.0-0.0,voc_e2,11740,"[{""event"":""fullscreenenter"",""trial"":1,""time"":2168}]",NA,NA,NA,NA,NA,4,#3386FF,#D89F1C,0,10,0,38,1,1687.6000000089407,37,1,551.4000000059605,0,0,experiment,NA,NA,0,0.1,0.9,1,0,21,1,NA
fcp-trial,55,422321,0.0-30.0-0.0,voc_e2,11740,"[{""event"":""fullscreenenter"",""trial"":1,""time"":2168}]",NA,NA,NA,NA,NA,0,#D8271C,#741CD8,0,10,0,38,1,343.79999999701977,37,1,615.2999999970198,0,0,experiment,NA,NA,1,0.3,0.7,3,2,22,1,NA
fcp-trial,56,425777,0.0-31.0-0.0,voc_e2,11740,"[{""event"":""fullscreenenter"",""trial"":1,""time"":2168}]",NA,NA,NA,NA,NA,6,#3386FF,#D89F1C,0,10,0,38,1,1376.5999999940395,37,1,574,0,0,experiment,NA,NA,0,0.1,0.9,1,0,23,1,NA
fcp-trial,57,429218,0.0-32.0-0.0,voc_e2,11740,"[{""event"":""fullscreenenter"",""trial"":1,""time"":2168}]",NA,NA,NA,NA,NA,5,#D89F1C,#3386FF,10,0,1,38,1,1506.7000000029802,37,1,429.09999999403954,10,1,experiment,NA,NA,0,0.9,0.1,0,1,24,1,NA
fcp-trial,58,432617,0.0-33.0-0.0,voc_e2,11740,"[{""event"":""fullscreenenter"",""trial"":1,""time"":2168}]",NA,NA,NA,NA,NA,2,#3386FF,#D89F1C,0,10,0,38,1,1387.5999999940395,39,0,501.70000000298023,10,1,experiment,NA,NA,0,0.1,0.9,1,0,25,1,NA
fcp-trial,59,434985,0.0-34.0-0.0,voc_e2,11740,"[{""event"":""fullscreenenter"",""trial"":1,""time"":2168}]",NA,NA,NA,NA,NA,4,#741CD8,#D8271C,10,0,1,38,1,416.29999999701977,39,0,447.09999999403954,0,0,experiment,NA,NA,1,0.7,0.3,2,3,26,1,NA
fcp-trial,60,437833,0.0-35.0-0.0,voc_e2,11740,"[{""event"":""fullscreenenter"",""trial"":1,""time"":2168}]",NA,NA,NA,NA,NA,1,#3386FF,#D89F1C,0,10,0,38,1,873.6000000089407,39,0,469.5,10,1,experiment,NA,NA,0,0.1,0.9,1,0,27,1,NA
fcp-trial,61,440489,0.0-36.0-0.0,voc_e2,11740,"[{""event"":""fullscreenenter"",""trial"":1,""time"":2168}]",NA,NA,NA,NA,NA,0,#1CD855,#FA92F8,10,0,1,38,1,680.5,37,1,471.20000000298023,10,1,experiment,NA,NA,2,0.5,0.5,4,5,28,1,NA
fcp-trial,62,442874,0.0-37.0-0.0,voc_e2,11740,"[{""event"":""fullscreenenter"",""trial"":1,""time"":2168}]",NA,NA,NA,NA,NA,2,#1CD855,#FA92F8,10,0,1,38,1,458.09999999403954,39,0,421.5,0,0,experiment,NA,NA,2,0.5,0.5,4,5,29,1,NA
fcp-trial,63,445307,0.0-38.0-0.0,voc_e2,11740,"[{""event"":""fullscreenenter"",""trial"":1,""time"":2168}]",NA,NA,NA,NA,NA,2,#741CD8,#D8271C,10,0,1,38,1,431.70000000298023,37,1,494.6000000089407,10,1,experiment,NA,NA,1,0.7,0.3,2,3,30,1,NA
fcp-trial,64,447881,0.0-39.0-0.0,voc_e2,11740,"[{""event"":""fullscreenenter"",""trial"":1,""time"":2168}]",NA,NA,NA,NA,NA,3,#D8271C,#741CD8,10,10,0,38,1,629.7000000029802,39,0,439.20000000298023,10,1,experiment,NA,NA,1,0.3,0.7,3,2,31,1,NA
fcp-trial,65,450605,0.0-40.0-0.0,voc_e2,11740,"[{""event"":""fullscreenenter"",""trial"":1,""time"":2168}]",NA,NA,NA,NA,NA,4,#3386FF,#D89F1C,10,0,0,38,1,776.2999999970198,39,0,431.29999999701977,0,1,experiment,NA,NA,0,0.1,0.9,1,0,32,1,NA
fcp-trial,66,453185,0.0-41.0-0.0,voc_e2,11740,"[{""event"":""fullscreenenter"",""trial"":1,""time"":2168}]",NA,NA,NA,NA,NA,1,#741CD8,#D8271C,10,0,1,38,1,659.5,39,0,415.40000000596046,0,0,experiment,NA,NA,1,0.7,0.3,2,3,33,1,NA
fcp-trial,67,456209,0.0-42.0-0.0,voc_e2,11740,"[{""event"":""fullscreenenter"",""trial"":1,""time"":2168}]",NA,NA,NA,NA,NA,4,#1CD855,#FA92F8,0,0,1,38,1,984.6999999880791,39,0,535.3000000119209,0,0,experiment,NA,NA,2,0.5,0.5,4,5,34,1,NA
fcp-trial,68,459673,0.0-43.0-0.0,voc_e2,11740,"[{""event"":""fullscreenenter"",""trial"":1,""time"":2168}]",NA,NA,NA,NA,NA,0,#D89F1C,#3386FF,10,0,1,40,0,592.2000000029802,39,0,1367.4000000059605,0,0,experiment,NA,NA,0,0.9,0.1,0,1,35,1,NA
fcp-trial,69,464128,0.0-44.0-0.0,voc_e2,11740,"[{""event"":""fullscreenenter"",""trial"":1,""time"":2168}]",NA,NA,NA,NA,NA,3,#FA92F8,#1CD855,0,10,0,38,1,1225,39,0,1725.5,10,1,experiment,NA,NA,2,0.5,0.5,5,4,36,1,NA
fcp-trial,70,466493,0.0-45.0-0.0,voc_e2,11740,"[{""event"":""fullscreenenter"",""trial"":1,""time"":2168}]",NA,NA,NA,NA,NA,6,#D8271C,#741CD8,10,10,0,38,1,537,37,1,323.19999998807907,10,0,experiment,NA,NA,1,0.3,0.7,3,2,37,1,NA
fcp-trial,71,469033,0.0-46.0-0.0,voc_e2,11740,"[{""event"":""fullscreenenter"",""trial"":1,""time"":2168}]",NA,NA,NA,NA,NA,3,#D89F1C,#3386FF,10,0,1,38,1,635.4000000059605,37,1,399.29999999701977,10,1,experiment,NA,NA,0,0.9,0.1,0,1,38,1,NA
fcp-trial,72,471394,0.0-47.0-0.0,voc_e2,11740,"[{""event"":""fullscreenenter"",""trial"":1,""time"":2168}]",NA,NA,NA,NA,NA,6,#FA92F8,#1CD855,10,0,0,38,1,432,37,1,423.09999999403954,10,0,experiment,NA,NA,2,0.5,0.5,5,4,39,1,NA
fcp-trial,73,473961,0.0-48.0-0.0,voc_e2,11740,"[{""event"":""fullscreenenter"",""trial"":1,""time"":2168}]",NA,NA,NA,NA,NA,5,#1CD855,#FA92F8,0,0,1,38,1,749.7999999970198,37,1,309.79999999701977,0,1,experiment,NA,NA,2,0.5,0.5,4,5,40,1,NA
fcp-trial,74,476361,0.0-49.0-0.0,voc_e2,11740,"[{""event"":""fullscreenenter"",""trial"":1,""time"":2168}]",NA,NA,NA,NA,NA,5,#741CD8,#D8271C,10,0,1,38,1,527.5,37,1,363.29999999701977,10,1,experiment,NA,NA,1,0.7,0.3,2,3,41,1,NA
fcp-trial,75,478789,0.0-50.0-0.0,voc_e2,11740,"[{""event"":""fullscreenenter"",""trial"":1,""time"":2168}]",NA,NA,NA,NA,NA,1,#1CD855,#FA92F8,10,0,1,38,1,447.8999999910593,37,1,474,10,1,experiment,NA,NA,2,0.5,0.5,4,5,42,1,NA
fcp-trial,76,481242,0.0-51.0-0.0,voc_e2,11740,"[{""event"":""fullscreenenter"",""trial"":1,""time"":2168}]",NA,NA,NA,NA,NA,6,#FA92F8,#1CD855,0,0,0,38,1,500.5,37,1,447.5,0,0,experiment,NA,NA,2,0.5,0.5,5,4,43,1,NA
fcp-trial,77,483801,0.0-52.0-0.0,voc_e2,11740,"[{""event"":""fullscreenenter"",""trial"":1,""time"":2168}]",NA,NA,NA,NA,NA,4,#1CD855,#FA92F8,10,0,1,38,1,415.29999999701977,39,0,638.7000000029802,0,0,experiment,NA,NA,2,0.5,0.5,4,5,44,1,NA
fcp-trial,78,486297,0.0-53.0-0.0,voc_e2,11740,"[{""event"":""fullscreenenter"",""trial"":1,""time"":2168}]",NA,NA,NA,NA,NA,0,#741CD8,#D8271C,10,0,1,38,1,528.0999999940395,37,1,462.1000000089407,10,1,experiment,NA,NA,1,0.7,0.3,2,3,45,1,NA
fcp-trial,79,488770,0.0-54.0-0.0,voc_e2,11740,"[{""event"":""fullscreenenter"",""trial"":1,""time"":2168}]",NA,NA,NA,NA,NA,6,#3386FF,#D89F1C,0,10,0,38,1,504.79999999701977,37,1,463.30000001192093,0,0,experiment,NA,NA,0,0.1,0.9,1,0,46,2,NA
fcp-trial,80,491251,0.0-55.0-0.0,voc_e2,11740,"[{""event"":""fullscreenenter"",""trial"":1,""time"":2168}]",NA,NA,NA,NA,NA,5,#D8271C,#741CD8,0,10,0,38,1,479.90000000596046,39,0,496,10,1,experiment,NA,NA,1,0.3,0.7,3,2,47,2,NA
fcp-trial,81,493841,0.0-56.0-0.0,voc_e2,11740,"[{""event"":""fullscreenenter"",""trial"":1,""time"":2168}]",NA,NA,NA,NA,NA,3,#D89F1C,#3386FF,10,10,1,38,1,654.7000000029802,37,1,430.8999999910593,10,1,experiment,NA,NA,0,0.9,0.1,0,1,48,2,NA
fcp-trial,82,496434,0.0-57.0-0.0,voc_e2,11740,"[{""event"":""fullscreenenter"",""trial"":1,""time"":2168}]",NA,NA,NA,NA,NA,3,#1CD855,#FA92F8,0,10,1,38,1,656.6000000089407,37,1,427.20000000298023,0,1,experiment,NA,NA,2,0.5,0.5,4,5,49,2,NA
fcp-trial,83,499109,0.0-58.0-0.0,voc_e2,11740,"[{""event"":""fullscreenenter"",""trial"":1,""time"":2168}]",NA,NA,NA,NA,NA,2,#D89F1C,#3386FF,10,0,1,38,1,703.3999999910593,37,1,464.70000000298023,10,1,experiment,NA,NA,0,0.9,0.1,0,1,50,2,NA
fcp-trial,84,504211,0.0-59.0-0.0,voc_e2,11740,"[{""event"":""fullscreenenter"",""trial"":1,""time"":2168}]",NA,NA,NA,NA,NA,4,#D8271C,#741CD8,0,10,0,38,1,3124.699999988079,37,1,458.59999999403954,0,0,experiment,NA,NA,1,0.3,0.7,3,2,51,2,NA
fcp-trial,85,506634,0.0-60.0-0.0,voc_e2,11740,"[{""event"":""fullscreenenter"",""trial"":1,""time"":2168}]",NA,NA,NA,NA,NA,1,#D89F1C,#3386FF,10,0,1,38,1,509.1000000089407,39,0,407.09999999403954,0,0,experiment,NA,NA,0,0.9,0.1,0,1,52,2,NA
fcp-trial,86,508906,0.0-61.0-0.0,voc_e2,11740,"[{""event"":""fullscreenenter"",""trial"":1,""time"":2168}]",NA,NA,NA,NA,NA,1,#1CD855,#FA92F8,10,10,1,38,1,391.6000000089407,37,1,376.09999999403954,10,1,experiment,NA,NA,2,0.5,0.5,4,5,53,2,NA
fcp-trial,87,511506,0.0-62.0-0.0,voc_e2,11740,"[{""event"":""fullscreenenter"",""trial"":1,""time"":2168}]",NA,NA,NA,NA,NA,5,#FA92F8,#1CD855,0,10,0,38,1,567.5,37,1,526.4000000059605,0,0,experiment,NA,NA,2,0.5,0.5,5,4,54,2,NA
fcp-trial,88,514858,0.0-63.0-0.0,voc_e2,11740,"[{""event"":""fullscreenenter"",""trial"":1,""time"":2168}]",NA,NA,NA,NA,NA,3,#741CD8,#D8271C,0,10,1,38,1,1175.5,37,1,671.5,0,1,experiment,NA,NA,1,0.7,0.3,2,3,55,2,NA
fcp-trial,89,519089,0.0-64.0-0.0,voc_e2,11740,"[{""event"":""fullscreenenter"",""trial"":1,""time"":2168}]",NA,NA,NA,NA,NA,2,#D8271C,#741CD8,0,10,0,38,1,2367.9000000059605,37,1,359.59999999403954,0,0,experiment,NA,NA,1,0.3,0.7,3,2,56,2,NA
fcp-trial,90,524417,0.0-65.0-0.0,voc_e2,11740,"[{""event"":""fullscreenenter"",""trial"":1,""time"":2168}]",NA,NA,NA,NA,NA,5,#3386FF,#D89F1C,0,10,0,38,1,3062.8999999910593,39,0,759.0999999940395,10,1,experiment,NA,NA,0,0.1,0.9,1,0,57,2,NA
fcp-trial,91,527914,0.0-66.0-0.0,voc_e2,11740,"[{""event"":""fullscreenenter"",""trial"":1,""time"":2168}]",NA,NA,NA,NA,NA,0,#FA92F8,#1CD855,10,0,0,38,1,1240.1000000089407,37,1,751.2999999970198,10,0,experiment,NA,NA,2,0.5,0.5,5,4,58,2,NA
fcp-trial,92,530481,0.0-67.0-0.0,voc_e2,11740,"[{""event"":""fullscreenenter"",""trial"":1,""time"":2168}]",NA,NA,NA,NA,NA,1,#741CD8,#D8271C,0,10,1,38,1,631.2999999970198,39,0,431.30000001192093,10,0,experiment,NA,NA,1,0.7,0.3,2,3,59,2,NA
fcp-trial,93,534394,0.0-68.0-0.0,voc_e2,11740,"[{""event"":""fullscreenenter"",""trial"":1,""time"":2168}]",NA,NA,NA,NA,NA,2,#1CD855,#FA92F8,0,0,1,38,1,1712.4000000059605,37,1,695.7000000029802,0,1,experiment,NA,NA,2,0.5,0.5,4,5,60,2,NA
fcp-trial,94,538048,0.0-69.0-0.0,voc_e2,11740,"[{""event"":""fullscreenenter"",""trial"":1,""time"":2168}]",NA,NA,NA,NA,NA,4,#D89F1C,#3386FF,10,0,1,38,1,1423.800000011921,39,0,727.3000000119209,0,0,experiment,NA,NA,0,0.9,0.1,0,1,61,2,NA
fcp-trial,95,540521,0.0-70.0-0.0,voc_e2,11740,"[{""event"":""fullscreenenter"",""trial"":1,""time"":2168}]",NA,NA,NA,NA,NA,6,#741CD8,#D8271C,10,10,1,38,1,633.1999999880791,37,1,335,10,1,experiment,NA,NA,1,0.7,0.3,2,3,62,2,NA
fcp-trial,96,542857,0.0-71.0-0.0,voc_e2,11740,"[{""event"":""fullscreenenter"",""trial"":1,""time"":2168}]",NA,NA,NA,NA,NA,0,#D89F1C,#3386FF,10,0,1,38,1,400.90000000596046,37,1,431.20000000298023,10,1,experiment,NA,NA,0,0.9,0.1,0,1,63,2,NA
fcp-trial,97,545274,0.0-72.0-0.0,voc_e2,11740,"[{""event"":""fullscreenenter"",""trial"":1,""time"":2168}]",NA,NA,NA,NA,NA,3,#FA92F8,#1CD855,0,10,0,38,1,408.29999999701977,37,1,503.09999999403954,0,0,experiment,NA,NA,2,0.5,0.5,5,4,64,2,NA
fcp-trial,98,547745,0.0-73.0-0.0,voc_e2,11740,"[{""event"":""fullscreenenter"",""trial"":1,""time"":2168}]",NA,NA,NA,NA,NA,3,#D89F1C,#3386FF,10,0,1,38,1,494.8999999910593,37,1,471.59999999403954,10,1,experiment,NA,NA,0,0.9,0.1,0,1,65,2,NA
fcp-trial,99,550217,0.0-74.0-0.0,voc_e2,11740,"[{""event"":""fullscreenenter"",""trial"":1,""time"":2168}]",NA,NA,NA,NA,NA,6,#3386FF,#D89F1C,0,10,0,38,1,496.09999999403954,37,1,471.40000000596046,0,0,experiment,NA,NA,0,0.1,0.9,1,0,66,2,NA
fcp-trial,100,552828,0.0-75.0-0.0,voc_e2,11740,"[{""event"":""fullscreenenter"",""trial"":1,""time"":2168}]",NA,NA,NA,NA,NA,2,#741CD8,#D8271C,10,0,1,38,1,584,39,0,522.5999999940395,0,0,experiment,NA,NA,1,0.7,0.3,2,3,67,2,NA
fcp-trial,101,555289,0.0-76.0-0.0,voc_e2,11740,"[{""event"":""fullscreenenter"",""trial"":1,""time"":2168}]",NA,NA,NA,NA,NA,1,#FA92F8,#1CD855,10,0,0,38,1,540.7000000029802,37,1,415.70000000298023,10,0,experiment,NA,NA,2,0.5,0.5,5,4,68,2,NA
fcp-trial,102,559219,0.0-77.0-0.0,voc_e2,11740,"[{""event"":""fullscreenenter"",""trial"":1,""time"":2168}]",NA,NA,NA,NA,NA,2,#1CD855,#FA92F8,10,10,1,38,1,1991.5,37,1,431.79999999701977,10,1,experiment,NA,NA,2,0.5,0.5,4,5,69,2,NA
fcp-trial,103,561665,0.0-78.0-0.0,voc_e2,11740,"[{""event"":""fullscreenenter"",""trial"":1,""time"":2168}]",NA,NA,NA,NA,NA,2,#D89F1C,#3386FF,10,0,1,38,1,518.0999999940395,37,1,422.8999999910593,10,1,experiment,NA,NA,0,0.9,0.1,0,1,70,2,NA
fcp-trial,104,564049,0.0-79.0-0.0,voc_e2,11740,"[{""event"":""fullscreenenter"",""trial"":1,""time"":2168}]",NA,NA,NA,NA,NA,5,#FA92F8,#1CD855,10,10,0,38,1,519.0999999940395,39,0,358.29999999701977,10,1,experiment,NA,NA,2,0.5,0.5,5,4,71,2,NA
fcp-trial,105,566450,0.0-80.0-0.0,voc_e2,11740,"[{""event"":""fullscreenenter"",""trial"":1,""time"":2168}]",NA,NA,NA,NA,NA,4,#741CD8,#D8271C,0,10,1,38,1,511.8999999910593,39,0,383,10,0,experiment,NA,NA,1,0.7,0.3,2,3,72,2,NA
fcp-trial,106,568777,0.0-81.0-0.0,voc_e2,11740,"[{""event"":""fullscreenenter"",""trial"":1,""time"":2168}]",NA,NA,NA,NA,NA,6,#D8271C,#741CD8,0,10,0,38,1,383.1000000089407,39,0,439.40000000596046,10,1,experiment,NA,NA,1,0.3,0.7,3,2,73,2,NA
fcp-trial,107,571129,0.0-82.0-0.0,voc_e2,11740,"[{""event"":""fullscreenenter"",""trial"":1,""time"":2168}]",NA,NA,NA,NA,NA,1,#741CD8,#D8271C,10,0,1,38,1,400.5,39,0,447.40000000596046,0,0,experiment,NA,NA,1,0.7,0.3,2,3,74,2,NA
fcp-trial,108,574889,0.0-83.0-0.0,voc_e2,11740,"[{""event"":""fullscreenenter"",""trial"":1,""time"":2168}]",NA,NA,NA,NA,NA,0,#D89F1C,#3386FF,10,0,1,38,1,1456.0999999940395,39,0,799.2999999970198,0,0,experiment,NA,NA,0,0.9,0.1,0,1,75,2,NA
fcp-trial,109,577809,0.0-84.0-0.0,voc_e2,11740,"[{""event"":""fullscreenenter"",""trial"":1,""time"":2168}]",NA,NA,NA,NA,NA,6,#1CD855,#FA92F8,10,0,1,38,1,920.9000000059605,37,1,495,10,1,experiment,NA,NA,2,0.5,0.5,4,5,76,2,NA
fcp-trial,110,580466,0.0-85.0-0.0,voc_e2,11740,"[{""event"":""fullscreenenter"",""trial"":1,""time"":2168}]",NA,NA,NA,NA,NA,1,#3386FF,#D89F1C,0,0,0,38,1,600.2000000029802,37,1,543,0,0,experiment,NA,NA,0,0.1,0.9,1,0,77,2,NA
fcp-trial,111,582681,0.0-86.0-0.0,voc_e2,11740,"[{""event"":""fullscreenenter"",""trial"":1,""time"":2168}]",NA,NA,NA,NA,NA,0,#D8271C,#741CD8,0,10,0,38,1,182.5,37,1,527.3000000119209,0,0,experiment,NA,NA,1,0.3,0.7,3,2,78,2,NA
fcp-trial,112,586058,0.0-87.0-0.0,voc_e2,11740,"[{""event"":""fullscreenenter"",""trial"":1,""time"":2168}]",NA,NA,NA,NA,NA,5,#3386FF,#D89F1C,0,10,0,38,1,799.9000000059605,39,0,1063.2000000029802,10,1,experiment,NA,NA,0,0.1,0.9,1,0,79,2,NA
fcp-trial,113,588164,0.0-88.0-0.0,voc_e2,11740,"[{""event"":""fullscreenenter"",""trial"":1,""time"":2168}]",NA,NA,NA,NA,NA,0,#1CD855,#FA92F8,0,0,1,38,1,47.8999999910593,37,1,549.2999999970198,0,1,experiment,NA,NA,2,0.5,0.5,4,5,80,2,NA
fcp-trial,114,591786,0.0-89.0-0.0,voc_e2,11740,"[{""event"":""fullscreenenter"",""trial"":1,""time"":2168}]",NA,NA,NA,NA,NA,4,#1CD855,#FA92F8,10,10,1,40,0,1430.7000000029802,37,1,685.5999999940395,10,1,experiment,NA,NA,2,0.5,0.5,4,5,81,2,NA
fcp-trial,115,594577,0.0-90.0-0.0,voc_e2,11740,"[{""event"":""fullscreenenter"",""trial"":1,""time"":2168}]",NA,NA,NA,NA,NA,4,#3386FF,#D89F1C,0,10,0,38,1,807.5,39,0,478.8999999910593,10,1,experiment,NA,NA,0,0.1,0.9,1,0,82,2,NA
fcp-trial,116,598225,0.0-91.0-0.0,voc_e2,11740,"[{""event"":""fullscreenenter"",""trial"":1,""time"":2168}]",NA,NA,NA,NA,NA,3,#741CD8,#D8271C,0,0,1,40,0,199,37,1,1943.5999999940395,0,1,experiment,NA,NA,1,0.7,0.3,2,3,83,2,NA
fcp-trial,117,601753,0.0-92.0-0.0,voc_e2,11740,"[{""event"":""fullscreenenter"",""trial"":1,""time"":2168}]",NA,NA,NA,NA,NA,5,#741CD8,#D8271C,0,0,1,38,1,545.2999999970198,39,0,1477.6000000089407,0,0,experiment,NA,NA,1,0.7,0.3,2,3,84,2,NA
fcp-trial,118,604148,0.0-93.0-0.0,voc_e2,11740,"[{""event"":""fullscreenenter"",""trial"":1,""time"":2168}]",NA,NA,NA,NA,NA,5,#3386FF,#D89F1C,0,10,0,38,1,432.20000000298023,37,1,456.70000000298023,0,0,experiment,NA,NA,0,0.1,0.9,1,0,85,2,NA
fcp-trial,119,608067,0.0-94.0-0.0,voc_e2,11740,"[{""event"":""fullscreenenter"",""trial"":1,""time"":2168}]",NA,NA,NA,NA,NA,2,#D89F1C,#3386FF,10,0,1,38,1,1964.2000000029802,37,1,445.20000000298023,10,1,experiment,NA,NA,0,0.9,0.1,0,1,86,2,NA
fcp-trial,120,610577,0.0-95.0-0.0,voc_e2,11740,"[{""event"":""fullscreenenter"",""trial"":1,""time"":2168}]",NA,NA,NA,NA,NA,4,#741CD8,#D8271C,10,0,1,38,1,486.09999999403954,39,0,519.2000000029802,0,0,experiment,NA,NA,1,0.7,0.3,2,3,87,2,NA
fcp-trial,121,613417,0.0-96.0-0.0,voc_e2,11740,"[{""event"":""fullscreenenter"",""trial"":1,""time"":2168}]",NA,NA,NA,NA,NA,3,#D8271C,#741CD8,10,0,0,38,1,722.9000000059605,39,0,612.5,0,1,experiment,NA,NA,1,0.3,0.7,3,2,88,2,NA
fcp-trial,122,617193,0.0-97.0-0.0,voc_e2,11740,"[{""event"":""fullscreenenter"",""trial"":1,""time"":2168}]",NA,NA,NA,NA,NA,1,#3386FF,#D89F1C,0,10,0,38,1,1471.9000000059605,37,1,799.5999999940395,0,0,experiment,NA,NA,0,0.1,0.9,1,0,89,2,NA
fcp-trial,123,621673,0.0-98.0-0.0,voc_e2,11740,"[{""event"":""fullscreenenter"",""trial"":1,""time"":2168}]",NA,NA,NA,NA,NA,3,#FA92F8,#1CD855,10,0,0,38,1,2400.7000000029802,39,0,574.7999999970198,0,1,experiment,NA,NA,2,0.5,0.5,5,4,90,2,NA
fcp-trial,124,626469,0.0-99.0-0.0,voc_e2,11740,"[{""event"":""fullscreenenter"",""trial"":1,""time"":2168}]",NA,NA,NA,NA,NA,0,#D8271C,#741CD8,0,10,0,38,1,407.90000000596046,39,0,2881.7999999970198,10,1,experiment,NA,NA,1,0.3,0.7,3,2,91,3,NA
fcp-trial,125,630289,0.0-100.0-0.0,voc_e2,11740,"[{""event"":""fullscreenenter"",""trial"":1,""time"":2168}]",NA,NA,NA,NA,NA,6,#3386FF,#D89F1C,0,10,0,38,1,1652.7000000029802,37,1,663.5,0,0,experiment,NA,NA,0,0.1,0.9,1,0,92,3,NA
fcp-trial,126,634049,0.0-101.0-0.0,voc_e2,11740,"[{""event"":""fullscreenenter"",""trial"":1,""time"":2168}]",NA,NA,NA,NA,NA,1,#FA92F8,#1CD855,0,10,0,38,1,1432.2999999970198,37,1,822,0,0,experiment,NA,NA,2,0.5,0.5,5,4,93,3,NA
fcp-trial,127,637713,0.0-102.0-0.0,voc_e2,11740,"[{""event"":""fullscreenenter"",""trial"":1,""time"":2168}]",NA,NA,NA,NA,NA,5,#1CD855,#FA92F8,10,0,1,38,1,1328.7000000029802,37,1,830.5,10,1,experiment,NA,NA,2,0.5,0.5,4,5,94,3,NA
fcp-trial,128,640629,0.0-103.0-0.0,voc_e2,11740,"[{""event"":""fullscreenenter"",""trial"":1,""time"":2168}]",NA,NA,NA,NA,NA,6,#1CD855,#FA92F8,0,10,1,38,1,735.6000000089407,37,1,663.6000000089407,0,1,experiment,NA,NA,2,0.5,0.5,4,5,95,3,NA
fcp-trial,129,643177,0.0-104.0-0.0,voc_e2,11740,"[{""event"":""fullscreenenter"",""trial"":1,""time"":2168}]",NA,NA,NA,NA,NA,2,#D8271C,#741CD8,0,10,0,38,1,522.1000000089407,39,0,519.1000000089407,10,1,experiment,NA,NA,1,0.3,0.7,3,2,96,3,NA
fcp-trial,130,646681,0.0-105.0-0.0,voc_e2,11740,"[{""event"":""fullscreenenter"",""trial"":1,""time"":2168}]",NA,NA,NA,NA,NA,0,#D89F1C,#3386FF,10,0,1,38,1,984.5999999940395,37,1,1015.5,10,1,experiment,NA,NA,0,0.9,0.1,0,1,97,3,NA
fcp-trial,131,649161,0.0-106.0-0.0,voc_e2,11740,"[{""event"":""fullscreenenter"",""trial"":1,""time"":2168}]",NA,NA,NA,NA,NA,0,#1CD855,#FA92F8,0,10,1,38,1,472.40000000596046,39,0,501.79999999701977,10,0,experiment,NA,NA,2,0.5,0.5,4,5,98,3,NA
fcp-trial,132,651681,0.0-107.0-0.0,voc_e2,11740,"[{""event"":""fullscreenenter"",""trial"":1,""time"":2168}]",NA,NA,NA,NA,NA,6,#741CD8,#D8271C,10,0,1,38,1,632.4000000059605,37,1,383.1000000089407,10,1,experiment,NA,NA,1,0.7,0.3,2,3,99,3,NA
fcp-trial,133,654442,0.0-108.0-0.0,voc_e2,11740,"[{""event"":""fullscreenenter"",""trial"":1,""time"":2168}]",NA,NA,NA,NA,NA,5,#741CD8,#D8271C,10,0,1,38,1,688.1000000089407,39,0,566.7999999970198,0,0,experiment,NA,NA,1,0.7,0.3,2,3,100,3,NA
fcp-trial,134,659009,0.0-109.0-0.0,voc_e2,11740,"[{""event"":""fullscreenenter"",""trial"":1,""time"":2168}]",NA,NA,NA,NA,NA,4,#FA92F8,#1CD855,10,10,0,38,1,2373.2999999970198,37,1,687.7999999970198,10,0,experiment,NA,NA,2,0.5,0.5,5,4,101,3,NA
fcp-trial,135,661513,0.0-110.0-0.0,voc_e2,11740,"[{""event"":""fullscreenenter"",""trial"":1,""time"":2168}]",NA,NA,NA,NA,NA,4,#D89F1C,#3386FF,10,0,1,38,1,538.0999999940395,39,0,461.5,0,0,experiment,NA,NA,0,0.9,0.1,0,1,102,3,NA
fcp-trial,136,663961,0.0-111.0-0.0,voc_e2,11740,"[{""event"":""fullscreenenter"",""trial"":1,""time"":2168}]",NA,NA,NA,NA,NA,1,#741CD8,#D8271C,10,0,1,38,1,521.2000000029802,37,1,422.29999999701977,10,1,experiment,NA,NA,1,0.7,0.3,2,3,103,3,NA
fcp-trial,137,666353,0.0-112.0-0.0,voc_e2,11740,"[{""event"":""fullscreenenter"",""trial"":1,""time"":2168}]",NA,NA,NA,NA,NA,3,#D89F1C,#3386FF,10,0,1,38,1,464.5,39,0,416.6000000089407,0,0,experiment,NA,NA,0,0.9,0.1,0,1,104,3,NA
fcp-trial,138,668688,0.0-113.0-0.0,voc_e2,11740,"[{""event"":""fullscreenenter"",""trial"":1,""time"":2168}]",NA,NA,NA,NA,NA,2,#FA92F8,#1CD855,10,0,0,38,1,414.40000000596046,37,1,412.69999998807907,10,0,experiment,NA,NA,2,0.5,0.5,5,4,105,3,NA
audio-instructions,139,793923,0.0-114.0,voc_e2,11740,"[{""event"":""fullscreenenter"",""trial"":1,""time"":2168}]",NA,120756.19999998808,static/audio/pause.wav,NA,0,NA,NA,NA,NA,NA,NA,NA,NA,NA,NA,NA,NA,NA,NA,NA,NA,NA,NA,NA,NA,NA,NA,NA,NA,NA
fcp-trial,140,797256,0.0-115.0-0.0,voc_e2,11740,"[{""event"":""fullscreenenter"",""trial"":1,""time"":2168}]",NA,NA,NA,NA,NA,3,#D8271C,#741CD8,0,0,0,38,1,1229.9000000059605,39,0,598.7999999970198,0,1,experiment,NA,NA,1,0.3,0.7,3,2,106,3,NA
fcp-trial,141,799745,0.0-116.0-0.0,voc_e2,11740,"[{""event"":""fullscreenenter"",""trial"":1,""time"":2168}]",NA,NA,NA,NA,NA,0,#1CD855,#FA92F8,0,0,1,38,1,361.70000000298023,37,1,621.0999999940395,0,1,experiment,NA,NA,2,0.5,0.5,4,5,107,3,NA
fcp-trial,142,802545,0.0-117.0-0.0,voc_e2,11740,"[{""event"":""fullscreenenter"",""trial"":1,""time"":2168}]",NA,NA,NA,NA,NA,6,#3386FF,#D89F1C,0,10,0,38,1,479.80000001192093,39,0,814.4000000059605,10,1,experiment,NA,NA,0,0.1,0.9,1,0,108,3,NA
fcp-trial,143,805008,0.0-118.0-0.0,voc_e2,11740,"[{""event"":""fullscreenenter"",""trial"":1,""time"":2168}]",NA,NA,NA,NA,NA,2,#1CD855,#FA92F8,10,10,1,38,1,447.09999999403954,37,1,511.19999998807907,10,1,experiment,NA,NA,2,0.5,0.5,4,5,109,3,NA
fcp-trial,144,807464,0.0-119.0-0.0,voc_e2,11740,"[{""event"":""fullscreenenter"",""trial"":1,""time"":2168}]",NA,NA,NA,NA,NA,6,#1CD855,#FA92F8,10,10,1,38,1,375.40000000596046,39,0,575.7000000029802,10,0,experiment,NA,NA,2,0.5,0.5,4,5,110,3,NA
fcp-trial,145,809865,0.0-120.0-0.0,voc_e2,11740,"[{""event"":""fullscreenenter"",""trial"":1,""time"":2168}]",NA,NA,NA,NA,NA,5,#741CD8,#D8271C,10,0,1,38,1,480.79999999701977,37,1,414.69999998807907,10,1,experiment,NA,NA,1,0.7,0.3,2,3,111,3,NA
fcp-trial,146,812264,0.0-121.0-0.0,voc_e2,11740,"[{""event"":""fullscreenenter"",""trial"":1,""time"":2168}]",NA,NA,NA,NA,NA,3,#1CD855,#FA92F8,10,0,1,38,1,502.69999998807907,39,0,391.29999999701977,0,0,experiment,NA,NA,2,0.5,0.5,4,5,112,3,NA
fcp-trial,147,814624,0.0-122.0-0.0,voc_e2,11740,"[{""event"":""fullscreenenter"",""trial"":1,""time"":2168}]",NA,NA,NA,NA,NA,5,#3386FF,#D89F1C,0,10,0,38,1,406.6000000089407,37,1,446.90000000596046,0,0,experiment,NA,NA,0,0.1,0.9,1,0,113,3,NA
fcp-trial,148,817192,0.0-123.0-0.0,voc_e2,11740,"[{""event"":""fullscreenenter"",""trial"":1,""time"":2168}]",NA,NA,NA,NA,NA,1,#3386FF,#D89F1C,10,10,0,38,1,594.2999999970198,39,0,470.1000000089407,10,1,experiment,NA,NA,0,0.1,0.9,1,0,114,3,NA
fcp-trial,149,820600,0.0-124.0-0.0,voc_e2,11740,"[{""event"":""fullscreenenter"",""trial"":1,""time"":2168}]",NA,NA,NA,NA,NA,0,#741CD8,#D8271C,0,0,1,40,0,1320.1000000089407,37,1,583.5,0,1,experiment,NA,NA,1,0.7,0.3,2,3,115,3,NA
fcp-trial,150,824392,0.0-125.0-0.0,voc_e2,11740,"[{""event"":""fullscreenenter"",""trial"":1,""time"":2168}]",NA,NA,NA,NA,NA,1,#741CD8,#D8271C,10,0,1,38,1,1025.0999999940395,37,1,1261.7000000029802,10,1,experiment,NA,NA,1,0.7,0.3,2,3,116,3,NA
fcp-trial,151,826985,0.0-126.0-0.0,voc_e2,11740,"[{""event"":""fullscreenenter"",""trial"":1,""time"":2168}]",NA,NA,NA,NA,NA,5,#FA92F8,#1CD855,10,0,0,38,1,712.7000000029802,39,0,376,0,1,experiment,NA,NA,2,0.5,0.5,5,4,117,3,NA
fcp-trial,152,828896,0.0-127.0-0.0,voc_e2,11740,"[{""event"":""fullscreenenter"",""trial"":1,""time"":2168}]",NA,NA,NA,NA,NA,3,#D89F1C,#3386FF,10,0,1,38,1,38.20000000298023,37,1,367.79999999701977,10,1,experiment,NA,NA,0,0.9,0.1,0,1,118,3,NA
fcp-trial,153,831457,0.0-128.0-0.0,voc_e2,11740,"[{""event"":""fullscreenenter"",""trial"":1,""time"":2168}]",NA,NA,NA,NA,NA,2,#D89F1C,#3386FF,10,0,1,38,1,144,37,1,911.7000000029802,10,1,experiment,NA,NA,0,0.9,0.1,0,1,119,3,NA
fcp-trial,154,834232,0.0-129.0-0.0,voc_e2,11740,"[{""event"":""fullscreenenter"",""trial"":1,""time"":2168}]",NA,NA,NA,NA,NA,4,#FA92F8,#1CD855,10,0,0,38,1,728.8999999910593,39,0,541.1000000089407,0,1,experiment,NA,NA,2,0.5,0.5,5,4,120,3,NA
fcp-trial,155,836504,0.0-130.0-0.0,voc_e2,11740,"[{""event"":""fullscreenenter"",""trial"":1,""time"":2168}]",NA,NA,NA,NA,NA,4,#741CD8,#D8271C,10,0,1,38,1,376.70000000298023,39,0,390.20000000298023,0,0,experiment,NA,NA,1,0.7,0.3,2,3,121,3,NA
fcp-trial,156,839328,0.0-131.0-0.0,voc_e2,11740,"[{""event"":""fullscreenenter"",""trial"":1,""time"":2168}]",NA,NA,NA,NA,NA,0,#3386FF,#D89F1C,0,10,0,38,1,928.4000000059605,37,1,390.80000001192093,0,0,experiment,NA,NA,0,0.1,0.9,1,0,122,3,NA
fcp-trial,157,841705,0.0-132.0-0.0,voc_e2,11740,"[{""event"":""fullscreenenter"",""trial"":1,""time"":2168}]",NA,NA,NA,NA,NA,2,#741CD8,#D8271C,10,0,1,38,1,607,37,1,263.5,10,1,experiment,NA,NA,1,0.7,0.3,2,3,123,3,NA
fcp-trial,158,844137,0.0-133.0-0.0,voc_e2,11740,"[{""event"":""fullscreenenter"",""trial"":1,""time"":2168}]",NA,NA,NA,NA,NA,4,#3386FF,#D89F1C,10,0,0,38,1,647.9000000059605,37,1,279.20000000298023,10,0,experiment,NA,NA,0,0.1,0.9,1,0,124,3,NA
fcp-trial,159,847489,0.0-134.0-0.0,voc_e2,11740,"[{""event"":""fullscreenenter"",""trial"":1,""time"":2168}]",NA,NA,NA,NA,NA,1,#FA92F8,#1CD855,0,0,0,38,1,1471.7000000029802,37,1,375.1000000089407,0,0,experiment,NA,NA,2,0.5,0.5,5,4,125,3,NA
fcp-trial,160,850112,0.0-135.0-0.0,voc_e2,11740,"[{""event"":""fullscreenenter"",""trial"":1,""time"":2168}]",NA,NA,NA,NA,NA,6,#741CD8,#D8271C,10,0,1,38,1,528.7999999970198,39,0,590.1000000089407,0,0,experiment,NA,NA,1,0.7,0.3,2,3,126,3,NA
fcp-trial,161,852160,0.0-136.0-0.0,voc_e2,11740,"[{""event"":""fullscreenenter"",""trial"":1,""time"":2168}]",NA,NA,NA,NA,NA,3,#D8271C,#741CD8,0,0,0,38,1,272.70000000298023,37,1,270.90000000596046,0,0,experiment,NA,NA,1,0.3,0.7,3,2,127,3,NA
fcp-trial,162,855000,0.0-137.0-0.0,voc_e2,11740,"[{""event"":""fullscreenenter"",""trial"":1,""time"":2168}]",NA,NA,NA,NA,NA,0,#D89F1C,#3386FF,10,0,1,38,1,760.9000000059605,39,0,574.6000000089407,0,0,experiment,NA,NA,0,0.9,0.1,0,1,128,3,NA
fcp-trial,163,858072,0.0-138.0-0.0,voc_e2,11740,"[{""event"":""fullscreenenter"",""trial"":1,""time"":2168}]",NA,NA,NA,NA,NA,5,#1CD855,#FA92F8,10,10,1,38,1,503.79999999701977,37,1,1063,10,1,experiment,NA,NA,2,0.5,0.5,4,5,129,3,NA
fcp-trial,164,860320,0.0-139.0-0.0,voc_e2,11740,"[{""event"":""fullscreenenter"",""trial"":1,""time"":2168}]",NA,NA,NA,NA,NA,1,#1CD855,#FA92F8,0,0,1,38,1,457.59999999403954,37,1,284.8999999910593,0,1,experiment,NA,NA,2,0.5,0.5,4,5,130,3,NA
fcp-trial,165,862648,0.0-140.0-0.0,voc_e2,11740,"[{""event"":""fullscreenenter"",""trial"":1,""time"":2168}]",NA,NA,NA,NA,NA,3,#D89F1C,#3386FF,10,0,1,38,1,383.79999999701977,37,1,439.20000000298023,10,1,experiment,NA,NA,0,0.9,0.1,0,1,131,3,NA
fcp-trial,166,864593,0.0-141.0-0.0,voc_e2,11740,"[{""event"":""fullscreenenter"",""trial"":1,""time"":2168}]",NA,NA,NA,NA,NA,0,#D8271C,#741CD8,0,10,0,38,1,184.29999999701977,37,1,253.09999999403954,0,0,experiment,NA,NA,1,0.3,0.7,3,2,132,3,NA
fcp-trial,167,866568,0.0-142.0-0.0,voc_e2,11740,"[{""event"":""fullscreenenter"",""trial"":1,""time"":2168}]",NA,NA,NA,NA,NA,4,#FA92F8,#1CD855,10,0,0,38,1,28.700000002980232,37,1,442.5,10,0,experiment,NA,NA,2,0.5,0.5,5,4,133,3,NA
fcp-trial,168,868600,0.0-143.0-0.0,voc_e2,11740,"[{""event"":""fullscreenenter"",""trial"":1,""time"":2168}]",NA,NA,NA,NA,NA,1,#741CD8,#D8271C,10,10,1,38,1,87.8999999910593,37,1,439.09999999403954,10,1,experiment,NA,NA,1,0.7,0.3,2,3,134,3,NA
fcp-trial,169,870729,0.0-144.0-0.0,voc_e2,11740,"[{""event"":""fullscreenenter"",""trial"":1,""time"":2168}]",NA,NA,NA,NA,NA,2,#FA92F8,#1CD855,0,0,0,38,1,138.5,37,1,484.19999998807907,0,0,experiment,NA,NA,2,0.5,0.5,5,4,135,3,NA
fcp-trial,170,872813,0.0-145.0-0.0,voc_e2,11740,"[{""event"":""fullscreenenter"",""trial"":1,""time"":2168}]",NA,NA,NA,NA,NA,6,#D89F1C,#3386FF,10,0,1,38,1,223.69999998807907,39,0,350.90000000596046,0,0,experiment,NA,NA,0,0.9,0.1,0,1,136,4,NA
fcp-trial,171,875568,0.0-146.0-0.0,voc_e2,11740,"[{""event"":""fullscreenenter"",""trial"":1,""time"":2168}]",NA,NA,NA,NA,NA,4,#D89F1C,#3386FF,10,0,1,38,1,832.5,37,1,415.5,10,1,experiment,NA,NA,0,0.9,0.1,0,1,137,4,NA
fcp-trial,172,877688,0.0-147.0-0.0,voc_e2,11740,"[{""event"":""fullscreenenter"",""trial"":1,""time"":2168}]",NA,NA,NA,NA,NA,5,#741CD8,#D8271C,10,10,1,38,1,95.90000000596046,37,1,518.8999999910593,10,1,experiment,NA,NA,1,0.7,0.3,2,3,138,4,NA
fcp-trial,173,880169,0.0-148.0-0.0,voc_e2,11740,"[{""event"":""fullscreenenter"",""trial"":1,""time"":2168}]",NA,NA,NA,NA,NA,3,#1CD855,#FA92F8,10,10,1,38,1,432.5,37,1,544.5999999940395,10,1,experiment,NA,NA,2,0.5,0.5,4,5,139,4,NA
fcp-trial,174,882368,0.0-149.0-0.0,voc_e2,11740,"[{""event"":""fullscreenenter"",""trial"":1,""time"":2168}]",NA,NA,NA,NA,NA,2,#3386FF,#D89F1C,0,10,0,38,1,255.1000000089407,37,1,439.6000000089407,0,0,experiment,NA,NA,0,0.1,0.9,1,0,140,4,NA
fcp-trial,175,884456,0.0-150.0-0.0,voc_e2,11740,"[{""event"":""fullscreenenter"",""trial"":1,""time"":2168}]",NA,NA,NA,NA,NA,5,#3386FF,#D89F1C,0,10,0,38,1,150.1000000089407,37,1,432,0,0,experiment,NA,NA,0,0.1,0.9,1,0,141,4,NA
fcp-trial,176,887378,0.0-151.0-0.0,voc_e2,11740,"[{""event"":""fullscreenenter"",""trial"":1,""time"":2168}]",NA,NA,NA,NA,NA,4,#D8271C,#741CD8,0,10,0,38,1,726.7999999970198,39,0,689.2000000029802,10,1,experiment,NA,NA,1,0.3,0.7,3,2,142,4,NA
fcp-trial,177,889736,0.0-152.0-0.0,voc_e2,11740,"[{""event"":""fullscreenenter"",""trial"":1,""time"":2168}]",NA,NA,NA,NA,NA,6,#FA92F8,#1CD855,0,10,0,38,1,591,37,1,263.30000001192093,0,0,experiment,NA,NA,2,0.5,0.5,5,4,143,4,NA
fcp-trial,178,892168,0.0-153.0-0.0,voc_e2,11740,"[{""event"":""fullscreenenter"",""trial"":1,""time"":2168}]",NA,NA,NA,NA,NA,1,#D89F1C,#3386FF,10,0,1,38,1,448,37,1,479.70000000298023,10,1,experiment,NA,NA,0,0.9,0.1,0,1,144,4,NA
fcp-trial,179,894104,0.0-154.0-0.0,voc_e2,11740,"[{""event"":""fullscreenenter"",""trial"":1,""time"":2168}]",NA,NA,NA,NA,NA,2,#741CD8,#D8271C,10,0,1,38,1,144.8999999910593,39,0,287.29999999701977,0,0,experiment,NA,NA,1,0.7,0.3,2,3,145,4,NA
fcp-trial,180,896680,0.0-155.0-0.0,voc_e2,11740,"[{""event"":""fullscreenenter"",""trial"":1,""time"":2168}]",NA,NA,NA,NA,NA,6,#D8271C,#741CD8,10,0,0,38,1,615.9000000059605,37,1,455.29999999701977,10,0,experiment,NA,NA,1,0.3,0.7,3,2,146,4,NA
fcp-trial,181,898944,0.0-156.0-0.0,voc_e2,11740,"[{""event"":""fullscreenenter"",""trial"":1,""time"":2168}]",NA,NA,NA,NA,NA,0,#FA92F8,#1CD855,0,0,0,38,1,349.90000000596046,37,1,407,0,0,experiment,NA,NA,2,0.5,0.5,5,4,147,4,NA
fcp-trial,182,901320,0.0-157.0-0.0,voc_e2,11740,"[{""event"":""fullscreenenter"",""trial"":1,""time"":2168}]",NA,NA,NA,NA,NA,2,#3386FF,#D89F1C,0,10,0,38,1,408.79999999701977,37,1,463.20000000298023,0,0,experiment,NA,NA,0,0.1,0.9,1,0,148,4,NA
fcp-trial,183,903536,0.0-158.0-0.0,voc_e2,11740,"[{""event"":""fullscreenenter"",""trial"":1,""time"":2168}]",NA,NA,NA,NA,NA,4,#D8271C,#741CD8,10,0,0,38,1,438,39,0,271.20000000298023,0,1,experiment,NA,NA,1,0.3,0.7,3,2,149,4,NA
fcp-trial,184,905831,0.0-159.0-0.0,voc_e2,11740,"[{""event"":""fullscreenenter"",""trial"":1,""time"":2168}]",NA,NA,NA,NA,NA,5,#D8271C,#741CD8,0,0,0,38,1,344.20000000298023,37,1,447.20000000298023,0,0,experiment,NA,NA,1,0.3,0.7,3,2,150,4,NA
fcp-trial,185,908532,0.0-160.0-0.0,voc_e2,11740,"[{""event"":""fullscreenenter"",""trial"":1,""time"":2168}]",NA,NA,NA,NA,NA,3,#FA92F8,#1CD855,0,0,0,38,1,672.8999999910593,37,1,523.4000000059605,0,0,experiment,NA,NA,2,0.5,0.5,5,4,151,4,NA
fcp-trial,186,911009,0.0-161.0-0.0,voc_e2,11740,"[{""event"":""fullscreenenter"",""trial"":1,""time"":2168}]",NA,NA,NA,NA,NA,4,#1CD855,#FA92F8,10,0,1,38,1,508.20000000298023,37,1,462.79999999701977,10,1,experiment,NA,NA,2,0.5,0.5,4,5,152,4,NA
fcp-trial,187,913186,0.0-162.0-0.0,voc_e2,11740,"[{""event"":""fullscreenenter"",""trial"":1,""time"":2168}]",NA,NA,NA,NA,NA,4,#3386FF,#D89F1C,0,10,0,38,1,368.1000000089407,39,0,304.80000001192093,10,1,experiment,NA,NA,0,0.1,0.9,1,0,153,4,NA
fcp-trial,188,916984,0.0-163.0-0.0,voc_e2,11740,"[{""event"":""fullscreenenter"",""trial"":1,""time"":2168}]",NA,NA,NA,NA,NA,3,#741CD8,#D8271C,10,0,1,38,1,566.7000000029802,39,0,1725.9000000059605,0,0,experiment,NA,NA,1,0.7,0.3,2,3,154,4,NA
fcp-trial,189,919929,0.0-164.0-0.0,voc_e2,11740,"[{""event"":""fullscreenenter"",""trial"":1,""time"":2168}]",NA,NA,NA,NA,NA,3,#3386FF,#D89F1C,0,10,0,38,1,425,37,1,1013.2999999970198,0,0,experiment,NA,NA,0,0.1,0.9,1,0,155,4,NA
fcp-trial,190,922256,0.0-165.0-0.0,voc_e2,11740,"[{""event"":""fullscreenenter"",""trial"":1,""time"":2168}]",NA,NA,NA,NA,NA,5,#FA92F8,#1CD855,10,0,0,38,1,184.40000000596046,37,1,639.7000000029802,10,0,experiment,NA,NA,2,0.5,0.5,5,4,156,4,NA
fcp-trial,191,924331,0.0-166.0-0.0,voc_e2,11740,"[{""event"":""fullscreenenter"",""trial"":1,""time"":2168}]",NA,NA,NA,NA,NA,5,#3386FF,#D89F1C,0,10,0,38,1,263.5,37,1,305.09999999403954,0,0,experiment,NA,NA,0,0.1,0.9,1,0,157,4,NA
fcp-trial,192,927152,0.0-167.0-0.0,voc_e2,11740,"[{""event"":""fullscreenenter"",""trial"":1,""time"":2168}]",NA,NA,NA,NA,NA,6,#D8271C,#741CD8,0,10,0,38,1,534.2999999970198,37,1,783,0,0,experiment,NA,NA,1,0.3,0.7,3,2,158,4,NA
fcp-trial,193,929488,0.0-168.0-0.0,voc_e2,11740,"[{""event"":""fullscreenenter"",""trial"":1,""time"":2168}]",NA,NA,NA,NA,NA,1,#FA92F8,#1CD855,10,10,0,38,1,465,39,0,366.79999999701977,10,1,experiment,NA,NA,2,0.5,0.5,5,4,159,4,NA
fcp-trial,194,931992,0.0-169.0-0.0,voc_e2,11740,"[{""event"":""fullscreenenter"",""trial"":1,""time"":2168}]",NA,NA,NA,NA,NA,2,#1CD855,#FA92F8,0,10,1,38,1,745.5999999940395,39,0,253.90000000596046,10,0,experiment,NA,NA,2,0.5,0.5,4,5,160,4,NA
fcp-trial,195,934139,0.0-170.0-0.0,voc_e2,11740,"[{""event"":""fullscreenenter"",""trial"":1,""time"":2168}]",NA,NA,NA,NA,NA,2,#741CD8,#D8271C,0,0,1,38,1,152.5,39,0,489.09999999403954,0,0,experiment,NA,NA,1,0.7,0.3,2,3,161,4,NA
fcp-trial,196,936904,0.0-171.0-0.0,voc_e2,11740,"[{""event"":""fullscreenenter"",""trial"":1,""time"":2168}]",NA,NA,NA,NA,NA,6,#D89F1C,#3386FF,10,0,1,38,1,469.40000000596046,39,0,790.8000000119209,0,0,experiment,NA,NA,0,0.9,0.1,0,1,162,4,NA
fcp-trial,197,939241,0.0-172.0-0.0,voc_e2,11740,"[{""event"":""fullscreenenter"",""trial"":1,""time"":2168}]",NA,NA,NA,NA,NA,0,#1CD855,#FA92F8,0,10,1,38,1,552.5,39,0,279.29999999701977,10,0,experiment,NA,NA,2,0.5,0.5,4,5,163,4,NA
fcp-trial,198,942625,0.0-173.0-0.0,voc_e2,11740,"[{""event"":""fullscreenenter"",""trial"":1,""time"":2168}]",NA,NA,NA,NA,NA,0,#D89F1C,#3386FF,10,0,1,38,1,486.79999999701977,37,1,1390.7999999970198,10,1,experiment,NA,NA,0,0.9,0.1,0,1,164,4,NA
fcp-trial,199,946555,0.0-174.0-0.0,voc_e2,11740,"[{""event"":""fullscreenenter"",""trial"":1,""time"":2168}]",NA,NA,NA,NA,NA,1,#3386FF,#D89F1C,0,10,0,38,1,832.2000000029802,39,0,1592.9000000059605,10,1,experiment,NA,NA,0,0.1,0.9,1,0,165,4,NA
fcp-trial,200,948874,0.0-175.0-0.0,voc_e2,11740,"[{""event"":""fullscreenenter"",""trial"":1,""time"":2168}]",NA,NA,NA,NA,NA,1,#D8271C,#741CD8,0,10,0,38,1,295.09999999403954,37,1,518.2999999970198,0,0,experiment,NA,NA,1,0.3,0.7,3,2,166,4,NA
fcp-trial,201,950976,0.0-176.0-0.0,voc_e2,11740,"[{""event"":""fullscreenenter"",""trial"":1,""time"":2168}]",NA,NA,NA,NA,NA,6,#1CD855,#FA92F8,10,0,1,38,1,286.79999999701977,39,0,311,0,0,experiment,NA,NA,2,0.5,0.5,4,5,167,4,NA
fcp-trial,202,954369,0.0-177.0-0.0,voc_e2,11740,"[{""event"":""fullscreenenter"",""trial"":1,""time"":2168}]",NA,NA,NA,NA,NA,0,#D8271C,#741CD8,10,10,0,38,1,920.7999999970198,39,0,967,10,1,experiment,NA,NA,1,0.3,0.7,3,2,168,4,NA
fcp-trial,203,956457,0.0-178.0-0.0,voc_e2,11740,"[{""event"":""fullscreenenter"",""trial"":1,""time"":2168}]",NA,NA,NA,NA,NA,2,#FA92F8,#1CD855,0,0,0,40,0,121.3999999910593,37,1,462.5,0,0,experiment,NA,NA,2,0.5,0.5,5,4,169,4,NA
fcp-trial,204,960033,0.0-179.0-0.0,voc_e2,11740,"[{""event"":""fullscreenenter"",""trial"":1,""time"":2168}]",NA,NA,NA,NA,NA,0,#1CD855,#FA92F8,0,0,1,40,0,1663.1000000089407,39,0,408,0,0,experiment,NA,NA,2,0.5,0.5,4,5,170,4,NA
fcp-trial,205,962436,0.0-180.0-0.0,voc_e2,11740,"[{""event"":""fullscreenenter"",""trial"":1,""time"":2168}]",NA,NA,NA,NA,NA,1,#D8271C,#741CD8,0,10,0,38,1,512.7999999970198,37,1,384.09999999403954,0,0,experiment,NA,NA,1,0.3,0.7,3,2,171,4,NA
fcp-trial,206,965473,0.0-181.0-0.0,voc_e2,11740,"[{""event"":""fullscreenenter"",""trial"":1,""time"":2168}]",NA,NA,NA,NA,NA,4,#D89F1C,#3386FF,10,0,1,38,1,1069,37,1,463.09999999403954,10,1,experiment,NA,NA,0,0.9,0.1,0,1,172,4,NA
fcp-trial,207,967577,0.0-182.0-0.0,voc_e2,11740,"[{""event"":""fullscreenenter"",""trial"":1,""time"":2168}]",NA,NA,NA,NA,NA,1,#3386FF,#D89F1C,0,0,0,38,1,129.30000001192093,37,1,470.5,0,0,experiment,NA,NA,0,0.1,0.9,1,0,173,4,NA
fcp-trial,208,969881,0.0-183.0-0.0,voc_e2,11740,"[{""event"":""fullscreenenter"",""trial"":1,""time"":2168}]",NA,NA,NA,NA,NA,1,#1CD855,#FA92F8,0,10,1,38,1,423.70000000298023,39,0,372.79999999701977,10,0,experiment,NA,NA,2,0.5,0.5,4,5,174,4,NA
fcp-trial,209,972129,0.0-184.0-0.0,voc_e2,11740,"[{""event"":""fullscreenenter"",""trial"":1,""time"":2168}]",NA,NA,NA,NA,NA,0,#D89F1C,#3386FF,10,0,1,38,1,409.19999998807907,37,1,335.20000000298023,10,1,experiment,NA,NA,0,0.9,0.1,0,1,175,4,NA
fcp-trial,210,974441,0.0-185.0-0.0,voc_e2,11740,"[{""event"":""fullscreenenter"",""trial"":1,""time"":2168}]",NA,NA,NA,NA,NA,6,#D8271C,#741CD8,0,10,0,38,1,487.70000000298023,37,1,319.5,0,0,experiment,NA,NA,1,0.3,0.7,3,2,176,4,NA
fcp-trial,211,977883,0.0-186.0-0.0,voc_e2,11740,"[{""event"":""fullscreenenter"",""trial"":1,""time"":2168}]",NA,NA,NA,NA,NA,4,#FA92F8,#1CD855,10,10,0,38,1,1496.0999999940395,37,1,441,10,0,experiment,NA,NA,2,0.5,0.5,5,4,177,4,NA
fcp-trial,212,979849,0.0-187.0-0.0,voc_e2,11740,"[{""event"":""fullscreenenter"",""trial"":1,""time"":2168}]",NA,NA,NA,NA,NA,6,#D89F1C,#3386FF,10,0,1,38,1,37.400000005960464,37,1,423.29999999701977,10,1,experiment,NA,NA,0,0.9,0.1,0,1,178,4,NA
fcp-trial,213,984161,0.0-188.0-0.0,voc_e2,11740,"[{""event"":""fullscreenenter"",""trial"":1,""time"":2168}]",NA,NA,NA,NA,NA,5,#741CD8,#D8271C,0,10,1,38,1,2477.2999999970198,37,1,327.09999999403954,0,1,experiment,NA,NA,1,0.7,0.3,2,3,179,4,NA
fcp-trial,214,986080,0.0-189.0-0.0,voc_e2,11740,"[{""event"":""fullscreenenter"",""trial"":1,""time"":2168}]",NA,NA,NA,NA,NA,4,#741CD8,#D8271C,0,0,1,38,1,160.3999999910593,37,1,254.59999999403954,0,1,experiment,NA,NA,1,0.7,0.3,2,3,180,4,NA
fcp-trial,215,989097,0.0-190.0-0.0,voc_e2,11740,"[{""event"":""fullscreenenter"",""trial"":1,""time"":2168}]",NA,NA,NA,NA,NA,5,#FA92F8,#1CD855,0,10,0,38,1,1087.3999999910593,37,1,423.5,0,0,experiment,NA,NA,2,0.5,0.5,5,4,181,5,NA
fcp-trial,216,991850,0.0-191.0-0.0,voc_e2,11740,"[{""event"":""fullscreenenter"",""trial"":1,""time"":2168}]",NA,NA,NA,NA,NA,3,#3386FF,#D89F1C,0,10,0,38,1,856,37,1,391.1000000089407,0,0,experiment,NA,NA,0,0.1,0.9,1,0,182,5,NA
fcp-trial,217,994208,0.0-192.0-0.0,voc_e2,11740,"[{""event"":""fullscreenenter"",""trial"":1,""time"":2168}]",NA,NA,NA,NA,NA,2,#D8271C,#741CD8,0,10,0,38,1,406.79999999701977,37,1,447.59999999403954,0,0,experiment,NA,NA,1,0.3,0.7,3,2,183,5,NA
fcp-trial,218,996248,0.0-193.0-0.0,voc_e2,11740,"[{""event"":""fullscreenenter"",""trial"":1,""time"":2168}]",NA,NA,NA,NA,NA,5,#3386FF,#D89F1C,0,10,0,38,1,192.6000000089407,37,1,342.69999998807907,0,0,experiment,NA,NA,0,0.1,0.9,1,0,184,5,NA
fcp-trial,219,998329,0.0-194.0-0.0,voc_e2,11740,"[{""event"":""fullscreenenter"",""trial"":1,""time"":2168}]",NA,NA,NA,NA,NA,3,#FA92F8,#1CD855,10,10,0,38,1,217.70000000298023,37,1,356.70000000298023,10,0,experiment,NA,NA,2,0.5,0.5,5,4,185,5,NA
fcp-trial,220,1000490,0.0-195.0-0.0,voc_e2,11740,"[{""event"":""fullscreenenter"",""trial"":1,""time"":2168}]",NA,NA,NA,NA,NA,0,#D8271C,#741CD8,0,10,0,38,1,279.59999999403954,39,0,377.5,10,1,experiment,NA,NA,1,0.3,0.7,3,2,186,5,NA
fcp-trial,221,1003794,0.0-196.0-0.0,voc_e2,11740,"[{""event"":""fullscreenenter"",""trial"":1,""time"":2168}]",NA,NA,NA,NA,NA,2,#3386FF,#D89F1C,0,10,0,38,1,549.6999999880791,37,1,1248.0999999940395,0,0,experiment,NA,NA,0,0.1,0.9,1,0,187,5,NA
fcp-trial,222,1006097,0.0-197.0-0.0,voc_e2,11740,"[{""event"":""fullscreenenter"",""trial"":1,""time"":2168}]",NA,NA,NA,NA,NA,3,#D8271C,#741CD8,0,10,0,38,1,463.20000000298023,37,1,334.5,0,0,experiment,NA,NA,1,0.3,0.7,3,2,188,5,NA
fcp-trial,223,1008272,0.0-198.0-0.0,voc_e2,11740,"[{""event"":""fullscreenenter"",""trial"":1,""time"":2168}]",NA,NA,NA,NA,NA,6,#FA92F8,#1CD855,10,10,0,38,1,160.5,37,1,508.79999999701977,10,0,experiment,NA,NA,2,0.5,0.5,5,4,189,5,NA
fcp-trial,224,1010960,0.0-199.0-0.0,voc_e2,11740,"[{""event"":""fullscreenenter"",""trial"":1,""time"":2168}]",NA,NA,NA,NA,NA,1,#3386FF,#D89F1C,0,10,0,38,1,657.3000000119209,37,1,526.7999999970198,0,0,experiment,NA,NA,0,0.1,0.9,1,0,190,5,NA
fcp-trial,225,1014392,0.0-200.0-0.0,voc_e2,11740,"[{""event"":""fullscreenenter"",""trial"":1,""time"":2168}]",NA,NA,NA,NA,NA,6,#D8271C,#741CD8,0,10,0,38,1,1305.0999999940395,37,1,615.7999999970198,0,0,experiment,NA,NA,1,0.3,0.7,3,2,191,5,NA
fcp-trial,226,1017984,0.0-201.0-0.0,voc_e2,11740,"[{""event"":""fullscreenenter"",""trial"":1,""time"":2168}]",NA,NA,NA,NA,NA,4,#1CD855,#FA92F8,10,10,1,38,1,544.1999999880791,39,0,1543.2999999970198,10,0,experiment,NA,NA,2,0.5,0.5,4,5,192,5,NA
fcp-trial,227,1020242,0.0-202.0-0.0,voc_e2,11740,"[{""event"":""fullscreenenter"",""trial"":1,""time"":2168}]",NA,NA,NA,NA,NA,4,#D8271C,#741CD8,0,10,0,38,1,305.09999999403954,37,1,448.59999999403954,0,0,experiment,NA,NA,1,0.3,0.7,3,2,193,5,NA
fcp-trial,228,1023641,0.0-203.0-0.0,voc_e2,11740,"[{""event"":""fullscreenenter"",""trial"":1,""time"":2168}]",NA,NA,NA,NA,NA,0,#FA92F8,#1CD855,10,10,0,38,1,398.90000000596046,37,1,1494.0999999940395,10,0,experiment,NA,NA,2,0.5,0.5,5,4,194,5,NA
fcp-trial,229,1026224,0.0-204.0-0.0,voc_e2,11740,"[{""event"":""fullscreenenter"",""trial"":1,""time"":2168}]",NA,NA,NA,NA,NA,4,#D89F1C,#3386FF,10,0,1,38,1,478.79999999701977,39,0,599,0,0,experiment,NA,NA,0,0.9,0.1,0,1,195,5,NA
fcp-trial,230,1028528,0.0-205.0-0.0,voc_e2,11740,"[{""event"":""fullscreenenter"",""trial"":1,""time"":2168}]",NA,NA,NA,NA,NA,5,#1CD855,#FA92F8,0,10,1,38,1,384.3999999910593,37,1,415.19999998807907,0,1,experiment,NA,NA,2,0.5,0.5,4,5,196,5,NA
fcp-trial,231,1031425,0.0-206.0-0.0,voc_e2,11740,"[{""event"":""fullscreenenter"",""trial"":1,""time"":2168}]",NA,NA,NA,NA,NA,5,#D89F1C,#3386FF,10,0,1,38,1,937.2999999970198,39,0,452.59999999403954,0,0,experiment,NA,NA,0,0.9,0.1,0,1,197,5,NA
fcp-trial,232,1035291,0.0-207.0-0.0,voc_e2,11740,"[{""event"":""fullscreenenter"",""trial"":1,""time"":2168}]",NA,NA,NA,NA,NA,5,#D8271C,#741CD8,0,0,0,38,1,1848,37,1,513.9000000059605,0,0,experiment,NA,NA,1,0.3,0.7,3,2,198,5,NA
fcp-trial,233,1038216,0.0-208.0-0.0,voc_e2,11740,"[{""event"":""fullscreenenter"",""trial"":1,""time"":2168}]",NA,NA,NA,NA,NA,2,#D8271C,#741CD8,0,10,0,38,1,309.3999999910593,37,1,1111.2999999970198,0,0,experiment,NA,NA,1,0.3,0.7,3,2,199,5,NA
fcp-trial,234,1042249,0.0-209.0-0.0,voc_e2,11740,"[{""event"":""fullscreenenter"",""trial"":1,""time"":2168}]",NA,NA,NA,NA,NA,1,#1CD855,#FA92F8,10,10,1,38,1,1896.7999999970198,37,1,631.3999999910593,10,1,experiment,NA,NA,2,0.5,0.5,4,5,200,5,NA
fcp-trial,235,1044672,0.0-210.0-0.0,voc_e2,11740,"[{""event"":""fullscreenenter"",""trial"":1,""time"":2168}]",NA,NA,NA,NA,NA,2,#3386FF,#D89F1C,10,10,0,38,1,432.5,39,0,486.5,10,1,experiment,NA,NA,0,0.1,0.9,1,0,201,5,NA
fcp-trial,236,1046704,0.0-211.0-0.0,voc_e2,11740,"[{""event"":""fullscreenenter"",""trial"":1,""time"":2168}]",NA,NA,NA,NA,NA,0,#3386FF,#D89F1C,10,10,0,38,1,49.29999999701977,39,0,472,10,1,experiment,NA,NA,0,0.1,0.9,1,0,202,5,NA
fcp-trial,237,1048816,0.0-212.0-0.0,voc_e2,11740,"[{""event"":""fullscreenenter"",""trial"":1,""time"":2168}]",NA,NA,NA,NA,NA,1,#D8271C,#741CD8,0,10,0,38,1,24.399999991059303,39,0,583.0999999940395,10,1,experiment,NA,NA,1,0.3,0.7,3,2,203,5,NA
fcp-trial,238,1051400,0.0-213.0-0.0,voc_e2,11740,"[{""event"":""fullscreenenter"",""trial"":1,""time"":2168}]",NA,NA,NA,NA,NA,3,#1CD855,#FA92F8,0,0,1,38,1,656.3999999910593,37,1,423.40000000596046,0,1,experiment,NA,NA,2,0.5,0.5,4,5,204,5,NA
fcp-trial,239,1053673,0.0-214.0-0.0,voc_e2,11740,"[{""event"":""fullscreenenter"",""trial"":1,""time"":2168}]",NA,NA,NA,NA,NA,2,#FA92F8,#1CD855,10,10,0,38,1,360.29999999701977,37,1,405.59999999403954,10,0,experiment,NA,NA,2,0.5,0.5,5,4,205,5,NA
fcp-trial,240,1056057,0.0-215.0-0.0,voc_e2,11740,"[{""event"":""fullscreenenter"",""trial"":1,""time"":2168}]",NA,NA,NA,NA,NA,6,#3386FF,#D89F1C,0,10,0,38,1,437.79999999701977,37,1,439.3999999910593,0,0,experiment,NA,NA,0,0.1,0.9,1,0,206,5,NA
fcp-trial,241,1058506,0.0-216.0-0.0,voc_e2,11740,"[{""event"":""fullscreenenter"",""trial"":1,""time"":2168}]",NA,NA,NA,NA,NA,3,#741CD8,#D8271C,10,0,1,38,1,558.7999999970198,39,0,383.29999999701977,0,0,experiment,NA,NA,1,0.7,0.3,2,3,207,5,NA
fcp-trial,242,1060801,0.0-217.0-0.0,voc_e2,11740,"[{""event"":""fullscreenenter"",""trial"":1,""time"":2168}]",NA,NA,NA,NA,NA,0,#741CD8,#D8271C,0,0,1,38,1,382.5,37,1,407.70000000298023,0,1,experiment,NA,NA,1,0.7,0.3,2,3,208,5,NA
fcp-trial,243,1063129,0.0-218.0-0.0,voc_e2,11740,"[{""event"":""fullscreenenter"",""trial"":1,""time"":2168}]",NA,NA,NA,NA,NA,6,#FA92F8,#1CD855,0,0,0,38,1,414.59999999403954,37,1,398.19999998807907,0,0,experiment,NA,NA,2,0.5,0.5,5,4,209,5,NA
fcp-trial,244,1065347,0.0-219.0-0.0,voc_e2,11740,"[{""event"":""fullscreenenter"",""trial"":1,""time"":2168}]",NA,NA,NA,NA,NA,3,#3386FF,#D89F1C,10,10,0,38,1,271.6000000089407,39,0,437.70000000298023,10,1,experiment,NA,NA,0,0.1,0.9,1,0,210,5,NA
audio-instructions,245,1083835,0.0-220.0,voc_e2,11740,"[{""event"":""fullscreenenter"",""trial"":1,""time"":2168}]",NA,13953.5,static/audio/pause.wav,NA,0,NA,NA,NA,NA,NA,NA,NA,NA,NA,NA,NA,NA,NA,NA,NA,NA,NA,NA,NA,NA,NA,NA,NA,NA,NA
fcp-trial,246,1087340,0.0-221.0-0.0,voc_e2,11740,"[{""event"":""fullscreenenter"",""trial"":1,""time"":2168}]",NA,NA,NA,NA,NA,2,#D8271C,#741CD8,0,0,0,38,1,1540.3999999910593,37,1,447,0,0,experiment,NA,NA,1,0.3,0.7,3,2,211,5,NA
fcp-trial,247,1090944,0.0-222.0-0.0,voc_e2,11740,"[{""event"":""fullscreenenter"",""trial"":1,""time"":2168}]",NA,NA,NA,NA,NA,6,#FA92F8,#1CD855,10,0,0,38,1,1570.8999999910593,39,0,516.5,0,1,experiment,NA,NA,2,0.5,0.5,5,4,212,5,NA
fcp-trial,248,1093579,0.0-223.0-0.0,voc_e2,11740,"[{""event"":""fullscreenenter"",""trial"":1,""time"":2168}]",NA,NA,NA,NA,NA,0,#D89F1C,#3386FF,10,0,1,38,1,175.29999999701977,39,0,947.7999999970198,0,0,experiment,NA,NA,0,0.9,0.1,0,1,213,5,NA
fcp-trial,249,1096834,0.0-224.0-0.0,voc_e2,11740,"[{""event"":""fullscreenenter"",""trial"":1,""time"":2168}]",NA,NA,NA,NA,NA,1,#741CD8,#D8271C,0,10,1,38,1,1197.2999999970198,39,0,541.1000000089407,10,0,experiment,NA,NA,1,0.7,0.3,2,3,214,5,NA
fcp-trial,250,1100712,0.0-225.0-0.0,voc_e2,11740,"[{""event"":""fullscreenenter"",""trial"":1,""time"":2168}]",NA,NA,NA,NA,NA,5,#3386FF,#D89F1C,0,10,0,38,1,1486.2999999970198,37,1,876.6999999880791,0,0,experiment,NA,NA,0,0.1,0.9,1,0,215,5,NA
fcp-trial,251,1102993,0.0-226.0-0.0,voc_e2,11740,"[{""event"":""fullscreenenter"",""trial"":1,""time"":2168}]",NA,NA,NA,NA,NA,3,#FA92F8,#1CD855,10,0,0,38,1,352.70000000298023,39,0,424.70000000298023,0,1,experiment,NA,NA,2,0.5,0.5,5,4,216,5,NA
fcp-trial,252,1105584,0.0-227.0-0.0,voc_e2,11740,"[{""event"":""fullscreenenter"",""trial"":1,""time"":2168}]",NA,NA,NA,NA,NA,5,#D8271C,#741CD8,0,0,0,38,1,807.7999999970198,39,0,279.29999999701977,0,1,experiment,NA,NA,1,0.3,0.7,3,2,217,5,NA
fcp-trial,253,1107377,0.0-228.0-0.0,voc_e2,11740,"[{""event"":""fullscreenenter"",""trial"":1,""time"":2168}]",NA,NA,NA,NA,NA,2,#FA92F8,#1CD855,0,10,0,38,1,18.299999997019768,39,0,270.3999999910593,10,1,experiment,NA,NA,2,0.5,0.5,5,4,218,5,NA
fcp-trial,254,1113960,0.0-229.0-0.0,voc_e2,11740,"[{""event"":""fullscreenenter"",""trial"":1,""time"":2168}]",NA,NA,NA,NA,NA,3,#3386FF,#D89F1C,0,10,0,38,1,2998.2999999970198,39,0,2079.2999999970198,10,1,experiment,NA,NA,0,0.1,0.9,1,0,219,5,NA
fcp-trial,255,1117168,0.0-230.0-0.0,voc_e2,11740,"[{""event"":""fullscreenenter"",""trial"":1,""time"":2168}]",NA,NA,NA,NA,NA,6,#3386FF,#D89F1C,0,10,0,38,1,1136.4000000059605,37,1,567,0,0,experiment,NA,NA,0,0.1,0.9,1,0,220,5,NA
fcp-trial,256,1119400,0.0-231.0-0.0,voc_e2,11740,"[{""event"":""fullscreenenter"",""trial"":1,""time"":2168}]",NA,NA,NA,NA,NA,6,#D8271C,#741CD8,0,10,0,38,1,319.80000001192093,39,0,407.5,10,1,experiment,NA,NA,1,0.3,0.7,3,2,221,5,NA
fcp-trial,257,1122896,0.0-232.0-0.0,voc_e2,11740,"[{""event"":""fullscreenenter"",""trial"":1,""time"":2168}]",NA,NA,NA,NA,NA,4,#3386FF,#D89F1C,0,10,0,38,1,673,39,0,1318.2999999970198,10,1,experiment,NA,NA,0,0.1,0.9,1,0,222,5,NA
fcp-trial,258,1127153,0.0-233.0-0.0,voc_e2,11740,"[{""event"":""fullscreenenter"",""trial"":1,""time"":2168}]",NA,NA,NA,NA,NA,0,#1CD855,#FA92F8,10,10,1,38,1,1904.2999999970198,37,1,847.0999999940395,10,1,experiment,NA,NA,2,0.5,0.5,4,5,223,5,NA
fcp-trial,259,1132553,0.0-234.0-0.0,voc_e2,11740,"[{""event"":""fullscreenenter"",""trial"":1,""time"":2168}]",NA,NA,NA,NA,NA,3,#741CD8,#D8271C,0,0,1,38,1,3455.0999999940395,37,1,440.09999999403954,0,1,experiment,NA,NA,1,0.7,0.3,2,3,224,5,NA
fcp-trial,260,1135064,0.0-235.0-0.0,voc_e2,11740,"[{""event"":""fullscreenenter"",""trial"":1,""time"":2168}]",NA,NA,NA,NA,NA,4,#FA92F8,#1CD855,10,10,0,38,1,590.5,37,1,415.40000000596046,10,0,experiment,NA,NA,2,0.5,0.5,5,4,225,5,NA
fcp-trial,261,1137016,0.0-236.0-0.0,voc_e2,11740,"[{""event"":""fullscreenenter"",""trial"":1,""time"":2168}]",NA,NA,NA,NA,NA,2,#D89F1C,#3386FF,10,0,1,38,1,32.400000005960464,39,0,415.30000001192093,0,0,experiment,NA,NA,0,0.9,0.1,0,1,226,6,NA
fcp-trial,262,1140784,0.0-237.0-0.0,voc_e2,11740,"[{""event"":""fullscreenenter"",""trial"":1,""time"":2168}]",NA,NA,NA,NA,NA,0,#741CD8,#D8271C,0,0,1,38,1,1343,39,0,919.3000000119209,0,0,experiment,NA,NA,1,0.7,0.3,2,3,227,6,NA
fcp-trial,263,1146320,0.0-238.0-0.0,voc_e2,11740,"[{""event"":""fullscreenenter"",""trial"":1,""time"":2168}]",NA,NA,NA,NA,NA,1,#3386FF,#D89F1C,0,10,0,38,1,2832.2000000029802,37,1,1199.5,0,0,experiment,NA,NA,0,0.1,0.9,1,0,228,6,NA
fcp-trial,264,1150441,0.0-239.0-0.0,voc_e2,11740,"[{""event"":""fullscreenenter"",""trial"":1,""time"":2168}]",NA,NA,NA,NA,NA,1,#FA92F8,#1CD855,10,10,0,38,1,1648.1000000089407,37,1,966.7000000029802,10,0,experiment,NA,NA,2,0.5,0.5,5,4,229,6,NA
fcp-trial,265,1152551,0.0-240.0-0.0,voc_e2,11740,"[{""event"":""fullscreenenter"",""trial"":1,""time"":2168}]",NA,NA,NA,NA,NA,4,#D8271C,#741CD8,10,0,0,38,1,47.5,37,1,558.9000000059605,10,0,experiment,NA,NA,1,0.3,0.7,3,2,230,6,NA
fcp-trial,266,1154967,0.0-241.0-0.0,voc_e2,11740,"[{""event"":""fullscreenenter"",""trial"":1,""time"":2168}]",NA,NA,NA,NA,NA,5,#FA92F8,#1CD855,10,0,0,38,1,640.9000000059605,37,1,271,10,0,experiment,NA,NA,2,0.5,0.5,5,4,231,6,NA
fcp-trial,267,1159065,0.0-242.0-0.0,voc_e2,11740,"[{""event"":""fullscreenenter"",""trial"":1,""time"":2168}]",NA,NA,NA,NA,NA,3,#3386FF,#D89F1C,10,10,0,38,1,1600.4000000059605,37,1,992.5999999940395,10,0,experiment,NA,NA,0,0.1,0.9,1,0,232,6,NA
fcp-trial,268,1161760,0.0-243.0-0.0,voc_e2,11740,"[{""event"":""fullscreenenter"",""trial"":1,""time"":2168}]",NA,NA,NA,NA,NA,2,#1CD855,#FA92F8,10,10,1,38,1,886.7999999970198,37,1,303.1000000089407,10,1,experiment,NA,NA,2,0.5,0.5,4,5,233,6,NA
fcp-trial,269,1164776,0.0-244.0-0.0,voc_e2,11740,"[{""event"":""fullscreenenter"",""trial"":1,""time"":2168}]",NA,NA,NA,NA,NA,0,#D89F1C,#3386FF,10,0,1,38,1,854.3999999910593,39,0,655,0,0,experiment,NA,NA,0,0.9,0.1,0,1,234,6,NA
fcp-trial,270,1167104,0.0-245.0-0.0,voc_e2,11740,"[{""event"":""fullscreenenter"",""trial"":1,""time"":2168}]",NA,NA,NA,NA,NA,5,#D8271C,#741CD8,10,10,0,38,1,368.59999999403954,39,0,455.29999999701977,10,1,experiment,NA,NA,1,0.3,0.7,3,2,235,6,NA
fcp-trial,271,1170912,0.0-246.0-0.0,voc_e2,11740,"[{""event"":""fullscreenenter"",""trial"":1,""time"":2168}]",NA,NA,NA,NA,NA,3,#741CD8,#D8271C,0,10,1,38,1,1823.2000000029802,37,1,479,0,1,experiment,NA,NA,1,0.7,0.3,2,3,236,6,NA
fcp-trial,272,1175256,0.0-247.0-0.0,voc_e2,11740,"[{""event"":""fullscreenenter"",""trial"":1,""time"":2168}]",NA,NA,NA,NA,NA,0,#741CD8,#D8271C,10,0,1,38,1,2192.2000000029802,37,1,646.7000000029802,10,1,experiment,NA,NA,1,0.7,0.3,2,3,237,6,NA
fcp-trial,273,1177511,0.0-248.0-0.0,voc_e2,11740,"[{""event"":""fullscreenenter"",""trial"":1,""time"":2168}]",NA,NA,NA,NA,NA,3,#1CD855,#FA92F8,10,0,1,38,1,272.79999999701977,37,1,478.59999999403954,10,1,experiment,NA,NA,2,0.5,0.5,4,5,238,6,NA
fcp-trial,274,1179916,0.0-249.0-0.0,voc_e2,11740,"[{""event"":""fullscreenenter"",""trial"":1,""time"":2168}]",NA,NA,NA,NA,NA,4,#3386FF,#D89F1C,0,10,0,38,1,383.5,39,0,510.5,10,1,experiment,NA,NA,0,0.1,0.9,1,0,239,6,NA
fcp-trial,275,1182328,0.0-250.0-0.0,voc_e2,11740,"[{""event"":""fullscreenenter"",""trial"":1,""time"":2168}]",NA,NA,NA,NA,NA,6,#3386FF,#D89F1C,0,10,0,38,1,355.1000000089407,37,1,551.0999999940395,0,0,experiment,NA,NA,0,0.1,0.9,1,0,240,6,NA
fcp-trial,276,1184399,0.0-251.0-0.0,voc_e2,11740,"[{""event"":""fullscreenenter"",""trial"":1,""time"":2168}]",NA,NA,NA,NA,NA,4,#FA92F8,#1CD855,0,0,0,38,1,295.8999999910593,39,0,270.8999999910593,0,1,experiment,NA,NA,2,0.5,0.5,5,4,241,6,NA
fcp-trial,277,1187008,0.0-252.0-0.0,voc_e2,11740,"[{""event"":""fullscreenenter"",""trial"":1,""time"":2168}]",NA,NA,NA,NA,NA,1,#D8271C,#741CD8,0,10,0,38,1,392.5,37,1,712.2000000029802,0,0,experiment,NA,NA,1,0.3,0.7,3,2,242,6,NA
fcp-trial,278,1192191,0.0-253.0-0.0,voc_e2,11740,"[{""event"":""fullscreenenter"",""trial"":1,""time"":2168}]",NA,NA,NA,NA,NA,2,#D89F1C,#3386FF,10,0,1,38,1,1143.4000000059605,37,1,2535.699999988079,10,1,experiment,NA,NA,0,0.9,0.1,0,1,243,6,NA
fcp-trial,279,1194424,0.0-254.0-0.0,voc_e2,11740,"[{""event"":""fullscreenenter"",""trial"":1,""time"":2168}]",NA,NA,NA,NA,NA,6,#FA92F8,#1CD855,10,10,0,38,1,360.29999999701977,37,1,367.5,10,0,experiment,NA,NA,2,0.5,0.5,5,4,244,6,NA
fcp-trial,280,1198008,0.0-255.0-0.0,voc_e2,11740,"[{""event"":""fullscreenenter"",""trial"":1,""time"":2168}]",NA,NA,NA,NA,NA,1,#1CD855,#FA92F8,10,10,1,38,1,1448.2000000029802,39,0,631.5,10,0,experiment,NA,NA,2,0.5,0.5,4,5,245,6,NA
fcp-trial,281,1200264,0.0-256.0-0.0,voc_e2,11740,"[{""event"":""fullscreenenter"",""trial"":1,""time"":2168}]",NA,NA,NA,NA,NA,2,#741CD8,#D8271C,0,10,1,38,1,352.5,37,1,393.70000000298023,0,1,experiment,NA,NA,1,0.7,0.3,2,3,246,6,NA
fcp-trial,282,1202425,0.0-257.0-0.0,voc_e2,11740,"[{""event"":""fullscreenenter"",""trial"":1,""time"":2168}]",NA,NA,NA,NA,NA,5,#1CD855,#FA92F8,10,10,1,38,1,289.29999999701977,39,0,367,10,0,experiment,NA,NA,2,0.5,0.5,4,5,247,6,NA
fcp-trial,283,1206952,0.0-258.0-0.0,voc_e2,11740,"[{""event"":""fullscreenenter"",""trial"":1,""time"":2168}]",NA,NA,NA,NA,NA,1,#3386FF,#D89F1C,0,10,0,38,1,2079.5,37,1,941.5,0,0,experiment,NA,NA,0,0.1,0.9,1,0,248,6,NA
fcp-trial,284,1210024,0.0-259.0-0.0,voc_e2,11740,"[{""event"":""fullscreenenter"",""trial"":1,""time"":2168}]",NA,NA,NA,NA,NA,4,#741CD8,#D8271C,10,10,1,38,1,944.1000000089407,37,1,623.7999999970198,10,1,experiment,NA,NA,1,0.7,0.3,2,3,249,6,NA
fcp-trial,285,1212951,0.0-260.0-0.0,voc_e2,11740,"[{""event"":""fullscreenenter"",""trial"":1,""time"":2168}]",NA,NA,NA,NA,NA,6,#D8271C,#741CD8,0,10,0,38,1,664.4000000059605,39,0,759.3999999910593,10,1,experiment,NA,NA,1,0.3,0.7,3,2,250,6,NA
fcp-trial,286,1215879,0.0-261.0-0.0,voc_e2,11740,"[{""event"":""fullscreenenter"",""trial"":1,""time"":2168}]",NA,NA,NA,NA,NA,5,#3386FF,#D89F1C,0,10,0,38,1,839.5,39,0,581.8000000119209,10,1,experiment,NA,NA,0,0.1,0.9,1,0,251,6,NA
fcp-trial,287,1219248,0.0-262.0-0.0,voc_e2,11740,"[{""event"":""fullscreenenter"",""trial"":1,""time"":2168}]",NA,NA,NA,NA,NA,0,#FA92F8,#1CD855,10,0,0,38,1,960.3999999910593,37,1,903,10,0,experiment,NA,NA,2,0.5,0.5,5,4,252,6,NA
fcp-trial,288,1222463,0.0-263.0-0.0,voc_e2,11740,"[{""event"":""fullscreenenter"",""trial"":1,""time"":2168}]",NA,NA,NA,NA,NA,0,#741CD8,#D8271C,10,0,1,38,1,648.0999999940395,39,0,1063.2999999970198,0,0,experiment,NA,NA,1,0.7,0.3,2,3,253,6,NA
fcp-trial,289,1226583,0.0-264.0-0.0,voc_e2,11740,"[{""event"":""fullscreenenter"",""trial"":1,""time"":2168}]",NA,NA,NA,NA,NA,2,#D8271C,#741CD8,0,10,0,38,1,1232.7000000029802,39,0,1382.3999999910593,10,1,experiment,NA,NA,1,0.3,0.7,3,2,254,6,NA
fcp-trial,290,1229895,0.0-265.0-0.0,voc_e2,11740,"[{""event"":""fullscreenenter"",""trial"":1,""time"":2168}]",NA,NA,NA,NA,NA,3,#FA92F8,#1CD855,0,10,0,38,1,872.5,37,1,934.5999999940395,0,0,experiment,NA,NA,2,0.5,0.5,5,4,255,6,NA
fcp-trial,291,1232888,0.0-266.0-0.0,voc_e2,11740,"[{""event"":""fullscreenenter"",""trial"":1,""time"":2168}]",NA,NA,NA,NA,NA,4,#D89F1C,#3386FF,10,0,1,38,1,744.4000000059605,37,1,743.7999999970198,10,1,experiment,NA,NA,0,0.9,0.1,0,1,256,6,NA
fcp-trial,292,1236240,0.0-267.0-0.0,voc_e2,11740,"[{""event"":""fullscreenenter"",""trial"":1,""time"":2168}]",NA,NA,NA,NA,NA,4,#1CD855,#FA92F8,0,0,1,38,1,696.1000000089407,39,0,1149.300000011921,0,0,experiment,NA,NA,2,0.5,0.5,4,5,257,6,NA
fcp-trial,293,1240145,0.0-268.0-0.0,voc_e2,11740,"[{""event"":""fullscreenenter"",""trial"":1,""time"":2168}]",NA,NA,NA,NA,NA,3,#741CD8,#D8271C,10,0,1,38,1,1295.2999999970198,39,0,1104.8999999910593,0,0,experiment,NA,NA,1,0.7,0.3,2,3,258,6,NA
fcp-trial,294,1242559,0.0-269.0-0.0,voc_e2,11740,"[{""event"":""fullscreenenter"",""trial"":1,""time"":2168}]",NA,NA,NA,NA,NA,3,#3386FF,#D89F1C,0,10,0,38,1,502.5,37,1,407.40000000596046,0,0,experiment,NA,NA,0,0.1,0.9,1,0,259,6,NA
fcp-trial,295,1247568,0.0-270.0-0.0,voc_e2,11740,"[{""event"":""fullscreenenter"",""trial"":1,""time"":2168}]",NA,NA,NA,NA,NA,2,#FA92F8,#1CD855,0,10,0,38,1,320.3999999910593,37,1,3183.6000000089407,0,0,experiment,NA,NA,2,0.5,0.5,5,4,260,6,NA
fcp-trial,296,1250120,0.0-271.0-0.0,voc_e2,11740,"[{""event"":""fullscreenenter"",""trial"":1,""time"":2168}]",NA,NA,NA,NA,NA,1,#D8271C,#741CD8,0,10,0,38,1,431.59999999403954,37,1,615.2999999970198,0,0,experiment,NA,NA,1,0.3,0.7,3,2,261,6,NA
fcp-trial,297,1253999,0.0-272.0-0.0,voc_e2,11740,"[{""event"":""fullscreenenter"",""trial"":1,""time"":2168}]",NA,NA,NA,NA,NA,2,#3386FF,#D89F1C,0,10,0,38,1,551.3000000119209,37,1,1823,0,0,experiment,NA,NA,0,0.1,0.9,1,0,262,6,NA
fcp-trial,298,1257047,0.0-273.0-0.0,voc_e2,11740,"[{""event"":""fullscreenenter"",""trial"":1,""time"":2168}]",NA,NA,NA,NA,NA,6,#D89F1C,#3386FF,10,10,1,38,1,792.2000000029802,39,0,750.7000000029802,10,0,experiment,NA,NA,0,0.9,0.1,0,1,263,6,NA
fcp-trial,299,1259639,0.0-274.0-0.0,voc_e2,11740,"[{""event"":""fullscreenenter"",""trial"":1,""time"":2168}]",NA,NA,NA,NA,NA,6,#741CD8,#D8271C,0,0,1,38,1,303.90000000596046,39,0,783.5,0,0,experiment,NA,NA,1,0.7,0.3,2,3,264,6,NA
fcp-trial,300,1262186,0.0-275.0-0.0,voc_e2,11740,"[{""event"":""fullscreenenter"",""trial"":1,""time"":2168}]",NA,NA,NA,NA,NA,1,#FA92F8,#1CD855,0,0,0,38,1,648.2000000029802,37,1,393,0,0,experiment,NA,NA,2,0.5,0.5,5,4,265,6,NA
fcp-trial,301,1265607,0.0-276.0-0.0,voc_e2,11740,"[{""event"":""fullscreenenter"",""trial"":1,""time"":2168}]",NA,NA,NA,NA,NA,1,#3386FF,#D89F1C,0,10,0,38,1,613.3999999910593,39,0,1303.0999999940395,10,1,experiment,NA,NA,0,0.1,0.9,1,0,266,6,NA
fcp-trial,302,1270560,0.0-277.0-0.0,voc_e2,11740,"[{""event"":""fullscreenenter"",""trial"":1,""time"":2168}]",NA,NA,NA,NA,NA,6,#1CD855,#FA92F8,0,0,1,38,1,824.4000000059605,37,1,2622.2999999970198,0,1,experiment,NA,NA,2,0.5,0.5,4,5,267,6,NA
fcp-trial,303,1275528,0.0-278.0-0.0,voc_e2,11740,"[{""event"":""fullscreenenter"",""trial"":1,""time"":2168}]",NA,NA,NA,NA,NA,5,#D8271C,#741CD8,0,10,0,38,1,1503.5999999940395,37,1,1960.0999999940395,0,0,experiment,NA,NA,1,0.3,0.7,3,2,268,6,NA
fcp-trial,304,1277688,0.0-279.0-0.0,voc_e2,11740,"[{""event"":""fullscreenenter"",""trial"":1,""time"":2168}]",NA,NA,NA,NA,NA,0,#3386FF,#D89F1C,0,10,0,38,1,231,39,0,423.1000000089407,10,1,experiment,NA,NA,0,0.1,0.9,1,0,269,6,NA
fcp-trial,305,1281879,0.0-280.0-0.0,voc_e2,11740,"[{""event"":""fullscreenenter"",""trial"":1,""time"":2168}]",NA,NA,NA,NA,NA,5,#1CD855,#FA92F8,0,0,1,38,1,2432.0999999940395,39,0,254.79999999701977,0,0,experiment,NA,NA,2,0.5,0.5,4,5,270,6,NA
fcp-trial,306,1284448,0.0-281.0-0.0,voc_e2,11740,"[{""event"":""fullscreenenter"",""trial"":1,""time"":2168}]",NA,NA,NA,NA,NA,0,#FA92F8,#1CD855,10,10,0,38,1,770.7999999970198,39,0,291.5,10,1,experiment,NA,NA,2,0.5,0.5,5,4,271,7,NA
fcp-trial,307,1288199,0.0-282.0-0.0,voc_e2,11740,"[{""event"":""fullscreenenter"",""trial"":1,""time"":2168}]",NA,NA,NA,NA,NA,4,#741CD8,#D8271C,10,10,1,38,1,1728.300000011921,37,1,518.5,10,1,experiment,NA,NA,1,0.7,0.3,2,3,272,7,NA
fcp-trial,308,1290895,0.0-283.0-0.0,voc_e2,11740,"[{""event"":""fullscreenenter"",""trial"":1,""time"":2168}]",NA,NA,NA,NA,NA,5,#3386FF,#D89F1C,0,10,0,38,1,368.40000000596046,39,0,822.5999999940395,10,1,experiment,NA,NA,0,0.1,0.9,1,0,273,7,NA
fcp-trial,309,1293344,0.0-284.0-0.0,voc_e2,11740,"[{""event"":""fullscreenenter"",""trial"":1,""time"":2168}]",NA,NA,NA,NA,NA,2,#D8271C,#741CD8,10,10,0,38,1,399.5,37,1,541.8999999910593,10,0,experiment,NA,NA,1,0.3,0.7,3,2,274,7,NA
fcp-trial,310,1295832,0.0-285.0-0.0,voc_e2,11740,"[{""event"":""fullscreenenter"",""trial"":1,""time"":2168}]",NA,NA,NA,NA,NA,1,#FA92F8,#1CD855,0,0,0,38,1,415.69999998807907,39,0,566.6000000089407,0,1,experiment,NA,NA,2,0.5,0.5,5,4,275,7,NA
fcp-trial,311,1298096,0.0-286.0-0.0,voc_e2,11740,"[{""event"":""fullscreenenter"",""trial"":1,""time"":2168}]",NA,NA,NA,NA,NA,4,#3386FF,#D89F1C,0,10,0,38,1,231.09999999403954,37,1,527.6000000089407,0,0,experiment,NA,NA,0,0.1,0.9,1,0,276,7,NA
fcp-trial,312,1300672,0.0-287.0-0.0,voc_e2,11740,"[{""event"":""fullscreenenter"",""trial"":1,""time"":2168}]",NA,NA,NA,NA,NA,0,#3386FF,#D89F1C,0,10,0,38,1,454.8999999910593,37,1,616.1000000089407,0,0,experiment,NA,NA,0,0.1,0.9,1,0,277,7,NA
fcp-trial,313,1302808,0.0-288.0-0.0,voc_e2,11740,"[{""event"":""fullscreenenter"",""trial"":1,""time"":2168}]",NA,NA,NA,NA,NA,3,#D89F1C,#3386FF,10,0,1,38,1,118.3999999910593,39,0,511.79999999701977,0,0,experiment,NA,NA,0,0.9,0.1,0,1,278,7,NA
fcp-trial,314,1304944,0.0-289.0-0.0,voc_e2,11740,"[{""event"":""fullscreenenter"",""trial"":1,""time"":2168}]",NA,NA,NA,NA,NA,1,#741CD8,#D8271C,10,0,1,38,1,103.6000000089407,39,0,527.2000000029802,0,0,experiment,NA,NA,1,0.7,0.3,2,3,279,7,NA
fcp-trial,315,1309768,0.0-290.0-0.0,voc_e2,11740,"[{""event"":""fullscreenenter"",""trial"":1,""time"":2168}]",NA,NA,NA,NA,NA,2,#1CD855,#FA92F8,10,0,1,38,1,2944.2000000029802,37,1,375.19999998807907,10,1,experiment,NA,NA,2,0.5,0.5,4,5,280,7,NA
fcp-trial,316,1312001,0.0-291.0-0.0,voc_e2,11740,"[{""event"":""fullscreenenter"",""trial"":1,""time"":2168}]",NA,NA,NA,NA,NA,1,#3386FF,#D89F1C,0,10,0,38,1,167.8999999910593,37,1,560.5999999940395,0,0,experiment,NA,NA,0,0.1,0.9,1,0,281,7,NA
fcp-trial,317,1316847,0.0-292.0-0.0,voc_e2,11740,"[{""event"":""fullscreenenter"",""trial"":1,""time"":2168}]",NA,NA,NA,NA,NA,5,#D8271C,#741CD8,0,10,0,38,1,2318.2999999970198,37,1,1022.8999999910593,0,0,experiment,NA,NA,1,0.3,0.7,3,2,282,7,NA
fcp-trial,318,1319607,0.0-293.0-0.0,voc_e2,11740,"[{""event"":""fullscreenenter"",""trial"":1,""time"":2168}]",NA,NA,NA,NA,NA,6,#1CD855,#FA92F8,10,10,1,38,1,464.29999999701977,37,1,790.7999999970198,10,1,experiment,NA,NA,2,0.5,0.5,4,5,283,7,NA
fcp-trial,319,1323033,0.0-294.0-0.0,voc_e2,11740,"[{""event"":""fullscreenenter"",""trial"":1,""time"":2168}]",NA,NA,NA,NA,NA,2,#D89F1C,#3386FF,10,0,1,38,1,1104.800000011921,37,1,815.2999999970198,10,1,experiment,NA,NA,0,0.9,0.1,0,1,284,7,NA
fcp-trial,320,1325345,0.0-295.0-0.0,voc_e2,11740,"[{""event"":""fullscreenenter"",""trial"":1,""time"":2168}]",NA,NA,NA,NA,NA,3,#741CD8,#D8271C,10,0,1,38,1,142.79999999701977,39,0,663.5,0,0,experiment,NA,NA,1,0.7,0.3,2,3,285,7,NA
fcp-trial,321,1327831,0.0-296.0-0.0,voc_e2,11740,"[{""event"":""fullscreenenter"",""trial"":1,""time"":2168}]",NA,NA,NA,NA,NA,5,#3386FF,#D89F1C,0,10,0,38,1,149.8999999910593,37,1,831.3999999910593,0,0,experiment,NA,NA,0,0.1,0.9,1,0,286,7,NA
fcp-trial,322,1331896,0.0-297.0-0.0,voc_e2,11740,"[{""event"":""fullscreenenter"",""trial"":1,""time"":2168}]",NA,NA,NA,NA,NA,4,#FA92F8,#1CD855,0,0,0,38,1,1240.2999999970198,39,0,1319,0,1,experiment,NA,NA,2,0.5,0.5,5,4,287,7,NA
fcp-trial,323,1334242,0.0-298.0-0.0,voc_e2,11740,"[{""event"":""fullscreenenter"",""trial"":1,""time"":2168}]",NA,NA,NA,NA,NA,0,#1CD855,#FA92F8,0,0,1,38,1,584.4000000059605,37,1,256,0,1,experiment,NA,NA,2,0.5,0.5,4,5,288,7,NA
fcp-trial,324,1338245,0.0-299.0-0.0,voc_e2,11740,"[{""event"":""fullscreenenter"",""trial"":1,""time"":2168}]",NA,NA,NA,NA,NA,0,#D8271C,#741CD8,0,10,0,38,1,1670.5999999940395,39,0,826.5999999940395,10,1,experiment,NA,NA,1,0.3,0.7,3,2,289,7,NA
fcp-trial,325,1343504,0.0-300.0-0.0,voc_e2,11740,"[{""event"":""fullscreenenter"",""trial"":1,""time"":2168}]",NA,NA,NA,NA,NA,6,#3386FF,#D89F1C,0,10,0,38,1,3332,39,0,422.6000000089407,10,1,experiment,NA,NA,0,0.1,0.9,1,0,290,7,NA
fcp-trial,326,1349511,0.0-301.0-0.0,voc_e2,11740,"[{""event"":""fullscreenenter"",""trial"":1,""time"":2168}]",NA,NA,NA,NA,NA,4,#D8271C,#741CD8,0,0,0,38,1,2398.3999999910593,37,1,2102.5,0,0,experiment,NA,NA,1,0.3,0.7,3,2,291,7,NA
fcp-trial,327,1352520,0.0-302.0-0.0,voc_e2,11740,"[{""event"":""fullscreenenter"",""trial"":1,""time"":2168}]",NA,NA,NA,NA,NA,6,#741CD8,#D8271C,10,10,1,38,1,1075,39,0,428.5,10,0,experiment,NA,NA,1,0.7,0.3,2,3,292,7,NA
fcp-trial,328,1354968,0.0-303.0-0.0,voc_e2,11740,"[{""event"":""fullscreenenter"",""trial"":1,""time"":2168}]",NA,NA,NA,NA,NA,3,#1CD855,#FA92F8,0,0,1,38,1,433.29999999701977,39,0,507.40000000596046,0,0,experiment,NA,NA,2,0.5,0.5,4,5,293,7,NA
fcp-trial,329,1360744,0.0-304.0-0.0,voc_e2,11740,"[{""event"":""fullscreenenter"",""trial"":1,""time"":2168}]",NA,NA,NA,NA,NA,5,#1CD855,#FA92F8,0,10,1,38,1,3048.199999988079,39,0,1223.5999999940395,10,0,experiment,NA,NA,2,0.5,0.5,4,5,294,7,NA
fcp-trial,330,1363472,0.0-305.0-0.0,voc_e2,11740,"[{""event"":""fullscreenenter"",""trial"":1,""time"":2168}]",NA,NA,NA,NA,NA,3,#D89F1C,#3386FF,10,0,1,38,1,935.7000000029802,39,0,287.29999999701977,0,0,experiment,NA,NA,0,0.9,0.1,0,1,295,7,NA
fcp-trial,331,1365680,0.0-306.0-0.0,voc_e2,11740,"[{""event"":""fullscreenenter"",""trial"":1,""time"":2168}]",NA,NA,NA,NA,NA,1,#D89F1C,#3386FF,10,10,1,38,1,279.40000000596046,37,1,422.69999998807907,10,1,experiment,NA,NA,0,0.9,0.1,0,1,296,7,NA
fcp-trial,332,1368752,0.0-307.0-0.0,voc_e2,11740,"[{""event"":""fullscreenenter"",""trial"":1,""time"":2168}]",NA,NA,NA,NA,NA,6,#FA92F8,#1CD855,10,10,0,38,1,712.1999999880791,37,1,855.5,10,0,experiment,NA,NA,2,0.5,0.5,5,4,297,7,NA
fcp-trial,333,1371512,0.0-308.0-0.0,voc_e2,11740,"[{""event"":""fullscreenenter"",""trial"":1,""time"":2168}]",NA,NA,NA,NA,NA,0,#D8271C,#741CD8,0,10,0,38,1,695.7999999970198,37,1,558.7999999970198,0,0,experiment,NA,NA,1,0.3,0.7,3,2,298,7,NA
fcp-trial,334,1373904,0.0-309.0-0.0,voc_e2,11740,"[{""event"":""fullscreenenter"",""trial"":1,""time"":2168}]",NA,NA,NA,NA,NA,0,#D89F1C,#3386FF,10,0,1,38,1,351.90000000596046,37,1,535.2999999970198,10,1,experiment,NA,NA,0,0.9,0.1,0,1,299,7,NA
fcp-trial,335,1376584,0.0-310.0-0.0,voc_e2,11740,"[{""event"":""fullscreenenter"",""trial"":1,""time"":2168}]",NA,NA,NA,NA,NA,2,#1CD855,#FA92F8,10,10,1,38,1,400.20000000298023,37,1,774.6999999880791,10,1,experiment,NA,NA,2,0.5,0.5,4,5,300,7,NA
fcp-trial,336,1379921,0.0-311.0-0.0,voc_e2,11740,"[{""event"":""fullscreenenter"",""trial"":1,""time"":2168}]",NA,NA,NA,NA,NA,0,#1CD855,#FA92F8,0,10,1,38,1,112,39,0,1718.199999988079,10,0,experiment,NA,NA,2,0.5,0.5,4,5,301,7,NA
fcp-trial,337,1383624,0.0-312.0-0.0,voc_e2,11740,"[{""event"":""fullscreenenter"",""trial"":1,""time"":2168}]",NA,NA,NA,NA,NA,4,#D89F1C,#3386FF,0,0,1,38,1,223.69999998807907,37,1,1970.9000000059605,0,1,experiment,NA,NA,0,0.9,0.1,0,1,302,7,NA
fcp-trial,338,1387005,0.0-313.0-0.0,voc_e2,11740,"[{""event"":""fullscreenenter"",""trial"":1,""time"":2168}]",NA,NA,NA,NA,NA,1,#741CD8,#D8271C,10,0,1,38,1,655.9000000059605,37,1,1206.8999999910593,10,1,experiment,NA,NA,1,0.7,0.3,2,3,303,7,NA
fcp-trial,339,1390199,0.0-314.0-0.0,voc_e2,11740,"[{""event"":""fullscreenenter"",""trial"":1,""time"":2168}]",NA,NA,NA,NA,NA,2,#D89F1C,#3386FF,10,0,1,38,1,607.2999999970198,37,1,1079.699999988079,10,1,experiment,NA,NA,0,0.9,0.1,0,1,304,7,NA
fcp-trial,340,1395065,0.0-315.0-0.0,voc_e2,11740,"[{""event"":""fullscreenenter"",""trial"":1,""time"":2168}]",NA,NA,NA,NA,NA,1,#FA92F8,#1CD855,10,0,0,38,1,16.799999997019768,39,0,1087.3999999910593,0,1,experiment,NA,NA,2,0.5,0.5,5,4,305,7,NA
fcp-trial,341,1397465,0.0-316.0-0.0,voc_e2,11740,"[{""event"":""fullscreenenter"",""trial"":1,""time"":2168}]",NA,NA,NA,NA,NA,2,#D8271C,#741CD8,10,0,0,38,1,599.0999999940395,39,0,295.5,0,1,experiment,NA,NA,1,0.3,0.7,3,2,306,7,NA
fcp-trial,342,1399585,0.0-317.0-0.0,voc_e2,11740,"[{""event"":""fullscreenenter"",""trial"":1,""time"":2168}]",NA,NA,NA,NA,NA,4,#FA92F8,#1CD855,10,10,0,38,1,199.79999999701977,39,0,415.40000000596046,10,1,experiment,NA,NA,2,0.5,0.5,5,4,307,7,NA
fcp-trial,343,1404025,0.0-318.0-0.0,voc_e2,11740,"[{""event"":""fullscreenenter"",""trial"":1,""time"":2168}]",NA,NA,NA,NA,NA,3,#741CD8,#D8271C,0,10,1,38,1,2151.7999999970198,37,1,782.5,0,1,experiment,NA,NA,1,0.7,0.3,2,3,308,7,NA
fcp-trial,344,1406082,0.0-319.0-0.0,voc_e2,11740,"[{""event"":""fullscreenenter"",""trial"":1,""time"":2168}]",NA,NA,NA,NA,NA,6,#D89F1C,#3386FF,10,0,1,38,1,261.29999999701977,39,0,287.59999999403954,0,0,experiment,NA,NA,0,0.9,0.1,0,1,309,7,NA
fcp-trial,345,1408154,0.0-320.0-0.0,voc_e2,11740,"[{""event"":""fullscreenenter"",""trial"":1,""time"":2168}]",NA,NA,NA,NA,NA,4,#741CD8,#D8271C,0,0,1,38,1,215.40000000596046,37,1,351.90000000596046,0,1,experiment,NA,NA,1,0.7,0.3,2,3,310,7,NA
fcp-trial,346,1410089,0.0-321.0-0.0,voc_e2,11740,"[{""event"":""fullscreenenter"",""trial"":1,""time"":2168}]",NA,NA,NA,NA,NA,5,#D8271C,#741CD8,0,10,0,38,1,54.400000005960464,39,0,374.70000000298023,10,1,experiment,NA,NA,1,0.3,0.7,3,2,311,7,NA
fcp-trial,347,1413857,0.0-322.0-0.0,voc_e2,11740,"[{""event"":""fullscreenenter"",""trial"":1,""time"":2168}]",NA,NA,NA,NA,NA,3,#1CD855,#FA92F8,0,0,1,38,1,1792.4000000059605,37,1,471.40000000596046,0,1,experiment,NA,NA,2,0.5,0.5,4,5,312,7,NA
fcp-trial,348,1418595,0.0-323.0-0.0,voc_e2,11740,"[{""event"":""fullscreenenter"",""trial"":1,""time"":2168}]",NA,NA,NA,NA,NA,5,#3386FF,#D89F1C,0,10,0,38,1,2736,39,0,496.5,10,1,experiment,NA,NA,0,0.1,0.9,1,0,313,7,NA
fcp-trial,349,1420937,0.0-324.0-0.0,voc_e2,11740,"[{""event"":""fullscreenenter"",""trial"":1,""time"":2168}]",NA,NA,NA,NA,NA,6,#D8271C,#741CD8,0,10,0,38,1,222,39,0,614.7999999970198,10,1,experiment,NA,NA,1,0.3,0.7,3,2,314,7,NA
fcp-trial,350,1423345,0.0-325.0-0.0,voc_e2,11740,"[{""event"":""fullscreenenter"",""trial"":1,""time"":2168}]",NA,NA,NA,NA,NA,5,#1CD855,#FA92F8,10,10,1,38,1,128,37,1,775.2000000029802,10,1,experiment,NA,NA,2,0.5,0.5,4,5,315,7,NA
audio-instructions,351,1430573,0.0-326.0,voc_e2,11740,"[{""event"":""fullscreenenter"",""trial"":1,""time"":2168}]",NA,1492.3999999910593,static/audio/finished.wav,NA,0,NA,NA,NA,NA,NA,NA,NA,NA,NA,NA,NA,NA,NA,NA,NA,NA,NA,NA,NA,NA,NA,NA,NA,NA,NA
audio-instructions,352,1444735,0.0-327.0-0.0,voc_e2,11740,"[{""event"":""fullscreenenter"",""trial"":1,""time"":2168}]",NA,3324.70000000298,static/audio/explicit1.wav,NA,0,NA,NA,NA,NA,NA,NA,NA,NA,NA,NA,NA,NA,NA,NA,NA,NA,NA,NA,NA,NA,NA,NA,NA,NA,NA
audio-instructions,353,1453201,0.0-327.0-1.0,voc_e2,11740,"[{""event"":""fullscreenenter"",""trial"":1,""time"":2168}]",NA,870.4000000059605,static/audio/explicit2.wav,NA,0,NA,NA,NA,NA,NA,NA,NA,NA,NA,NA,NA,NA,NA,NA,NA,NA,NA,NA,NA,NA,NA,NA,NA,NA,NA
image-slider-response,354,1462119,0.0-328.0,voc_e2,11740,"[{""event"":""fullscreenenter"",""trial"":1,""time"":2168}]",NA,8907.70000000298,static/img/machines/machine2.png,NA,NA,NA,NA,NA,NA,NA,NA,NA,NA,NA,NA,NA,NA,NA,NA,explicit,NA,NA,NA,NA,NA,NA,NA,NA,NA,4
image-slider-response,355,1470481,0.0-329.0,voc_e2,11740,"[{""event"":""fullscreenenter"",""trial"":1,""time"":2168}]",NA,8359.5,static/img/machines/machine4.png,NA,NA,NA,NA,NA,NA,NA,NA,NA,NA,NA,NA,NA,NA,NA,NA,explicit,NA,NA,NA,NA,NA,NA,NA,NA,NA,6
image-slider-response,356,1476049,0.0-330.0,voc_e2,11740,"[{""event"":""fullscreenenter"",""trial"":1,""time"":2168}]",NA,5566.5,static/img/machines/machine5.png,NA,NA,NA,NA,NA,NA,NA,NA,NA,NA,NA,NA,NA,NA,NA,NA,explicit,NA,NA,NA,NA,NA,NA,NA,NA,NA,5
image-slider-response,357,1481837,0.0-331.0,voc_e2,11740,"[{""event"":""fullscreenenter"",""trial"":1,""time"":2168}]",NA,5786.0999999940395,static/img/machines/machine6.png,NA,NA,NA,NA,NA,NA,NA,NA,NA,NA,NA,NA,NA,NA,NA,NA,explicit,NA,NA,NA,NA,NA,NA,NA,NA,NA,6
image-slider-response,358,1486647,0.0-332.0,voc_e2,11740,"[{""event"":""fullscreenenter"",""trial"":1,""time"":2168}]",NA,4807.5999999940395,static/img/machines/machine3.png,NA,NA,NA,NA,NA,NA,NA,NA,NA,NA,NA,NA,NA,NA,NA,NA,explicit,NA,NA,NA,NA,NA,NA,NA,NA,NA,3
image-slider-response,359,1492201,0.0-333.0,voc_e2,11740,"[{""event"":""fullscreenenter"",""trial"":1,""time"":2168}]",NA,5552.5999999940395,static/img/machines/machine1.png,NA,NA,NA,NA,NA,NA,NA,NA,NA,NA,NA,NA,NA,NA,NA,NA,explicit,NA,NA,NA,NA,NA,NA,NA,NA,NA,5
