trial_type,trial_index,time_elapsed,internal_node_id,task_version,subject_id,interactions,success,rt,stimulus,key_press,button_pressed,offer,arcade_color_L,arcade_color_R,arcade_outcome_L,arcade_outcome_R,correct,stage_1_key,stage_1_choice,stage_1_rt,stage_2_key,stage_2_choice,stage_2_rt,stage_3_outcome,accuracy,phase,responses,num_errors,context,reward_prob_L,reward_prob_R,arcade_id_L,arcade_id_R,trial,block,response
pavlovia,0,25,0.0-0.0,voc_e2,11766,[],NA,NA,NA,NA,NA,NA,NA,NA,NA,NA,NA,NA,NA,NA,NA,NA,NA,NA,NA,NA,NA,NA,NA,NA,NA,NA,NA,NA,NA,NA
fullscreen,1,2901,0.0-1.0,voc_e2,11766,"[{""event"":""fullscreenenter"",""trial"":1,""time"":1922}]",TRUE,NA,NA,NA,NA,NA,NA,NA,NA,NA,NA,NA,NA,NA,NA,NA,NA,NA,NA,NA,NA,NA,NA,NA,NA,NA,NA,NA,NA,NA
audio-keyboard-response,2,6061,0.0-2.0,voc_e2,11766,"[{""event"":""fullscreenenter"",""trial"":1,""time"":1922}]",NA,3141,static/audio/beep_loop.wav,32,NA,NA,NA,NA,NA,NA,NA,NA,NA,NA,NA,NA,NA,NA,NA,NA,NA,NA,NA,NA,NA,NA,NA,NA,NA,NA
audio-test,3,8001,0.0-3.0,voc_e2,11766,"[{""event"":""fullscreenenter"",""trial"":1,""time"":1922}]",NA,NA,static/audio/turtle.wav,NA,3,NA,NA,NA,NA,NA,NA,NA,NA,NA,NA,NA,NA,NA,NA,NA,NA,NA,NA,NA,NA,NA,NA,NA,NA,NA
audio-test,4,11008,0.0-4.0,voc_e2,11766,"[{""event"":""fullscreenenter"",""trial"":1,""time"":1922}]",NA,NA,static/audio/shark.wav,NA,2,NA,NA,NA,NA,NA,NA,NA,NA,NA,NA,NA,NA,NA,NA,NA,NA,NA,NA,NA,NA,NA,NA,NA,NA,NA
audio-instructions,5,17766,0.0-5.0-0.0,voc_e2,11766,"[{""event"":""fullscreenenter"",""trial"":1,""time"":1922}]",NA,976.7999999970198,static/audio/instructions1.wav,NA,0,NA,NA,NA,NA,NA,NA,NA,NA,NA,NA,NA,NA,NA,NA,NA,NA,NA,NA,NA,NA,NA,NA,NA,NA,NA
audio-instructions,6,26303,0.0-5.0-1.0,voc_e2,11766,"[{""event"":""fullscreenenter"",""trial"":1,""time"":1922}]",NA,1797.2000000029802,static/audio/instructions2.wav,NA,0,NA,NA,NA,NA,NA,NA,NA,NA,NA,NA,NA,NA,NA,NA,NA,NA,NA,NA,NA,NA,NA,NA,NA,NA,NA
audio-instructions,7,34554,0.0-5.0-2.0,voc_e2,11766,"[{""event"":""fullscreenenter"",""trial"":1,""time"":1922}]",NA,2444.8999999910593,static/audio/instructions3.wav,NA,0,NA,NA,NA,NA,NA,NA,NA,NA,NA,NA,NA,NA,NA,NA,NA,NA,NA,NA,NA,NA,NA,NA,NA,NA,NA
audio-instructions,8,48487,0.0-5.0-3.0,voc_e2,11766,"[{""event"":""fullscreenenter"",""trial"":1,""time"":1922}]",NA,706.2000000029802,static/audio/instructions4.wav,NA,0,NA,NA,NA,NA,NA,NA,NA,NA,NA,NA,NA,NA,NA,NA,NA,NA,NA,NA,NA,NA,NA,NA,NA,NA,NA
audio-instructions,9,58515,0.0-5.0-4.0,voc_e2,11766,"[{""event"":""fullscreenenter"",""trial"":1,""time"":1922}]",NA,643.4000000059605,static/audio/instructions5.wav,NA,0,NA,NA,NA,NA,NA,NA,NA,NA,NA,NA,NA,NA,NA,NA,NA,NA,NA,NA,NA,NA,NA,NA,NA,NA,NA
fcp-practice,10,61204,0.0-5.0-5.0-0.0,voc_e2,11766,"[{""event"":""fullscreenenter"",""trial"":1,""time"":1922}]",NA,NA,NA,NA,NA,NA,#EDC948,#46d3c8,10,0,1,null,null,null,37,1,1173.8999999910593,10,1,practice,NA,NA,NA,NA,NA,NA,NA,NA,NA,NA
fcp-practice,11,63262,0.0-5.0-5.0-1.0,voc_e2,11766,"[{""event"":""fullscreenenter"",""trial"":1,""time"":1922}]",NA,NA,NA,NA,NA,NA,#EDC948,#46d3c8,10,0,1,null,null,null,37,1,548.5999999940395,10,1,practice,NA,NA,NA,NA,NA,NA,NA,NA,NA,NA
fcp-practice,12,65284,0.0-5.0-5.0-2.0,voc_e2,11766,"[{""event"":""fullscreenenter"",""trial"":1,""time"":1922}]",NA,NA,NA,NA,NA,NA,#EDC948,#46d3c8,0,10,1,null,null,null,37,1,518.5,0,1,practice,NA,NA,NA,NA,NA,NA,NA,NA,NA,NA
fcp-practice,13,67259,0.0-5.0-5.0-3.0,voc_e2,11766,"[{""event"":""fullscreenenter"",""trial"":1,""time"":1922}]",NA,NA,NA,NA,NA,NA,#EDC948,#46d3c8,10,0,1,null,null,null,37,1,469.40000000596046,10,1,practice,NA,NA,NA,NA,NA,NA,NA,NA,NA,NA
fcp-practice,14,69588,0.0-5.0-5.0-4.0,voc_e2,11766,"[{""event"":""fullscreenenter"",""trial"":1,""time"":1922}]",NA,NA,NA,NA,NA,NA,#EDC948,#46d3c8,10,0,1,null,null,null,37,1,822.0999999940395,10,1,practice,NA,NA,NA,NA,NA,NA,NA,NA,NA,NA
audio-instructions,15,89809,0.0-5.0-6.0,voc_e2,11766,"[{""event"":""fullscreenenter"",""trial"":1,""time"":1922}]",NA,2215,static/audio/instructions6.wav,NA,0,NA,NA,NA,NA,NA,NA,NA,NA,NA,NA,NA,NA,NA,NA,NA,NA,NA,NA,NA,NA,NA,NA,NA,NA,NA
audio-instructions,16,110819,0.0-5.0-7.0,voc_e2,11766,"[{""event"":""fullscreenenter"",""trial"":1,""time"":1922}]",NA,1811.70000000298,static/audio/instructions7.wav,NA,0,NA,NA,NA,NA,NA,NA,NA,NA,NA,NA,NA,NA,NA,NA,NA,NA,NA,NA,NA,NA,NA,NA,NA,NA,NA
audio-instructions,17,121183,0.0-5.0-8.0,voc_e2,11766,"[{""event"":""fullscreenenter"",""trial"":1,""time"":1922}]",NA,896.5999999940395,static/audio/instructions8.wav,NA,0,NA,NA,NA,NA,NA,NA,NA,NA,NA,NA,NA,NA,NA,NA,NA,NA,NA,NA,NA,NA,NA,NA,NA,NA,NA
fcp-comprehension,18,129695,0.0-5.0-9.0,voc_e2,11766,"[{""event"":""fullscreenenter"",""trial"":1,""time"":1922}]",NA,8510.5,NA,NA,NA,NA,NA,NA,NA,NA,NA,NA,NA,NA,NA,NA,NA,NA,NA,NA,"false,true",1,NA,NA,NA,NA,NA,NA,NA,NA
audio-instructions,19,136340,0.0-5.1-0.1,voc_e2,11766,"[{""event"":""fullscreenenter"",""trial"":1,""time"":1922}]",NA,1866.5,static/audio/instructions1.wav,NA,0,NA,NA,NA,NA,NA,NA,NA,NA,NA,NA,NA,NA,NA,NA,NA,NA,NA,NA,NA,NA,NA,NA,NA,NA,NA
audio-instructions,20,143656,0.0-5.1-1.1,voc_e2,11766,"[{""event"":""fullscreenenter"",""trial"":1,""time"":1922}]",NA,574.6000000089407,static/audio/instructions2.wav,NA,0,NA,NA,NA,NA,NA,NA,NA,NA,NA,NA,NA,NA,NA,NA,NA,NA,NA,NA,NA,NA,NA,NA,NA,NA,NA
audio-instructions,21,150304,0.0-5.1-2.1,voc_e2,11766,"[{""event"":""fullscreenenter"",""trial"":1,""time"":1922}]",NA,844,static/audio/instructions3.wav,NA,0,NA,NA,NA,NA,NA,NA,NA,NA,NA,NA,NA,NA,NA,NA,NA,NA,NA,NA,NA,NA,NA,NA,NA,NA,NA
audio-instructions,22,164680,0.0-5.1-3.1,voc_e2,11766,"[{""event"":""fullscreenenter"",""trial"":1,""time"":1922}]",NA,1150.7999999970198,static/audio/instructions4.wav,NA,0,NA,NA,NA,NA,NA,NA,NA,NA,NA,NA,NA,NA,NA,NA,NA,NA,NA,NA,NA,NA,NA,NA,NA,NA,NA
audio-instructions,23,174863,0.0-5.1-4.1,voc_e2,11766,"[{""event"":""fullscreenenter"",""trial"":1,""time"":1922}]",NA,794.7999999970198,static/audio/instructions5.wav,NA,0,NA,NA,NA,NA,NA,NA,NA,NA,NA,NA,NA,NA,NA,NA,NA,NA,NA,NA,NA,NA,NA,NA,NA,NA,NA
fcp-practice,24,177179,0.0-5.1-5.1-0.1,voc_e2,11766,"[{""event"":""fullscreenenter"",""trial"":1,""time"":1922}]",NA,NA,NA,NA,NA,NA,#EDC948,#46d3c8,10,0,1,null,null,null,37,1,809.7000000029802,10,1,practice,NA,NA,NA,NA,NA,NA,NA,NA,NA,NA
fcp-practice,25,179074,0.0-5.1-5.1-1.1,voc_e2,11766,"[{""event"":""fullscreenenter"",""trial"":1,""time"":1922}]",NA,NA,NA,NA,NA,NA,#EDC948,#46d3c8,10,0,1,null,null,null,37,1,391.5,10,1,practice,NA,NA,NA,NA,NA,NA,NA,NA,NA,NA
fcp-practice,26,180957,0.0-5.1-5.1-2.1,voc_e2,11766,"[{""event"":""fullscreenenter"",""trial"":1,""time"":1922}]",NA,NA,NA,NA,NA,NA,#EDC948,#46d3c8,0,10,1,null,null,null,37,1,377.6000000089407,0,1,practice,NA,NA,NA,NA,NA,NA,NA,NA,NA,NA
fcp-practice,27,182826,0.0-5.1-5.1-3.1,voc_e2,11766,"[{""event"":""fullscreenenter"",""trial"":1,""time"":1922}]",NA,NA,NA,NA,NA,NA,#EDC948,#46d3c8,10,0,1,null,null,null,37,1,361.90000000596046,10,1,practice,NA,NA,NA,NA,NA,NA,NA,NA,NA,NA
fcp-practice,28,184724,0.0-5.1-5.1-4.1,voc_e2,11766,"[{""event"":""fullscreenenter"",""trial"":1,""time"":1922}]",NA,NA,NA,NA,NA,NA,#EDC948,#46d3c8,10,0,1,null,null,null,37,1,394.70000000298023,10,1,practice,NA,NA,NA,NA,NA,NA,NA,NA,NA,NA
audio-instructions,29,203386,0.0-5.1-6.1,voc_e2,11766,"[{""event"":""fullscreenenter"",""trial"":1,""time"":1922}]",NA,656.5999999940395,static/audio/instructions6.wav,NA,0,NA,NA,NA,NA,NA,NA,NA,NA,NA,NA,NA,NA,NA,NA,NA,NA,NA,NA,NA,NA,NA,NA,NA,NA,NA
audio-instructions,30,223824,0.0-5.1-7.1,voc_e2,11766,"[{""event"":""fullscreenenter"",""trial"":1,""time"":1922}]",NA,1238.7000000029802,static/audio/instructions7.wav,NA,0,NA,NA,NA,NA,NA,NA,NA,NA,NA,NA,NA,NA,NA,NA,NA,NA,NA,NA,NA,NA,NA,NA,NA,NA,NA
audio-instructions,31,234945,0.0-5.1-8.1,voc_e2,11766,"[{""event"":""fullscreenenter"",""trial"":1,""time"":1922}]",NA,1650.300000011921,static/audio/instructions8.wav,NA,0,NA,NA,NA,NA,NA,NA,NA,NA,NA,NA,NA,NA,NA,NA,NA,NA,NA,NA,NA,NA,NA,NA,NA,NA,NA
fcp-comprehension,32,246887,0.0-5.1-9.1,voc_e2,11766,"[{""event"":""fullscreenenter"",""trial"":1,""time"":1922}]",NA,11940.40000000596,NA,NA,NA,NA,NA,NA,NA,NA,NA,NA,NA,NA,NA,NA,NA,NA,NA,NA,"true,true",0,NA,NA,NA,NA,NA,NA,NA,NA
audio-instructions,33,253444,0.0-6.0-0.0,voc_e2,11766,"[{""event"":""fullscreenenter"",""trial"":1,""time"":1922}]",NA,1008.3999999910592,static/audio/instructions9.wav,NA,0,NA,NA,NA,NA,NA,NA,NA,NA,NA,NA,NA,NA,NA,NA,NA,NA,NA,NA,NA,NA,NA,NA,NA,NA,NA
audio-instructions,34,266250,0.0-6.0-1.0,voc_e2,11766,"[{""event"":""fullscreenenter"",""trial"":1,""time"":1922}]",NA,688.8999999910593,static/audio/instructions10.wav,NA,0,NA,NA,NA,NA,NA,NA,NA,NA,NA,NA,NA,NA,NA,NA,NA,NA,NA,NA,NA,NA,NA,NA,NA,NA,NA
fcp-trial,35,276513,0.0-6.0-2.0,voc_e2,11766,"[{""event"":""fullscreenenter"",""trial"":1,""time"":1922}]",NA,NA,NA,NA,NA,0,#EDC948,#46d3c8,10,10,1,38,1,7137.699999988079,39,0,1613,10,0,practice,NA,NA,NA,NA,NA,NA,NA,NA,NA,NA
audio-instructions,36,288180,0.0-6.0-3.0,voc_e2,11766,"[{""event"":""fullscreenenter"",""trial"":1,""time"":1922}]",NA,661.7000000029802,static/audio/instructions11.wav,NA,0,NA,NA,NA,NA,NA,NA,NA,NA,NA,NA,NA,NA,NA,NA,NA,NA,NA,NA,NA,NA,NA,NA,NA,NA,NA
fcp-trial,37,296015,0.0-6.0-4.0,voc_e2,11766,"[{""event"":""fullscreenenter"",""trial"":1,""time"":1922}]",NA,NA,NA,NA,NA,6,#EDC948,#46d3c8,10,10,1,40,0,4244.9000000059605,37,1,2080.70000000298,10,1,practice,NA,NA,NA,NA,NA,NA,NA,NA,NA,NA
audio-instructions,38,315679,0.0-6.0-5.0,voc_e2,11766,"[{""event"":""fullscreenenter"",""trial"":1,""time"":1922}]",NA,977.4000000059604,static/audio/instructions12.wav,NA,0,NA,NA,NA,NA,NA,NA,NA,NA,NA,NA,NA,NA,NA,NA,NA,NA,NA,NA,NA,NA,NA,NA,NA,NA,NA
audio-instructions,39,323763,0.0-6.0-6.0,voc_e2,11766,"[{""event"":""fullscreenenter"",""trial"":1,""time"":1922}]",NA,490.8999999910593,static/audio/instructions13.wav,NA,0,NA,NA,NA,NA,NA,NA,NA,NA,NA,NA,NA,NA,NA,NA,NA,NA,NA,NA,NA,NA,NA,NA,NA,NA,NA
audio-instructions,40,332797,0.0-6.0-7.0,voc_e2,11766,"[{""event"":""fullscreenenter"",""trial"":1,""time"":1922}]",NA,586.0999999940395,static/audio/instructions14.wav,NA,0,NA,NA,NA,NA,NA,NA,NA,NA,NA,NA,NA,NA,NA,NA,NA,NA,NA,NA,NA,NA,NA,NA,NA,NA,NA
audio-instructions,41,340724,0.0-7.0-0.0,voc_e2,11766,"[{""event"":""fullscreenenter"",""trial"":1,""time"":1922}]",NA,1013.5,static/audio/instructions15.wav,NA,0,NA,NA,NA,NA,NA,NA,NA,NA,NA,NA,NA,NA,NA,NA,NA,NA,NA,NA,NA,NA,NA,NA,NA,NA,NA
audio-instructions,42,348787,0.0-7.0-1.0,voc_e2,11766,"[{""event"":""fullscreenenter"",""trial"":1,""time"":1922}]",NA,1237.5999999940395,static/audio/instructions16.wav,NA,0,NA,NA,NA,NA,NA,NA,NA,NA,NA,NA,NA,NA,NA,NA,NA,NA,NA,NA,NA,NA,NA,NA,NA,NA,NA
audio-instructions,43,357266,0.0-7.0-2.0,voc_e2,11766,"[{""event"":""fullscreenenter"",""trial"":1,""time"":1922}]",NA,786.9000000059605,static/audio/instructions17.wav,NA,0,NA,NA,NA,NA,NA,NA,NA,NA,NA,NA,NA,NA,NA,NA,NA,NA,NA,NA,NA,NA,NA,NA,NA,NA,NA
audio-instructions,44,365569,0.0-7.0-3.0,voc_e2,11766,"[{""event"":""fullscreenenter"",""trial"":1,""time"":1922}]",NA,531.2000000029802,static/audio/instructions18.wav,NA,0,NA,NA,NA,NA,NA,NA,NA,NA,NA,NA,NA,NA,NA,NA,NA,NA,NA,NA,NA,NA,NA,NA,NA,NA,NA
audio-instructions,45,373217,0.0-7.0-4.0,voc_e2,11766,"[{""event"":""fullscreenenter"",""trial"":1,""time"":1922}]",NA,910.2999999970198,static/audio/instructions19.wav,NA,0,NA,NA,NA,NA,NA,NA,NA,NA,NA,NA,NA,NA,NA,NA,NA,NA,NA,NA,NA,NA,NA,NA,NA,NA,NA
fcp-comprehension,46,383768,0.0-7.0-5.0,voc_e2,11766,"[{""event"":""fullscreenenter"",""trial"":1,""time"":1922}]",NA,10548.39999999106,NA,NA,NA,NA,NA,NA,NA,NA,NA,NA,NA,NA,NA,NA,NA,NA,NA,NA,"false,false,false,true",0,NA,NA,NA,NA,NA,NA,NA,NA
audio-instructions,47,394387,0.0-8.0,voc_e2,11766,"[{""event"":""fullscreenenter"",""trial"":1,""time"":1922}]",NA,1402.7999999970198,static/audio/ready.wav,NA,0,NA,NA,NA,NA,NA,NA,NA,NA,NA,NA,NA,NA,NA,NA,NA,NA,NA,NA,NA,NA,NA,NA,NA,NA,NA
fcp-trial,48,400563,0.0-9.0-0.0,voc_e2,11766,"[{""event"":""fullscreenenter"",""trial"":1,""time"":1922}]",NA,NA,NA,NA,NA,5,#1CD855,#FA92F8,0,0,0,40,0,3786.4000000059605,39,0,879.7000000029802,0,1,experiment,NA,NA,1,0.3,0.7,3,2,1,1,NA
fcp-trial,49,405667,0.0-10.0-0.0,voc_e2,11766,"[{""event"":""fullscreenenter"",""trial"":1,""time"":1922}]",NA,NA,NA,NA,NA,5,#3386FF,#D89F1C,0,10,0,40,0,2138.5,37,1,1455.800000011921,0,0,experiment,NA,NA,0,0.1,0.9,1,0,2,1,NA
fcp-trial,50,410577,0.0-11.0-0.0,voc_e2,11766,"[{""event"":""fullscreenenter"",""trial"":1,""time"":1922}]",NA,NA,NA,NA,NA,3,#FA92F8,#1CD855,0,0,1,40,0,2157.2000000029802,37,1,1244.6000000089407,0,1,experiment,NA,NA,1,0.7,0.3,2,3,3,1,NA
fcp-trial,51,414625,0.0-12.0-0.0,voc_e2,11766,"[{""event"":""fullscreenenter"",""trial"":1,""time"":1922}]",NA,NA,NA,NA,NA,0,#FA92F8,#1CD855,10,10,1,40,0,1830.7000000029802,39,0,707.8999999910593,10,0,experiment,NA,NA,1,0.7,0.3,2,3,4,1,NA
fcp-trial,52,420034,0.0-13.0-0.0,voc_e2,11766,"[{""event"":""fullscreenenter"",""trial"":1,""time"":1922}]",NA,NA,NA,NA,NA,5,#D8271C,#741CD8,10,0,1,38,1,2878.5999999940395,39,0,1023.2999999970198,0,0,experiment,NA,NA,2,0.5,0.5,4,5,5,1,NA
fcp-trial,53,424001,0.0-14.0-0.0,voc_e2,11766,"[{""event"":""fullscreenenter"",""trial"":1,""time"":1922}]",NA,NA,NA,NA,NA,1,#D89F1C,#3386FF,10,10,1,38,1,1873.800000011921,37,1,581.5999999940395,10,1,experiment,NA,NA,0,0.9,0.1,0,1,6,1,NA
fcp-trial,54,427905,0.0-15.0-0.0,voc_e2,11766,"[{""event"":""fullscreenenter"",""trial"":1,""time"":1922}]",NA,NA,NA,NA,NA,1,#1CD855,#FA92F8,0,10,0,38,1,1125.2999999970198,37,1,1270.3999999910593,0,0,experiment,NA,NA,1,0.3,0.7,3,2,7,1,NA
fcp-trial,55,431057,0.0-16.0-0.0,voc_e2,11766,"[{""event"":""fullscreenenter"",""trial"":1,""time"":1922}]",NA,NA,NA,NA,NA,2,#741CD8,#D8271C,0,10,0,38,1,1108.2999999970198,37,1,531.2000000029802,0,0,experiment,NA,NA,2,0.5,0.5,5,4,8,1,NA
fcp-trial,56,434084,0.0-17.0-0.0,voc_e2,11766,"[{""event"":""fullscreenenter"",""trial"":1,""time"":1922}]",NA,NA,NA,NA,NA,2,#D89F1C,#3386FF,10,0,1,38,1,970.7999999970198,37,1,547.2000000029802,10,1,experiment,NA,NA,0,0.9,0.1,0,1,9,1,NA
fcp-trial,57,437066,0.0-18.0-0.0,voc_e2,11766,"[{""event"":""fullscreenenter"",""trial"":1,""time"":1922}]",NA,NA,NA,NA,NA,3,#D89F1C,#3386FF,10,0,1,38,1,884.7000000029802,37,1,591.2999999970198,10,1,experiment,NA,NA,0,0.9,0.1,0,1,10,1,NA
fcp-trial,58,440009,0.0-19.0-0.0,voc_e2,11766,"[{""event"":""fullscreenenter"",""trial"":1,""time"":1922}]",NA,NA,NA,NA,NA,6,#D89F1C,#3386FF,10,0,1,38,1,901.5999999940395,37,1,533.5999999940395,10,1,experiment,NA,NA,0,0.9,0.1,0,1,11,1,NA
fcp-trial,59,443473,0.0-20.0-0.0,voc_e2,11766,"[{""event"":""fullscreenenter"",""trial"":1,""time"":1922}]",NA,NA,NA,NA,NA,4,#1CD855,#FA92F8,0,10,0,38,1,969.2999999970198,39,0,987,10,1,experiment,NA,NA,1,0.3,0.7,3,2,12,1,NA
fcp-trial,60,446721,0.0-21.0-0.0,voc_e2,11766,"[{""event"":""fullscreenenter"",""trial"":1,""time"":1922}]",NA,NA,NA,NA,NA,0,#D8271C,#741CD8,10,10,1,38,1,1175.300000011921,37,1,567.2000000029802,10,1,experiment,NA,NA,2,0.5,0.5,4,5,13,1,NA
fcp-trial,61,449513,0.0-22.0-0.0,voc_e2,11766,"[{""event"":""fullscreenenter"",""trial"":1,""time"":1922}]",NA,NA,NA,NA,NA,4,#3386FF,#D89F1C,10,10,0,38,1,798.1999999880791,39,0,486.79999999701977,10,1,experiment,NA,NA,0,0.1,0.9,1,0,14,1,NA
fcp-trial,62,453578,0.0-23.0-0.0,voc_e2,11766,"[{""event"":""fullscreenenter"",""trial"":1,""time"":1922}]",NA,NA,NA,NA,NA,3,#741CD8,#D8271C,0,0,0,38,1,799.2000000029802,39,0,1754.7000000029802,0,1,experiment,NA,NA,2,0.5,0.5,5,4,15,1,NA
fcp-trial,63,456562,0.0-24.0-0.0,voc_e2,11766,"[{""event"":""fullscreenenter"",""trial"":1,""time"":1922}]",NA,NA,NA,NA,NA,2,#1CD855,#FA92F8,0,10,0,38,1,550.2000000029802,39,0,927.1000000089408,10,1,experiment,NA,NA,1,0.3,0.7,3,2,16,1,NA
fcp-trial,64,459300,0.0-25.0-0.0,voc_e2,11766,"[{""event"":""fullscreenenter"",""trial"":1,""time"":1922}]",NA,NA,NA,NA,NA,1,#D8271C,#741CD8,0,10,1,38,1,775.5,37,1,457.09999999403954,0,1,experiment,NA,NA,2,0.5,0.5,4,5,17,1,NA
fcp-trial,65,462248,0.0-26.0-0.0,voc_e2,11766,"[{""event"":""fullscreenenter"",""trial"":1,""time"":1922}]",NA,NA,NA,NA,NA,6,#D8271C,#741CD8,0,10,1,38,1,906.7000000029802,39,0,534.2999999970198,10,0,experiment,NA,NA,2,0.5,0.5,4,5,18,1,NA
fcp-trial,66,465929,0.0-27.0-0.0,voc_e2,11766,"[{""event"":""fullscreenenter"",""trial"":1,""time"":1922}]",NA,NA,NA,NA,NA,0,#3386FF,#D89F1C,0,10,0,38,1,761,39,0,1415.4000000059605,10,1,experiment,NA,NA,0,0.1,0.9,1,0,19,1,NA
fcp-trial,67,469164,0.0-28.0-0.0,voc_e2,11766,"[{""event"":""fullscreenenter"",""trial"":1,""time"":1922}]",NA,NA,NA,NA,NA,4,#D8271C,#741CD8,0,10,1,38,1,880.5,39,0,849.5,10,0,experiment,NA,NA,2,0.5,0.5,4,5,20,1,NA
fcp-trial,68,472107,0.0-29.0-0.0,voc_e2,11766,"[{""event"":""fullscreenenter"",""trial"":1,""time"":1922}]",NA,NA,NA,NA,NA,6,#FA92F8,#1CD855,0,10,1,38,1,779.7000000029802,37,1,654.2000000029802,0,1,experiment,NA,NA,1,0.7,0.3,2,3,21,1,NA
fcp-trial,69,475611,0.0-30.0-0.0,voc_e2,11766,"[{""event"":""fullscreenenter"",""trial"":1,""time"":1922}]",NA,NA,NA,NA,NA,3,#741CD8,#D8271C,0,0,0,38,1,753.2999999970198,37,1,1236.5,0,0,experiment,NA,NA,2,0.5,0.5,5,4,22,1,NA
fcp-trial,70,478512,0.0-31.0-0.0,voc_e2,11766,"[{""event"":""fullscreenenter"",""trial"":1,""time"":1922}]",NA,NA,NA,NA,NA,1,#1CD855,#FA92F8,0,10,0,38,1,637.2999999970198,39,0,748.7999999970198,10,1,experiment,NA,NA,1,0.3,0.7,3,2,23,1,NA
fcp-trial,71,481253,0.0-32.0-0.0,voc_e2,11766,"[{""event"":""fullscreenenter"",""trial"":1,""time"":1922}]",NA,NA,NA,NA,NA,4,#3386FF,#D89F1C,0,10,0,38,1,547.2999999970198,39,0,681.2999999970198,10,1,experiment,NA,NA,0,0.1,0.9,1,0,24,1,NA
fcp-trial,72,484276,0.0-33.0-0.0,voc_e2,11766,"[{""event"":""fullscreenenter"",""trial"":1,""time"":1922}]",NA,NA,NA,NA,NA,6,#3386FF,#D89F1C,0,10,0,38,1,910,39,0,604.7000000029802,10,1,experiment,NA,NA,0,0.1,0.9,1,0,25,1,NA
fcp-trial,73,489082,0.0-34.0-0.0,voc_e2,11766,"[{""event"":""fullscreenenter"",""trial"":1,""time"":1922}]",NA,NA,NA,NA,NA,0,#1CD855,#FA92F8,0,10,0,38,1,1919.5,39,0,1376.5999999940395,10,1,experiment,NA,NA,1,0.3,0.7,3,2,26,1,NA
fcp-trial,74,491937,0.0-35.0-0.0,voc_e2,11766,"[{""event"":""fullscreenenter"",""trial"":1,""time"":1922}]",NA,NA,NA,NA,NA,4,#741CD8,#D8271C,10,10,0,38,1,501.29999999701977,37,1,844.3000000119209,10,0,experiment,NA,NA,2,0.5,0.5,5,4,27,1,NA
fcp-trial,75,494507,0.0-36.0-0.0,voc_e2,11766,"[{""event"":""fullscreenenter"",""trial"":1,""time"":1922}]",NA,NA,NA,NA,NA,1,#3386FF,#D89F1C,0,10,0,38,1,536.2999999970198,39,0,526.4000000059605,10,1,experiment,NA,NA,0,0.1,0.9,1,0,28,1,NA
fcp-trial,76,498526,0.0-37.0-0.0,voc_e2,11766,"[{""event"":""fullscreenenter"",""trial"":1,""time"":1922}]",NA,NA,NA,NA,NA,5,#FA92F8,#1CD855,0,0,1,38,1,507.09999999403954,37,1,2003.4000000059605,0,1,experiment,NA,NA,1,0.7,0.3,2,3,29,1,NA
fcp-trial,77,501257,0.0-38.0-0.0,voc_e2,11766,"[{""event"":""fullscreenenter"",""trial"":1,""time"":1922}]",NA,NA,NA,NA,NA,0,#D8271C,#741CD8,0,0,1,38,1,625.7000000029802,39,0,600.2000000029802,0,0,experiment,NA,NA,2,0.5,0.5,4,5,30,1,NA
fcp-trial,78,503920,0.0-39.0-0.0,voc_e2,11766,"[{""event"":""fullscreenenter"",""trial"":1,""time"":1922}]",NA,NA,NA,NA,NA,3,#3386FF,#D89F1C,0,0,0,38,1,531.8999999910593,39,0,621.2999999970198,0,1,experiment,NA,NA,0,0.1,0.9,1,0,31,1,NA
fcp-trial,79,506400,0.0-40.0-0.0,voc_e2,11766,"[{""event"":""fullscreenenter"",""trial"":1,""time"":1922}]",NA,NA,NA,NA,NA,2,#D8271C,#741CD8,0,10,1,38,1,444.29999999701977,39,0,525.5999999940395,10,0,experiment,NA,NA,2,0.5,0.5,4,5,32,1,NA
fcp-trial,80,508971,0.0-41.0-0.0,voc_e2,11766,"[{""event"":""fullscreenenter"",""trial"":1,""time"":1922}]",NA,NA,NA,NA,NA,0,#D89F1C,#3386FF,10,0,1,38,1,609.3999999910593,37,1,455,10,1,experiment,NA,NA,0,0.9,0.1,0,1,33,1,NA
fcp-trial,81,512067,0.0-42.0-0.0,voc_e2,11766,"[{""event"":""fullscreenenter"",""trial"":1,""time"":1922}]",NA,NA,NA,NA,NA,2,#1CD855,#FA92F8,0,10,0,38,1,688.0999999940395,39,0,902.2000000029802,10,1,experiment,NA,NA,1,0.3,0.7,3,2,34,1,NA
fcp-trial,82,514670,0.0-43.0-0.0,voc_e2,11766,"[{""event"":""fullscreenenter"",""trial"":1,""time"":1922}]",NA,NA,NA,NA,NA,5,#D89F1C,#3386FF,10,0,1,38,1,605.6000000089407,37,1,491.79999999701977,10,1,experiment,NA,NA,0,0.9,0.1,0,1,35,1,NA
fcp-trial,83,517325,0.0-44.0-0.0,voc_e2,11766,"[{""event"":""fullscreenenter"",""trial"":1,""time"":1922}]",NA,NA,NA,NA,NA,3,#FA92F8,#1CD855,10,10,1,38,1,587.2000000029802,37,1,557.5,10,1,experiment,NA,NA,1,0.7,0.3,2,3,36,1,NA
fcp-trial,84,519877,0.0-45.0-0.0,voc_e2,11766,"[{""event"":""fullscreenenter"",""trial"":1,""time"":1922}]",NA,NA,NA,NA,NA,5,#741CD8,#D8271C,10,0,0,38,1,501,37,1,546,10,0,experiment,NA,NA,2,0.5,0.5,5,4,37,1,NA
fcp-trial,85,522332,0.0-46.0-0.0,voc_e2,11766,"[{""event"":""fullscreenenter"",""trial"":1,""time"":1922}]",NA,NA,NA,NA,NA,6,#741CD8,#D8271C,0,0,0,38,1,444.3999999910593,37,1,503.29999999701977,0,0,experiment,NA,NA,2,0.5,0.5,5,4,38,1,NA
fcp-trial,86,524828,0.0-47.0-0.0,voc_e2,11766,"[{""event"":""fullscreenenter"",""trial"":1,""time"":1922}]",NA,NA,NA,NA,NA,6,#FA92F8,#1CD855,10,0,1,38,1,493.1000000089407,37,1,497.29999999701977,10,1,experiment,NA,NA,1,0.7,0.3,2,3,39,1,NA
fcp-trial,87,527380,0.0-48.0-0.0,voc_e2,11766,"[{""event"":""fullscreenenter"",""trial"":1,""time"":1922}]",NA,NA,NA,NA,NA,2,#3386FF,#D89F1C,0,0,0,38,1,527.2000000029802,39,0,518.5,0,1,experiment,NA,NA,0,0.1,0.9,1,0,40,1,NA
fcp-trial,88,529799,0.0-49.0-0.0,voc_e2,11766,"[{""event"":""fullscreenenter"",""trial"":1,""time"":1922}]",NA,NA,NA,NA,NA,1,#741CD8,#D8271C,0,10,0,38,1,392.70000000298023,37,1,516.4000000059605,0,0,experiment,NA,NA,2,0.5,0.5,5,4,41,1,NA
fcp-trial,89,532282,0.0-50.0-0.0,voc_e2,11766,"[{""event"":""fullscreenenter"",""trial"":1,""time"":1922}]",NA,NA,NA,NA,NA,4,#FA92F8,#1CD855,0,0,1,38,1,531.5999999940395,37,1,445.09999999403954,0,1,experiment,NA,NA,1,0.7,0.3,2,3,42,1,NA
fcp-trial,90,534865,0.0-51.0-0.0,voc_e2,11766,"[{""event"":""fullscreenenter"",""trial"":1,""time"":1922}]",NA,NA,NA,NA,NA,4,#D8271C,#741CD8,10,10,1,38,1,524,39,0,552.9000000059605,10,0,experiment,NA,NA,2,0.5,0.5,4,5,43,1,NA
fcp-trial,91,537265,0.0-52.0-0.0,voc_e2,11766,"[{""event"":""fullscreenenter"",""trial"":1,""time"":1922}]",NA,NA,NA,NA,NA,3,#FA92F8,#1CD855,10,10,1,38,1,395.09999999403954,37,1,499.5,10,1,experiment,NA,NA,1,0.7,0.3,2,3,44,1,NA
fcp-trial,92,540037,0.0-53.0-0.0,voc_e2,11766,"[{""event"":""fullscreenenter"",""trial"":1,""time"":1922}]",NA,NA,NA,NA,NA,0,#741CD8,#D8271C,10,0,0,38,1,705.7000000029802,37,1,556.5,10,0,experiment,NA,NA,2,0.5,0.5,5,4,45,1,NA
fcp-trial,93,542693,0.0-54.0-0.0,voc_e2,11766,"[{""event"":""fullscreenenter"",""trial"":1,""time"":1922}]",NA,NA,NA,NA,NA,5,#D89F1C,#3386FF,10,0,1,38,1,629.9000000059605,37,1,515.7000000029802,10,1,experiment,NA,NA,0,0.9,0.1,0,1,46,2,NA
fcp-trial,94,545341,0.0-55.0-0.0,voc_e2,11766,"[{""event"":""fullscreenenter"",""trial"":1,""time"":1922}]",NA,NA,NA,NA,NA,1,#3386FF,#D89F1C,0,10,0,38,1,551.5,39,0,586.5999999940395,10,1,experiment,NA,NA,0,0.1,0.9,1,0,47,2,NA
fcp-trial,95,547960,0.0-56.0-0.0,voc_e2,11766,"[{""event"":""fullscreenenter"",""trial"":1,""time"":1922}]",NA,NA,NA,NA,NA,1,#D8271C,#741CD8,10,10,1,38,1,558.7000000029802,39,0,545.7999999970198,10,0,experiment,NA,NA,2,0.5,0.5,4,5,48,2,NA
fcp-trial,96,550710,0.0-57.0-0.0,voc_e2,11766,"[{""event"":""fullscreenenter"",""trial"":1,""time"":1922}]",NA,NA,NA,NA,NA,1,#FA92F8,#1CD855,10,0,1,38,1,855.6999999880791,37,1,387.70000000298023,10,1,experiment,NA,NA,1,0.7,0.3,2,3,49,2,NA
fcp-trial,97,554109,0.0-58.0-0.0,voc_e2,11766,"[{""event"":""fullscreenenter"",""trial"":1,""time"":1922}]",NA,NA,NA,NA,NA,2,#3386FF,#D89F1C,0,10,0,38,1,1118,39,0,773.6999999880791,10,1,experiment,NA,NA,0,0.1,0.9,1,0,50,2,NA
fcp-trial,98,556576,0.0-59.0-0.0,voc_e2,11766,"[{""event"":""fullscreenenter"",""trial"":1,""time"":1922}]",NA,NA,NA,NA,NA,2,#D8271C,#741CD8,0,0,1,38,1,471,39,0,489.6000000089407,0,0,experiment,NA,NA,2,0.5,0.5,4,5,51,2,NA
fcp-trial,99,559143,0.0-60.0-0.0,voc_e2,11766,"[{""event"":""fullscreenenter"",""trial"":1,""time"":1922}]",NA,NA,NA,NA,NA,0,#1CD855,#FA92F8,10,10,0,38,1,434,39,0,621.3000000119209,10,1,experiment,NA,NA,1,0.3,0.7,3,2,52,2,NA
fcp-trial,100,561684,0.0-61.0-0.0,voc_e2,11766,"[{""event"":""fullscreenenter"",""trial"":1,""time"":1922}]",NA,NA,NA,NA,NA,2,#1CD855,#FA92F8,0,0,0,38,1,463.29999999701977,39,0,571.8999999910593,0,1,experiment,NA,NA,1,0.3,0.7,3,2,53,2,NA
fcp-trial,101,564206,0.0-62.0-0.0,voc_e2,11766,"[{""event"":""fullscreenenter"",""trial"":1,""time"":1922}]",NA,NA,NA,NA,NA,6,#3386FF,#D89F1C,0,10,0,38,1,528.5,39,0,487,10,1,experiment,NA,NA,0,0.1,0.9,1,0,54,2,NA
fcp-trial,102,567436,0.0-63.0-0.0,voc_e2,11766,"[{""event"":""fullscreenenter"",""trial"":1,""time"":1922}]",NA,NA,NA,NA,NA,5,#D8271C,#741CD8,10,10,1,38,1,905.7000000029802,39,0,813.7999999970198,10,0,experiment,NA,NA,2,0.5,0.5,4,5,55,2,NA
fcp-trial,103,570412,0.0-64.0-0.0,voc_e2,11766,"[{""event"":""fullscreenenter"",""trial"":1,""time"":1922}]",NA,NA,NA,NA,NA,4,#FA92F8,#1CD855,0,0,1,38,1,463.20000000298023,37,1,1007.2999999970198,0,1,experiment,NA,NA,1,0.7,0.3,2,3,56,2,NA
fcp-trial,104,573384,0.0-65.0-0.0,voc_e2,11766,"[{""event"":""fullscreenenter"",""trial"":1,""time"":1922}]",NA,NA,NA,NA,NA,4,#3386FF,#D89F1C,0,10,0,38,1,838.9000000059605,39,0,625.2999999970198,10,1,experiment,NA,NA,0,0.1,0.9,1,0,57,2,NA
fcp-trial,105,576157,0.0-66.0-0.0,voc_e2,11766,"[{""event"":""fullscreenenter"",""trial"":1,""time"":1922}]",NA,NA,NA,NA,NA,3,#D89F1C,#3386FF,10,10,1,38,1,430.5,37,1,837.2999999970198,10,1,experiment,NA,NA,0,0.9,0.1,0,1,58,2,NA
fcp-trial,106,578646,0.0-67.0-0.0,voc_e2,11766,"[{""event"":""fullscreenenter"",""trial"":1,""time"":1922}]",NA,NA,NA,NA,NA,3,#D8271C,#741CD8,0,0,1,38,1,457,37,1,524.2999999970198,0,1,experiment,NA,NA,2,0.5,0.5,4,5,59,2,NA
fcp-trial,107,581272,0.0-68.0-0.0,voc_e2,11766,"[{""event"":""fullscreenenter"",""trial"":1,""time"":1922}]",NA,NA,NA,NA,NA,0,#3386FF,#D89F1C,0,10,0,38,1,599.7000000029802,39,0,516.5,10,1,experiment,NA,NA,0,0.1,0.9,1,0,60,2,NA
fcp-trial,108,583958,0.0-69.0-0.0,voc_e2,11766,"[{""event"":""fullscreenenter"",""trial"":1,""time"":1922}]",NA,NA,NA,NA,NA,5,#1CD855,#FA92F8,0,0,0,38,1,645.5,37,1,535.0999999940395,0,0,experiment,NA,NA,1,0.3,0.7,3,2,61,2,NA
fcp-trial,109,587077,0.0-70.0-0.0,voc_e2,11766,"[{""event"":""fullscreenenter"",""trial"":1,""time"":1922}]",NA,NA,NA,NA,NA,6,#741CD8,#D8271C,10,0,0,38,1,658.8000000119209,37,1,954.1999999880792,10,0,experiment,NA,NA,2,0.5,0.5,5,4,62,2,NA
fcp-trial,110,589813,0.0-71.0-0.0,voc_e2,11766,"[{""event"":""fullscreenenter"",""trial"":1,""time"":1922}]",NA,NA,NA,NA,NA,6,#FA92F8,#1CD855,10,0,1,38,1,520.8999999910593,37,1,709.0999999940395,10,1,experiment,NA,NA,1,0.7,0.3,2,3,63,2,NA
fcp-trial,111,592329,0.0-72.0-0.0,voc_e2,11766,"[{""event"":""fullscreenenter"",""trial"":1,""time"":1922}]",NA,NA,NA,NA,NA,4,#3386FF,#D89F1C,0,10,0,38,1,491.70000000298023,39,0,518.3000000119209,10,1,experiment,NA,NA,0,0.1,0.9,1,0,64,2,NA
fcp-trial,112,594850,0.0-73.0-0.0,voc_e2,11766,"[{""event"":""fullscreenenter"",""trial"":1,""time"":1922}]",NA,NA,NA,NA,NA,3,#FA92F8,#1CD855,0,0,1,38,1,580.1000000089407,37,1,436.3999999910593,0,1,experiment,NA,NA,1,0.7,0.3,2,3,65,2,NA
fcp-trial,113,597418,0.0-74.0-0.0,voc_e2,11766,"[{""event"":""fullscreenenter"",""trial"":1,""time"":1922}]",NA,NA,NA,NA,NA,0,#1CD855,#FA92F8,0,0,0,38,1,496.70000000298023,39,0,563.2000000029802,0,1,experiment,NA,NA,1,0.3,0.7,3,2,66,2,NA
fcp-trial,114,600070,0.0-75.0-0.0,voc_e2,11766,"[{""event"":""fullscreenenter"",""trial"":1,""time"":1922}]",NA,NA,NA,NA,NA,5,#D8271C,#741CD8,10,0,1,38,1,652.0999999940395,39,0,492.6000000089407,0,0,experiment,NA,NA,2,0.5,0.5,4,5,67,2,NA
fcp-trial,115,602674,0.0-76.0-0.0,voc_e2,11766,"[{""event"":""fullscreenenter"",""trial"":1,""time"":1922}]",NA,NA,NA,NA,NA,6,#D89F1C,#3386FF,10,0,1,38,1,727.5999999940395,37,1,368.8999999910593,10,1,experiment,NA,NA,0,0.9,0.1,0,1,68,2,NA
fcp-trial,116,605098,0.0-77.0-0.0,voc_e2,11766,"[{""event"":""fullscreenenter"",""trial"":1,""time"":1922}]",NA,NA,NA,NA,NA,5,#D89F1C,#3386FF,10,0,1,38,1,529,37,1,385.79999999701977,10,1,experiment,NA,NA,0,0.9,0.1,0,1,69,2,NA
fcp-trial,117,607490,0.0-78.0-0.0,voc_e2,11766,"[{""event"":""fullscreenenter"",""trial"":1,""time"":1922}]",NA,NA,NA,NA,NA,1,#741CD8,#D8271C,0,10,0,38,1,478.09999999403954,37,1,406.40000000596046,0,0,experiment,NA,NA,2,0.5,0.5,5,4,70,2,NA
fcp-trial,118,610322,0.0-79.0-0.0,voc_e2,11766,"[{""event"":""fullscreenenter"",""trial"":1,""time"":1922}]",NA,NA,NA,NA,NA,6,#1CD855,#FA92F8,0,10,0,38,1,838.4000000059605,39,0,487.70000000298023,10,1,experiment,NA,NA,1,0.3,0.7,3,2,71,2,NA
fcp-trial,119,612809,0.0-80.0-0.0,voc_e2,11766,"[{""event"":""fullscreenenter"",""trial"":1,""time"":1922}]",NA,NA,NA,NA,NA,2,#3386FF,#D89F1C,0,10,0,38,1,493.20000000298023,39,0,486.09999999403954,10,1,experiment,NA,NA,0,0.1,0.9,1,0,72,2,NA
fcp-trial,120,615295,0.0-81.0-0.0,voc_e2,11766,"[{""event"":""fullscreenenter"",""trial"":1,""time"":1922}]",NA,NA,NA,NA,NA,3,#741CD8,#D8271C,0,10,0,38,1,445.30000001192093,37,1,534.5,0,0,experiment,NA,NA,2,0.5,0.5,5,4,73,2,NA
fcp-trial,121,617806,0.0-82.0-0.0,voc_e2,11766,"[{""event"":""fullscreenenter"",""trial"":1,""time"":1922}]",NA,NA,NA,NA,NA,3,#D89F1C,#3386FF,10,0,1,38,1,556.2999999970198,37,1,441.300000011921,10,1,experiment,NA,NA,0,0.9,0.1,0,1,74,2,NA
fcp-trial,122,620528,0.0-83.0-0.0,voc_e2,11766,"[{""event"":""fullscreenenter"",""trial"":1,""time"":1922}]",NA,NA,NA,NA,NA,1,#FA92F8,#1CD855,10,0,1,38,1,694.7999999970198,37,1,515.8000000119209,10,1,experiment,NA,NA,1,0.7,0.3,2,3,75,2,NA
fcp-trial,123,623075,0.0-84.0-0.0,voc_e2,11766,"[{""event"":""fullscreenenter"",""trial"":1,""time"":1922}]",NA,NA,NA,NA,NA,0,#741CD8,#D8271C,10,10,0,38,1,502.70000000298023,39,0,536.8999999910593,10,1,experiment,NA,NA,2,0.5,0.5,5,4,76,2,NA
fcp-trial,124,625694,0.0-85.0-0.0,voc_e2,11766,"[{""event"":""fullscreenenter"",""trial"":1,""time"":1922}]",NA,NA,NA,NA,NA,2,#D8271C,#741CD8,10,10,1,38,1,525.9000000059605,37,1,588.9000000059605,10,1,experiment,NA,NA,2,0.5,0.5,4,5,77,2,NA
fcp-trial,125,628244,0.0-86.0-0.0,voc_e2,11766,"[{""event"":""fullscreenenter"",""trial"":1,""time"":1922}]",NA,NA,NA,NA,NA,6,#D8271C,#741CD8,0,0,1,38,1,512.9000000059605,37,1,531.2000000029802,0,1,experiment,NA,NA,2,0.5,0.5,4,5,78,2,NA
fcp-trial,126,630865,0.0-87.0-0.0,voc_e2,11766,"[{""event"":""fullscreenenter"",""trial"":1,""time"":1922}]",NA,NA,NA,NA,NA,0,#D89F1C,#3386FF,10,0,1,38,1,596,37,1,520,10,1,experiment,NA,NA,0,0.9,0.1,0,1,79,2,NA
fcp-trial,127,633418,0.0-88.0-0.0,voc_e2,11766,"[{""event"":""fullscreenenter"",""trial"":1,""time"":1922}]",NA,NA,NA,NA,NA,5,#1CD855,#FA92F8,10,10,0,38,1,477.80000001192093,37,1,569.2000000029802,10,0,experiment,NA,NA,1,0.3,0.7,3,2,80,2,NA
fcp-trial,128,636515,0.0-89.0-0.0,voc_e2,11766,"[{""event"":""fullscreenenter"",""trial"":1,""time"":1922}]",NA,NA,NA,NA,NA,2,#FA92F8,#1CD855,10,0,1,38,1,892.2999999970198,37,1,699.5,10,1,experiment,NA,NA,1,0.7,0.3,2,3,81,2,NA
fcp-trial,129,639208,0.0-90.0-0.0,voc_e2,11766,"[{""event"":""fullscreenenter"",""trial"":1,""time"":1922}]",NA,NA,NA,NA,NA,1,#3386FF,#D89F1C,0,0,0,38,1,581,39,0,604.7999999970198,0,1,experiment,NA,NA,0,0.1,0.9,1,0,82,2,NA
fcp-trial,130,642321,0.0-91.0-0.0,voc_e2,11766,"[{""event"":""fullscreenenter"",""trial"":1,""time"":1922}]",NA,NA,NA,NA,NA,4,#741CD8,#D8271C,10,10,0,38,1,836.7999999970198,39,0,767.0999999940395,10,1,experiment,NA,NA,2,0.5,0.5,5,4,83,2,NA
fcp-trial,131,645038,0.0-92.0-0.0,voc_e2,11766,"[{""event"":""fullscreenenter"",""trial"":1,""time"":1922}]",NA,NA,NA,NA,NA,4,#1CD855,#FA92F8,0,0,0,38,1,533.6000000089407,37,1,676.5,0,0,experiment,NA,NA,1,0.3,0.7,3,2,84,2,NA
fcp-trial,132,647759,0.0-93.0-0.0,voc_e2,11766,"[{""event"":""fullscreenenter"",""trial"":1,""time"":1922}]",NA,NA,NA,NA,NA,6,#D89F1C,#3386FF,10,0,1,38,1,642.7000000029802,37,1,566.0999999940395,10,1,experiment,NA,NA,0,0.9,0.1,0,1,85,2,NA
fcp-trial,133,650174,0.0-94.0-0.0,voc_e2,11766,"[{""event"":""fullscreenenter"",""trial"":1,""time"":1922}]",NA,NA,NA,NA,NA,4,#D89F1C,#3386FF,10,0,1,38,1,463.80000001192093,37,1,444.90000000596046,10,1,experiment,NA,NA,0,0.9,0.1,0,1,86,2,NA
fcp-trial,134,653354,0.0-95.0-0.0,voc_e2,11766,"[{""event"":""fullscreenenter"",""trial"":1,""time"":1922}]",NA,NA,NA,NA,NA,2,#1CD855,#FA92F8,10,10,0,38,1,720.2999999970198,39,0,954.5999999940396,10,1,experiment,NA,NA,1,0.3,0.7,3,2,87,2,NA
fcp-trial,135,655892,0.0-96.0-0.0,voc_e2,11766,"[{""event"":""fullscreenenter"",""trial"":1,""time"":1922}]",NA,NA,NA,NA,NA,0,#FA92F8,#1CD855,0,0,1,38,1,491.3999999910593,37,1,535.2999999970198,0,1,experiment,NA,NA,1,0.7,0.3,2,3,88,2,NA
fcp-trial,136,658263,0.0-97.0-0.0,voc_e2,11766,"[{""event"":""fullscreenenter"",""trial"":1,""time"":1922}]",NA,NA,NA,NA,NA,0,#D89F1C,#3386FF,10,10,1,38,1,402.59999999403954,37,1,460.59999999403954,10,1,experiment,NA,NA,0,0.9,0.1,0,1,89,2,NA
fcp-trial,137,661227,0.0-98.0-0.0,voc_e2,11766,"[{""event"":""fullscreenenter"",""trial"":1,""time"":1922}]",NA,NA,NA,NA,NA,5,#D8271C,#741CD8,10,0,1,38,1,527.9000000059605,37,1,931.9000000059604,10,1,experiment,NA,NA,2,0.5,0.5,4,5,90,2,NA
fcp-trial,138,663831,0.0-99.0-0.0,voc_e2,11766,"[{""event"":""fullscreenenter"",""trial"":1,""time"":1922}]",NA,NA,NA,NA,NA,1,#1CD855,#FA92F8,0,10,0,38,1,479.09999999403954,39,0,619.2999999970198,10,1,experiment,NA,NA,1,0.3,0.7,3,2,91,3,NA
fcp-trial,139,666916,0.0-100.0-0.0,voc_e2,11766,"[{""event"":""fullscreenenter"",""trial"":1,""time"":1922}]",NA,NA,NA,NA,NA,4,#D8271C,#741CD8,10,0,1,38,1,1104,37,1,469.29999999701977,10,1,experiment,NA,NA,2,0.5,0.5,4,5,92,3,NA
fcp-trial,140,669965,0.0-101.0-0.0,voc_e2,11766,"[{""event"":""fullscreenenter"",""trial"":1,""time"":1922}]",NA,NA,NA,NA,NA,1,#741CD8,#D8271C,10,0,0,38,1,661.5,39,0,882.2000000029802,0,1,experiment,NA,NA,2,0.5,0.5,5,4,93,3,NA
fcp-trial,141,672454,0.0-102.0-0.0,voc_e2,11766,"[{""event"":""fullscreenenter"",""trial"":1,""time"":1922}]",NA,NA,NA,NA,NA,1,#3386FF,#D89F1C,0,10,0,38,1,570.2999999970198,39,0,409.29999999701977,10,1,experiment,NA,NA,0,0.1,0.9,1,0,94,3,NA
fcp-trial,142,674943,0.0-103.0-0.0,voc_e2,11766,"[{""event"":""fullscreenenter"",""trial"":1,""time"":1922}]",NA,NA,NA,NA,NA,5,#D89F1C,#3386FF,10,0,1,38,1,525.4000000059605,37,1,441.90000000596046,10,1,experiment,NA,NA,0,0.9,0.1,0,1,95,3,NA
fcp-trial,143,677778,0.0-104.0-0.0,voc_e2,11766,"[{""event"":""fullscreenenter"",""trial"":1,""time"":1922}]",NA,NA,NA,NA,NA,5,#FA92F8,#1CD855,10,0,1,38,1,654.7000000029802,37,1,645.3999999910593,10,1,experiment,NA,NA,1,0.7,0.3,2,3,96,3,NA
fcp-trial,144,681035,0.0-105.0-0.0,voc_e2,11766,"[{""event"":""fullscreenenter"",""trial"":1,""time"":1922}]",NA,NA,NA,NA,NA,0,#741CD8,#D8271C,0,0,0,38,1,1075.7999999970198,39,0,672.2000000029802,0,1,experiment,NA,NA,2,0.5,0.5,5,4,97,3,NA
fcp-trial,145,684241,0.0-106.0-0.0,voc_e2,11766,"[{""event"":""fullscreenenter"",""trial"":1,""time"":1922}]",NA,NA,NA,NA,NA,6,#FA92F8,#1CD855,10,0,1,38,1,698.2000000029802,37,1,999,10,1,experiment,NA,NA,1,0.7,0.3,2,3,98,3,NA
fcp-trial,146,686844,0.0-107.0-0.0,voc_e2,11766,"[{""event"":""fullscreenenter"",""trial"":1,""time"":1922}]",NA,NA,NA,NA,NA,3,#D89F1C,#3386FF,10,0,1,38,1,577.5,37,1,519.5,10,1,experiment,NA,NA,0,0.9,0.1,0,1,99,3,NA
fcp-trial,147,689858,0.0-108.0-0.0,voc_e2,11766,"[{""event"":""fullscreenenter"",""trial"":1,""time"":1922}]",NA,NA,NA,NA,NA,6,#741CD8,#D8271C,10,10,0,38,1,677.7000000029802,39,0,831.3999999910593,10,1,experiment,NA,NA,2,0.5,0.5,5,4,100,3,NA
fcp-trial,148,692433,0.0-109.0-0.0,voc_e2,11766,"[{""event"":""fullscreenenter"",""trial"":1,""time"":1922}]",NA,NA,NA,NA,NA,2,#D89F1C,#3386FF,10,0,1,38,1,528.2000000029802,37,1,539.3999999910593,10,1,experiment,NA,NA,0,0.9,0.1,0,1,101,3,NA
fcp-trial,149,695498,0.0-110.0-0.0,voc_e2,11766,"[{""event"":""fullscreenenter"",""trial"":1,""time"":1922}]",NA,NA,NA,NA,NA,3,#D8271C,#741CD8,10,0,1,38,1,824.0999999940395,37,1,734.5,10,1,experiment,NA,NA,2,0.5,0.5,4,5,102,3,NA
fcp-trial,150,698028,0.0-111.0-0.0,voc_e2,11766,"[{""event"":""fullscreenenter"",""trial"":1,""time"":1922}]",NA,NA,NA,NA,NA,4,#FA92F8,#1CD855,0,0,1,38,1,426.5,37,1,598.5,0,1,experiment,NA,NA,1,0.7,0.3,2,3,103,3,NA
fcp-trial,151,700384,0.0-112.0-0.0,voc_e2,11766,"[{""event"":""fullscreenenter"",""trial"":1,""time"":1922}]",NA,NA,NA,NA,NA,3,#FA92F8,#1CD855,10,10,1,38,1,419.29999999701977,37,1,430.29999999701977,10,1,experiment,NA,NA,1,0.7,0.3,2,3,104,3,NA
fcp-trial,152,703241,0.0-113.0-0.0,voc_e2,11766,"[{""event"":""fullscreenenter"",""trial"":1,""time"":1922}]",NA,NA,NA,NA,NA,2,#741CD8,#D8271C,10,10,0,38,1,609.5999999940395,39,0,740,10,1,experiment,NA,NA,2,0.5,0.5,5,4,105,3,NA
audio-instructions,153,723992,0.0-114.0,voc_e2,11766,"[{""event"":""fullscreenenter"",""trial"":1,""time"":1922}]",NA,16298.20000000298,static/audio/pause.wav,NA,0,NA,NA,NA,NA,NA,NA,NA,NA,NA,NA,NA,NA,NA,NA,NA,NA,NA,NA,NA,NA,NA,NA,NA,NA,NA
fcp-trial,154,727562,0.0-115.0-0.0,voc_e2,11766,"[{""event"":""fullscreenenter"",""trial"":1,""time"":1922}]",NA,NA,NA,NA,NA,3,#D8271C,#741CD8,0,10,1,38,1,1536.2000000029802,37,1,525.7999999970198,0,1,experiment,NA,NA,2,0.5,0.5,4,5,106,3,NA
fcp-trial,155,729964,0.0-116.0-0.0,voc_e2,11766,"[{""event"":""fullscreenenter"",""trial"":1,""time"":1922}]",NA,NA,NA,NA,NA,3,#D89F1C,#3386FF,10,0,1,38,1,462.40000000596046,37,1,433.79999999701977,10,1,experiment,NA,NA,0,0.9,0.1,0,1,107,3,NA
fcp-trial,156,732493,0.0-117.0-0.0,voc_e2,11766,"[{""event"":""fullscreenenter"",""trial"":1,""time"":1922}]",NA,NA,NA,NA,NA,6,#D89F1C,#3386FF,10,10,1,38,1,451.09999999403954,37,1,569.0999999940395,10,1,experiment,NA,NA,0,0.9,0.1,0,1,108,3,NA
fcp-trial,157,735066,0.0-118.0-0.0,voc_e2,11766,"[{""event"":""fullscreenenter"",""trial"":1,""time"":1922}]",NA,NA,NA,NA,NA,5,#FA92F8,#1CD855,0,0,1,38,1,419.6000000089407,37,1,647.7999999970198,0,1,experiment,NA,NA,1,0.7,0.3,2,3,109,3,NA
fcp-trial,158,737523,0.0-119.0-0.0,voc_e2,11766,"[{""event"":""fullscreenenter"",""trial"":1,""time"":1922}]",NA,NA,NA,NA,NA,4,#741CD8,#D8271C,0,10,0,38,1,399.20000000298023,39,0,548.7999999970198,10,1,experiment,NA,NA,2,0.5,0.5,5,4,110,3,NA
fcp-trial,159,739875,0.0-120.0-0.0,voc_e2,11766,"[{""event"":""fullscreenenter"",""trial"":1,""time"":1922}]",NA,NA,NA,NA,NA,6,#FA92F8,#1CD855,0,0,1,38,1,412.20000000298023,37,1,429,0,1,experiment,NA,NA,1,0.7,0.3,2,3,111,3,NA
fcp-trial,160,742382,0.0-121.0-0.0,voc_e2,11766,"[{""event"":""fullscreenenter"",""trial"":1,""time"":1922}]",NA,NA,NA,NA,NA,0,#D89F1C,#3386FF,10,0,1,38,1,533.2000000029802,37,1,464.8999999910593,10,1,experiment,NA,NA,0,0.9,0.1,0,1,112,3,NA
fcp-trial,161,744990,0.0-122.0-0.0,voc_e2,11766,"[{""event"":""fullscreenenter"",""trial"":1,""time"":1922}]",NA,NA,NA,NA,NA,5,#D8271C,#741CD8,10,10,1,38,1,585.9000000059605,37,1,511.79999999701977,10,1,experiment,NA,NA,2,0.5,0.5,4,5,113,3,NA
fcp-trial,162,747438,0.0-123.0-0.0,voc_e2,11766,"[{""event"":""fullscreenenter"",""trial"":1,""time"":1922}]",NA,NA,NA,NA,NA,1,#1CD855,#FA92F8,0,0,0,38,1,490.5,37,1,449.3999999910593,0,0,experiment,NA,NA,1,0.3,0.7,3,2,114,3,NA
fcp-trial,163,750269,0.0-124.0-0.0,voc_e2,11766,"[{""event"":""fullscreenenter"",""trial"":1,""time"":1922}]",NA,NA,NA,NA,NA,6,#D8271C,#741CD8,0,0,1,38,1,780,37,1,545.5999999940395,0,1,experiment,NA,NA,2,0.5,0.5,4,5,115,3,NA
fcp-trial,164,752695,0.0-125.0-0.0,voc_e2,11766,"[{""event"":""fullscreenenter"",""trial"":1,""time"":1922}]",NA,NA,NA,NA,NA,5,#3386FF,#D89F1C,10,10,0,38,1,483,39,0,435.70000000298023,10,1,experiment,NA,NA,0,0.1,0.9,1,0,116,3,NA
fcp-trial,165,755276,0.0-126.0-0.0,voc_e2,11766,"[{""event"":""fullscreenenter"",""trial"":1,""time"":1922}]",NA,NA,NA,NA,NA,1,#D8271C,#741CD8,0,10,1,38,1,576.8000000119209,37,1,495,0,1,experiment,NA,NA,2,0.5,0.5,4,5,117,3,NA
fcp-trial,166,758043,0.0-127.0-0.0,voc_e2,11766,"[{""event"":""fullscreenenter"",""trial"":1,""time"":1922}]",NA,NA,NA,NA,NA,4,#1CD855,#FA92F8,0,10,0,38,1,494.3999999910593,37,1,765.2999999970198,0,0,experiment,NA,NA,1,0.3,0.7,3,2,118,3,NA
fcp-trial,167,761557,0.0-128.0-0.0,voc_e2,11766,"[{""event"":""fullscreenenter"",""trial"":1,""time"":1922}]",NA,NA,NA,NA,NA,2,#741CD8,#D8271C,0,0,0,38,1,687,39,0,1319.2000000029802,0,1,experiment,NA,NA,2,0.5,0.5,5,4,119,3,NA
fcp-trial,168,764347,0.0-129.0-0.0,voc_e2,11766,"[{""event"":""fullscreenenter"",""trial"":1,""time"":1922}]",NA,NA,NA,NA,NA,0,#FA92F8,#1CD855,0,0,1,38,1,534.5,39,0,747.2999999970198,0,0,experiment,NA,NA,1,0.7,0.3,2,3,120,3,NA
fcp-trial,169,767099,0.0-130.0-0.0,voc_e2,11766,"[{""event"":""fullscreenenter"",""trial"":1,""time"":1922}]",NA,NA,NA,NA,NA,2,#D89F1C,#3386FF,10,0,1,38,1,743.7000000029802,37,1,503.90000000596046,10,1,experiment,NA,NA,0,0.9,0.1,0,1,121,3,NA
fcp-trial,170,770245,0.0-131.0-0.0,voc_e2,11766,"[{""event"":""fullscreenenter"",""trial"":1,""time"":1922}]",NA,NA,NA,NA,NA,2,#1CD855,#FA92F8,0,10,0,38,1,647.2000000029802,39,0,994.5,10,1,experiment,NA,NA,1,0.3,0.7,3,2,122,3,NA
fcp-trial,171,773182,0.0-132.0-0.0,voc_e2,11766,"[{""event"":""fullscreenenter"",""trial"":1,""time"":1922}]",NA,NA,NA,NA,NA,0,#D8271C,#741CD8,10,0,1,38,1,630.3999999910593,37,1,799.5999999940395,10,1,experiment,NA,NA,2,0.5,0.5,4,5,123,3,NA
fcp-trial,172,776085,0.0-133.0-0.0,voc_e2,11766,"[{""event"":""fullscreenenter"",""trial"":1,""time"":1922}]",NA,NA,NA,NA,NA,4,#D89F1C,#3386FF,10,10,1,38,1,645.3999999910593,37,1,751.1999999880791,10,1,experiment,NA,NA,0,0.9,0.1,0,1,124,3,NA
fcp-trial,173,779508,0.0-134.0-0.0,voc_e2,11766,"[{""event"":""fullscreenenter"",""trial"":1,""time"":1922}]",NA,NA,NA,NA,NA,3,#1CD855,#FA92F8,0,10,0,38,1,678.7999999970198,39,0,1235.2000000029802,10,1,experiment,NA,NA,1,0.3,0.7,3,2,125,3,NA
fcp-trial,174,782363,0.0-135.0-0.0,voc_e2,11766,"[{""event"":""fullscreenenter"",""trial"":1,""time"":1922}]",NA,NA,NA,NA,NA,1,#D89F1C,#3386FF,10,0,1,38,1,709.7999999970198,37,1,639.3000000119209,10,1,experiment,NA,NA,0,0.9,0.1,0,1,126,3,NA
fcp-trial,175,785275,0.0-136.0-0.0,voc_e2,11766,"[{""event"":""fullscreenenter"",""trial"":1,""time"":1922}]",NA,NA,NA,NA,NA,3,#741CD8,#D8271C,10,0,0,38,1,381.59999999403954,39,0,1020.1999999880792,0,1,experiment,NA,NA,2,0.5,0.5,5,4,127,3,NA
fcp-trial,176,789087,0.0-137.0-0.0,voc_e2,11766,"[{""event"":""fullscreenenter"",""trial"":1,""time"":1922}]",NA,NA,NA,NA,NA,6,#1CD855,#FA92F8,10,0,0,38,1,736.9000000059605,39,0,1563.300000011921,0,1,experiment,NA,NA,1,0.3,0.7,3,2,128,3,NA
fcp-trial,177,791977,0.0-138.0-0.0,voc_e2,11766,"[{""event"":""fullscreenenter"",""trial"":1,""time"":1922}]",NA,NA,NA,NA,NA,5,#D89F1C,#3386FF,10,0,1,38,1,858.7999999970198,37,1,522.3999999910593,10,1,experiment,NA,NA,0,0.9,0.1,0,1,129,3,NA
fcp-trial,178,794861,0.0-139.0-0.0,voc_e2,11766,"[{""event"":""fullscreenenter"",""trial"":1,""time"":1922}]",NA,NA,NA,NA,NA,5,#1CD855,#FA92F8,0,10,0,38,1,602.0999999940395,39,0,772.0999999940395,10,1,experiment,NA,NA,1,0.3,0.7,3,2,130,3,NA
fcp-trial,179,798099,0.0-140.0-0.0,voc_e2,11766,"[{""event"":""fullscreenenter"",""trial"":1,""time"":1922}]",NA,NA,NA,NA,NA,6,#D8271C,#741CD8,10,0,1,38,1,717.7000000029802,37,1,1012.7000000029802,10,1,experiment,NA,NA,2,0.5,0.5,4,5,131,3,NA
fcp-trial,180,801429,0.0-141.0-0.0,voc_e2,11766,"[{""event"":""fullscreenenter"",""trial"":1,""time"":1922}]",NA,NA,NA,NA,NA,0,#3386FF,#D89F1C,0,10,0,38,1,748.9000000059605,39,0,1068.9000000059605,10,1,experiment,NA,NA,0,0.1,0.9,1,0,132,3,NA
fcp-trial,181,804214,0.0-142.0-0.0,voc_e2,11766,"[{""event"":""fullscreenenter"",""trial"":1,""time"":1922}]",NA,NA,NA,NA,NA,4,#1CD855,#FA92F8,0,10,0,38,1,614.7999999970198,39,0,663.6000000089407,10,1,experiment,NA,NA,1,0.3,0.7,3,2,133,3,NA
fcp-trial,182,807950,0.0-143.0-0.0,voc_e2,11766,"[{""event"":""fullscreenenter"",""trial"":1,""time"":1922}]",NA,NA,NA,NA,NA,5,#741CD8,#D8271C,0,0,0,38,1,533,39,0,1696.3999999910593,0,1,experiment,NA,NA,2,0.5,0.5,5,4,134,3,NA
fcp-trial,183,810581,0.0-144.0-0.0,voc_e2,11766,"[{""event"":""fullscreenenter"",""trial"":1,""time"":1922}]",NA,NA,NA,NA,NA,3,#3386FF,#D89F1C,0,0,0,38,1,462.59999999403954,39,0,661.9000000059605,0,1,experiment,NA,NA,0,0.1,0.9,1,0,135,3,NA
fcp-trial,184,813183,0.0-145.0-0.0,voc_e2,11766,"[{""event"":""fullscreenenter"",""trial"":1,""time"":1922}]",NA,NA,NA,NA,NA,2,#741CD8,#D8271C,10,0,0,38,1,464.70000000298023,39,0,627,0,1,experiment,NA,NA,2,0.5,0.5,5,4,136,4,NA
fcp-trial,185,815692,0.0-146.0-0.0,voc_e2,11766,"[{""event"":""fullscreenenter"",""trial"":1,""time"":1922}]",NA,NA,NA,NA,NA,1,#1CD855,#FA92F8,10,0,0,38,1,506.40000000596046,39,0,492.79999999701977,0,1,experiment,NA,NA,1,0.3,0.7,3,2,137,4,NA
fcp-trial,186,818380,0.0-147.0-0.0,voc_e2,11766,"[{""event"":""fullscreenenter"",""trial"":1,""time"":1922}]",NA,NA,NA,NA,NA,3,#1CD855,#FA92F8,10,10,0,38,1,679.9000000059605,39,0,502.199999988079,10,1,experiment,NA,NA,1,0.3,0.7,3,2,138,4,NA
fcp-trial,187,820915,0.0-148.0-0.0,voc_e2,11766,"[{""event"":""fullscreenenter"",""trial"":1,""time"":1922}]",NA,NA,NA,NA,NA,4,#3386FF,#D89F1C,0,10,0,38,1,558,39,0,469.6000000089407,10,1,experiment,NA,NA,0,0.1,0.9,1,0,139,4,NA
fcp-trial,188,824396,0.0-149.0-0.0,voc_e2,11766,"[{""event"":""fullscreenenter"",""trial"":1,""time"":1922}]",NA,NA,NA,NA,NA,0,#741CD8,#D8271C,10,0,0,38,1,785.7000000029802,39,0,1187.6000000089407,0,1,experiment,NA,NA,2,0.5,0.5,5,4,140,4,NA
fcp-trial,189,827048,0.0-150.0-0.0,voc_e2,11766,"[{""event"":""fullscreenenter"",""trial"":1,""time"":1922}]",NA,NA,NA,NA,NA,1,#D89F1C,#3386FF,10,0,1,38,1,691.0999999940395,37,1,454.79999999701977,10,1,experiment,NA,NA,0,0.9,0.1,0,1,141,4,NA
fcp-trial,190,829710,0.0-151.0-0.0,voc_e2,11766,"[{""event"":""fullscreenenter"",""trial"":1,""time"":1922}]",NA,NA,NA,NA,NA,2,#D89F1C,#3386FF,10,0,1,38,1,606.5,37,1,551.0999999940395,10,1,experiment,NA,NA,0,0.9,0.1,0,1,142,4,NA
fcp-trial,191,832301,0.0-152.0-0.0,voc_e2,11766,"[{""event"":""fullscreenenter"",""trial"":1,""time"":1922}]",NA,NA,NA,NA,NA,0,#1CD855,#FA92F8,0,0,0,38,1,517.1000000089407,39,0,566.2000000029802,0,1,experiment,NA,NA,1,0.3,0.7,3,2,143,4,NA
fcp-trial,192,834940,0.0-153.0-0.0,voc_e2,11766,"[{""event"":""fullscreenenter"",""trial"":1,""time"":1922}]",NA,NA,NA,NA,NA,4,#D8271C,#741CD8,0,0,1,38,1,472,37,1,660,0,1,experiment,NA,NA,2,0.5,0.5,4,5,144,4,NA
fcp-trial,193,837896,0.0-154.0-0.0,voc_e2,11766,"[{""event"":""fullscreenenter"",""trial"":1,""time"":1922}]",NA,NA,NA,NA,NA,1,#D8271C,#741CD8,10,0,1,38,1,909.3000000119209,39,0,537.4000000059605,0,0,experiment,NA,NA,2,0.5,0.5,4,5,145,4,NA
fcp-trial,194,840601,0.0-155.0-0.0,voc_e2,11766,"[{""event"":""fullscreenenter"",""trial"":1,""time"":1922}]",NA,NA,NA,NA,NA,2,#1CD855,#FA92F8,0,0,0,38,1,678.4000000059605,39,0,520.7999999970198,0,1,experiment,NA,NA,1,0.3,0.7,3,2,146,4,NA
fcp-trial,195,843047,0.0-156.0-0.0,voc_e2,11766,"[{""event"":""fullscreenenter"",""trial"":1,""time"":1922}]",NA,NA,NA,NA,NA,6,#3386FF,#D89F1C,0,10,0,38,1,459.90000000596046,39,0,478.70000000298023,10,1,experiment,NA,NA,0,0.1,0.9,1,0,147,4,NA
fcp-trial,196,845833,0.0-157.0-0.0,voc_e2,11766,"[{""event"":""fullscreenenter"",""trial"":1,""time"":1922}]",NA,NA,NA,NA,NA,5,#D8271C,#741CD8,10,10,1,38,1,772.7999999970198,37,1,501.5,10,1,experiment,NA,NA,2,0.5,0.5,4,5,148,4,NA
fcp-trial,197,848983,0.0-158.0-0.0,voc_e2,11766,"[{""event"":""fullscreenenter"",""trial"":1,""time"":1922}]",NA,NA,NA,NA,NA,0,#1CD855,#FA92F8,0,0,0,38,1,629.5,39,0,1012.9000000059604,0,1,experiment,NA,NA,1,0.3,0.7,3,2,149,4,NA
fcp-trial,198,851542,0.0-159.0-0.0,voc_e2,11766,"[{""event"":""fullscreenenter"",""trial"":1,""time"":1922}]",NA,NA,NA,NA,NA,6,#741CD8,#D8271C,0,10,0,38,1,462.5,39,0,588.3999999910593,10,1,experiment,NA,NA,2,0.5,0.5,5,4,150,4,NA
fcp-trial,199,854043,0.0-160.0-0.0,voc_e2,11766,"[{""event"":""fullscreenenter"",""trial"":1,""time"":1922}]",NA,NA,NA,NA,NA,1,#FA92F8,#1CD855,0,10,1,38,1,591.9000000059605,37,1,404,0,1,experiment,NA,NA,1,0.7,0.3,2,3,151,4,NA
fcp-trial,200,856597,0.0-161.0-0.0,voc_e2,11766,"[{""event"":""fullscreenenter"",""trial"":1,""time"":1922}]",NA,NA,NA,NA,NA,2,#3386FF,#D89F1C,0,10,0,38,1,610.2000000029802,39,0,437.29999999701977,10,1,experiment,NA,NA,0,0.1,0.9,1,0,152,4,NA
fcp-trial,201,859143,0.0-162.0-0.0,voc_e2,11766,"[{""event"":""fullscreenenter"",""trial"":1,""time"":1922}]",NA,NA,NA,NA,NA,1,#3386FF,#D89F1C,0,10,0,38,1,472.59999999403954,39,0,567.1000000089407,10,1,experiment,NA,NA,0,0.1,0.9,1,0,153,4,NA
fcp-trial,202,861811,0.0-163.0-0.0,voc_e2,11766,"[{""event"":""fullscreenenter"",""trial"":1,""time"":1922}]",NA,NA,NA,NA,NA,4,#FA92F8,#1CD855,0,0,1,38,1,744.7000000029802,37,1,417.90000000596046,0,1,experiment,NA,NA,1,0.7,0.3,2,3,154,4,NA
fcp-trial,203,864781,0.0-164.0-0.0,voc_e2,11766,"[{""event"":""fullscreenenter"",""trial"":1,""time"":1922}]",NA,NA,NA,NA,NA,2,#D8271C,#741CD8,0,0,1,38,1,465.79999999701977,37,1,999,0,1,experiment,NA,NA,2,0.5,0.5,4,5,155,4,NA
fcp-trial,204,867479,0.0-165.0-0.0,voc_e2,11766,"[{""event"":""fullscreenenter"",""trial"":1,""time"":1922}]",NA,NA,NA,NA,NA,4,#D89F1C,#3386FF,10,0,1,38,1,608.5,37,1,584.2000000029802,10,1,experiment,NA,NA,0,0.9,0.1,0,1,156,4,NA
fcp-trial,205,870341,0.0-166.0-0.0,voc_e2,11766,"[{""event"":""fullscreenenter"",""trial"":1,""time"":1922}]",NA,NA,NA,NA,NA,5,#FA92F8,#1CD855,10,10,1,38,1,462.3999999910593,37,1,893.7999999970198,10,1,experiment,NA,NA,1,0.7,0.3,2,3,157,4,NA
fcp-trial,206,873649,0.0-167.0-0.0,voc_e2,11766,"[{""event"":""fullscreenenter"",""trial"":1,""time"":1922}]",NA,NA,NA,NA,NA,6,#D89F1C,#3386FF,10,0,1,38,1,668.2999999970198,37,1,1131,10,1,experiment,NA,NA,0,0.9,0.1,0,1,158,4,NA
fcp-trial,207,876592,0.0-168.0-0.0,voc_e2,11766,"[{""event"":""fullscreenenter"",""trial"":1,""time"":1922}]",NA,NA,NA,NA,NA,5,#D89F1C,#3386FF,10,0,1,38,1,1019.8999999910593,37,1,415.1000000089407,10,1,experiment,NA,NA,0,0.9,0.1,0,1,159,4,NA
fcp-trial,208,879035,0.0-169.0-0.0,voc_e2,11766,"[{""event"":""fullscreenenter"",""trial"":1,""time"":1922}]",NA,NA,NA,NA,NA,4,#741CD8,#D8271C,10,10,0,38,1,523.7999999970198,39,0,411,10,1,experiment,NA,NA,2,0.5,0.5,5,4,160,4,NA
fcp-trial,209,881430,0.0-170.0-0.0,voc_e2,11766,"[{""event"":""fullscreenenter"",""trial"":1,""time"":1922}]",NA,NA,NA,NA,NA,6,#FA92F8,#1CD855,10,0,1,38,1,475.20000000298023,37,1,413.5,10,1,experiment,NA,NA,1,0.7,0.3,2,3,161,4,NA
fcp-trial,210,884071,0.0-171.0-0.0,voc_e2,11766,"[{""event"":""fullscreenenter"",""trial"":1,""time"":1922}]",NA,NA,NA,NA,NA,0,#D8271C,#741CD8,0,0,1,38,1,452.5,37,1,680.2000000029802,0,1,experiment,NA,NA,2,0.5,0.5,4,5,162,4,NA
fcp-trial,211,886840,0.0-172.0-0.0,voc_e2,11766,"[{""event"":""fullscreenenter"",""trial"":1,""time"":1922}]",NA,NA,NA,NA,NA,2,#FA92F8,#1CD855,10,0,1,38,1,670.3000000119209,37,1,591.2999999970198,10,1,experiment,NA,NA,1,0.7,0.3,2,3,163,4,NA
fcp-trial,212,889416,0.0-173.0-0.0,voc_e2,11766,"[{""event"":""fullscreenenter"",""trial"":1,""time"":1922}]",NA,NA,NA,NA,NA,3,#D89F1C,#3386FF,10,0,1,38,1,637.2999999970198,37,1,431,10,1,experiment,NA,NA,0,0.9,0.1,0,1,164,4,NA
fcp-trial,213,891831,0.0-174.0-0.0,voc_e2,11766,"[{""event"":""fullscreenenter"",""trial"":1,""time"":1922}]",NA,NA,NA,NA,NA,3,#741CD8,#D8271C,10,0,0,38,1,411.40000000596046,39,0,493.20000000298023,0,1,experiment,NA,NA,2,0.5,0.5,5,4,165,4,NA
fcp-trial,214,894395,0.0-175.0-0.0,voc_e2,11766,"[{""event"":""fullscreenenter"",""trial"":1,""time"":1922}]",NA,NA,NA,NA,NA,0,#3386FF,#D89F1C,0,10,0,38,1,582.4000000059605,39,0,473.20000000298023,10,1,experiment,NA,NA,0,0.1,0.9,1,0,166,4,NA
fcp-trial,215,897212,0.0-176.0-0.0,voc_e2,11766,"[{""event"":""fullscreenenter"",""trial"":1,""time"":1922}]",NA,NA,NA,NA,NA,3,#FA92F8,#1CD855,10,10,1,38,1,802.0999999940395,37,1,507.6000000089407,10,1,experiment,NA,NA,1,0.7,0.3,2,3,167,4,NA
fcp-trial,216,899783,0.0-177.0-0.0,voc_e2,11766,"[{""event"":""fullscreenenter"",""trial"":1,""time"":1922}]",NA,NA,NA,NA,NA,1,#741CD8,#D8271C,10,10,0,38,1,553.5,39,0,510.79999999701977,10,1,experiment,NA,NA,2,0.5,0.5,5,4,168,4,NA
fcp-trial,217,902386,0.0-178.0-0.0,voc_e2,11766,"[{""event"":""fullscreenenter"",""trial"":1,""time"":1922}]",NA,NA,NA,NA,NA,6,#D89F1C,#3386FF,10,0,1,38,1,625.0999999940395,37,1,471.29999999701977,10,1,experiment,NA,NA,0,0.9,0.1,0,1,169,4,NA
fcp-trial,218,904746,0.0-179.0-0.0,voc_e2,11766,"[{""event"":""fullscreenenter"",""trial"":1,""time"":1922}]",NA,NA,NA,NA,NA,2,#D89F1C,#3386FF,10,0,1,38,1,443.3999999910593,37,1,407.40000000596046,10,1,experiment,NA,NA,0,0.9,0.1,0,1,170,4,NA
fcp-trial,219,907406,0.0-180.0-0.0,voc_e2,11766,"[{""event"":""fullscreenenter"",""trial"":1,""time"":1922}]",NA,NA,NA,NA,NA,5,#741CD8,#D8271C,10,0,0,38,1,674.5,39,0,475.40000000596046,0,1,experiment,NA,NA,2,0.5,0.5,5,4,171,4,NA
fcp-trial,220,910719,0.0-181.0-0.0,voc_e2,11766,"[{""event"":""fullscreenenter"",""trial"":1,""time"":1922}]",NA,NA,NA,NA,NA,5,#1CD855,#FA92F8,0,0,0,38,1,757.6999999880791,39,0,1047.9000000059605,0,1,experiment,NA,NA,1,0.3,0.7,3,2,172,4,NA
fcp-trial,221,913655,0.0-182.0-0.0,voc_e2,11766,"[{""event"":""fullscreenenter"",""trial"":1,""time"":1922}]",NA,NA,NA,NA,NA,0,#741CD8,#D8271C,10,0,0,38,1,534.5,39,0,895.2999999970198,0,1,experiment,NA,NA,2,0.5,0.5,5,4,173,4,NA
fcp-trial,222,917039,0.0-183.0-0.0,voc_e2,11766,"[{""event"":""fullscreenenter"",""trial"":1,""time"":1922}]",NA,NA,NA,NA,NA,2,#741CD8,#D8271C,0,0,0,38,1,1230.2000000029802,39,0,648.1999999880791,0,1,experiment,NA,NA,2,0.5,0.5,5,4,174,4,NA
fcp-trial,223,919527,0.0-184.0-0.0,voc_e2,11766,"[{""event"":""fullscreenenter"",""trial"":1,""time"":1922}]",NA,NA,NA,NA,NA,4,#D89F1C,#3386FF,10,0,1,38,1,598.7999999970198,37,1,383.29999999701977,10,1,experiment,NA,NA,0,0.9,0.1,0,1,175,4,NA
fcp-trial,224,922224,0.0-185.0-0.0,voc_e2,11766,"[{""event"":""fullscreenenter"",""trial"":1,""time"":1922}]",NA,NA,NA,NA,NA,1,#1CD855,#FA92F8,10,0,0,38,1,408.5,39,0,782.6000000089407,0,1,experiment,NA,NA,1,0.3,0.7,3,2,176,4,NA
fcp-trial,225,924797,0.0-186.0-0.0,voc_e2,11766,"[{""event"":""fullscreenenter"",""trial"":1,""time"":1922}]",NA,NA,NA,NA,NA,1,#741CD8,#D8271C,0,0,0,38,1,582.7000000029802,39,0,485.8999999910593,0,1,experiment,NA,NA,2,0.5,0.5,5,4,177,4,NA
fcp-trial,226,927432,0.0-187.0-0.0,voc_e2,11766,"[{""event"":""fullscreenenter"",""trial"":1,""time"":1922}]",NA,NA,NA,NA,NA,1,#3386FF,#D89F1C,10,10,0,38,1,633,39,0,492.90000000596046,10,1,experiment,NA,NA,0,0.1,0.9,1,0,178,4,NA
fcp-trial,227,929994,0.0-188.0-0.0,voc_e2,11766,"[{""event"":""fullscreenenter"",""trial"":1,""time"":1922}]",NA,NA,NA,NA,NA,3,#FA92F8,#1CD855,0,0,1,38,1,424.79999999701977,37,1,630.8000000119209,0,1,experiment,NA,NA,1,0.7,0.3,2,3,179,4,NA
fcp-trial,228,932533,0.0-189.0-0.0,voc_e2,11766,"[{""event"":""fullscreenenter"",""trial"":1,""time"":1922}]",NA,NA,NA,NA,NA,0,#D89F1C,#3386FF,10,0,1,38,1,547.7999999970198,37,1,483.1000000089407,10,1,experiment,NA,NA,0,0.9,0.1,0,1,180,4,NA
fcp-trial,229,935465,0.0-190.0-0.0,voc_e2,11766,"[{""event"":""fullscreenenter"",""trial"":1,""time"":1922}]",NA,NA,NA,NA,NA,4,#741CD8,#D8271C,0,0,0,38,1,756.7999999970198,37,1,668.7999999970198,0,0,experiment,NA,NA,2,0.5,0.5,5,4,181,5,NA
fcp-trial,230,938817,0.0-191.0-0.0,voc_e2,11766,"[{""event"":""fullscreenenter"",""trial"":1,""time"":1922}]",NA,NA,NA,NA,NA,6,#FA92F8,#1CD855,10,0,1,38,1,1067.5,37,1,774.5,10,1,experiment,NA,NA,1,0.7,0.3,2,3,182,5,NA
fcp-trial,231,941609,0.0-192.0-0.0,voc_e2,11766,"[{""event"":""fullscreenenter"",""trial"":1,""time"":1922}]",NA,NA,NA,NA,NA,5,#D89F1C,#3386FF,10,0,1,38,1,743.0999999940395,37,1,540.3999999910593,10,1,experiment,NA,NA,0,0.9,0.1,0,1,183,5,NA
fcp-trial,232,944210,0.0-193.0-0.0,voc_e2,11766,"[{""event"":""fullscreenenter"",""trial"":1,""time"":1922}]",NA,NA,NA,NA,NA,2,#FA92F8,#1CD855,10,10,1,38,1,627.7000000029802,37,1,463.6000000089407,10,1,experiment,NA,NA,1,0.7,0.3,2,3,184,5,NA
fcp-trial,233,946804,0.0-194.0-0.0,voc_e2,11766,"[{""event"":""fullscreenenter"",""trial"":1,""time"":1922}]",NA,NA,NA,NA,NA,4,#1CD855,#FA92F8,0,10,0,38,1,563.5,39,0,518.9000000059605,10,1,experiment,NA,NA,1,0.3,0.7,3,2,185,5,NA
fcp-trial,234,950273,0.0-195.0-0.0,voc_e2,11766,"[{""event"":""fullscreenenter"",""trial"":1,""time"":1922}]",NA,NA,NA,NA,NA,6,#D8271C,#741CD8,10,0,1,38,1,546.2999999970198,37,1,1415.7999999970198,10,1,experiment,NA,NA,2,0.5,0.5,4,5,186,5,NA
fcp-trial,235,952866,0.0-196.0-0.0,voc_e2,11766,"[{""event"":""fullscreenenter"",""trial"":1,""time"":1922}]",NA,NA,NA,NA,NA,0,#1CD855,#FA92F8,10,10,0,38,1,561,39,0,523.5,10,1,experiment,NA,NA,1,0.3,0.7,3,2,187,5,NA
fcp-trial,236,955457,0.0-197.0-0.0,voc_e2,11766,"[{""event"":""fullscreenenter"",""trial"":1,""time"":1922}]",NA,NA,NA,NA,NA,3,#3386FF,#D89F1C,0,10,0,38,1,458.79999999701977,39,0,621.2000000029802,10,1,experiment,NA,NA,0,0.1,0.9,1,0,188,5,NA
fcp-trial,237,958127,0.0-198.0-0.0,voc_e2,11766,"[{""event"":""fullscreenenter"",""trial"":1,""time"":1922}]",NA,NA,NA,NA,NA,3,#D8271C,#741CD8,10,10,1,38,1,480.59999999403954,37,1,683.5999999940395,10,1,experiment,NA,NA,2,0.5,0.5,4,5,189,5,NA
fcp-trial,238,960754,0.0-199.0-0.0,voc_e2,11766,"[{""event"":""fullscreenenter"",""trial"":1,""time"":1922}]",NA,NA,NA,NA,NA,3,#3386FF,#D89F1C,0,10,0,38,1,680.1000000089407,39,0,438.20000000298023,10,1,experiment,NA,NA,0,0.1,0.9,1,0,190,5,NA
fcp-trial,239,963411,0.0-200.0-0.0,voc_e2,11766,"[{""event"":""fullscreenenter"",""trial"":1,""time"":1922}]",NA,NA,NA,NA,NA,3,#741CD8,#D8271C,0,10,0,38,1,500.09999999403954,39,0,649.4000000059605,10,1,experiment,NA,NA,2,0.5,0.5,5,4,191,5,NA
fcp-trial,240,965846,0.0-201.0-0.0,voc_e2,11766,"[{""event"":""fullscreenenter"",""trial"":1,""time"":1922}]",NA,NA,NA,NA,NA,5,#3386FF,#D89F1C,10,10,0,38,1,478.6000000089407,39,0,450.3999999910593,10,1,experiment,NA,NA,0,0.1,0.9,1,0,192,5,NA
fcp-trial,241,968305,0.0-202.0-0.0,voc_e2,11766,"[{""event"":""fullscreenenter"",""trial"":1,""time"":1922}]",NA,NA,NA,NA,NA,6,#FA92F8,#1CD855,0,10,1,38,1,428.70000000298023,37,1,522.4000000059605,0,1,experiment,NA,NA,1,0.7,0.3,2,3,193,5,NA
fcp-trial,242,971337,0.0-203.0-0.0,voc_e2,11766,"[{""event"":""fullscreenenter"",""trial"":1,""time"":1922}]",NA,NA,NA,NA,NA,2,#741CD8,#D8271C,10,0,0,38,1,891.9000000059605,39,0,628.2000000029802,0,1,experiment,NA,NA,2,0.5,0.5,5,4,194,5,NA
fcp-trial,243,973920,0.0-204.0-0.0,voc_e2,11766,"[{""event"":""fullscreenenter"",""trial"":1,""time"":1922}]",NA,NA,NA,NA,NA,2,#3386FF,#D89F1C,0,10,0,38,1,630,39,0,445.20000000298023,10,1,experiment,NA,NA,0,0.1,0.9,1,0,195,5,NA
fcp-trial,244,976381,0.0-205.0-0.0,voc_e2,11766,"[{""event"":""fullscreenenter"",""trial"":1,""time"":1922}]",NA,NA,NA,NA,NA,5,#FA92F8,#1CD855,10,0,1,38,1,495.6000000089407,37,1,455.09999999403954,10,1,experiment,NA,NA,1,0.7,0.3,2,3,196,5,NA
fcp-trial,245,978789,0.0-206.0-0.0,voc_e2,11766,"[{""event"":""fullscreenenter"",""trial"":1,""time"":1922}]",NA,NA,NA,NA,NA,6,#741CD8,#D8271C,10,0,0,38,1,505.09999999403954,39,0,392,0,1,experiment,NA,NA,2,0.5,0.5,5,4,197,5,NA
fcp-trial,246,981517,0.0-207.0-0.0,voc_e2,11766,"[{""event"":""fullscreenenter"",""trial"":1,""time"":1922}]",NA,NA,NA,NA,NA,6,#D89F1C,#3386FF,10,0,1,38,1,801.7999999970198,37,1,412.29999999701977,10,1,experiment,NA,NA,0,0.9,0.1,0,1,198,5,NA
fcp-trial,247,984236,0.0-208.0-0.0,voc_e2,11766,"[{""event"":""fullscreenenter"",""trial"":1,""time"":1922}]",NA,NA,NA,NA,NA,1,#D8271C,#741CD8,10,10,1,38,1,521.4000000059605,37,1,689.0999999940395,10,1,experiment,NA,NA,2,0.5,0.5,4,5,199,5,NA
fcp-trial,248,986828,0.0-209.0-0.0,voc_e2,11766,"[{""event"":""fullscreenenter"",""trial"":1,""time"":1922}]",NA,NA,NA,NA,NA,0,#D8271C,#741CD8,10,10,1,38,1,681.6000000089407,37,1,403.79999999701977,10,1,experiment,NA,NA,2,0.5,0.5,4,5,200,5,NA
fcp-trial,249,989187,0.0-210.0-0.0,voc_e2,11766,"[{""event"":""fullscreenenter"",""trial"":1,""time"":1922}]",NA,NA,NA,NA,NA,3,#1CD855,#FA92F8,0,10,0,38,1,466.20000000298023,39,0,381,10,1,experiment,NA,NA,1,0.3,0.7,3,2,201,5,NA
fcp-trial,250,991878,0.0-211.0-0.0,voc_e2,11766,"[{""event"":""fullscreenenter"",""trial"":1,""time"":1922}]",NA,NA,NA,NA,NA,1,#3386FF,#D89F1C,0,10,0,38,1,635.1000000089407,39,0,545.6999999880791,10,1,experiment,NA,NA,0,0.1,0.9,1,0,202,5,NA
fcp-trial,251,994310,0.0-212.0-0.0,voc_e2,11766,"[{""event"":""fullscreenenter"",""trial"":1,""time"":1922}]",NA,NA,NA,NA,NA,4,#741CD8,#D8271C,0,0,0,38,1,476.6000000089407,39,0,450.300000011921,0,1,experiment,NA,NA,2,0.5,0.5,5,4,203,5,NA
fcp-trial,252,997185,0.0-213.0-0.0,voc_e2,11766,"[{""event"":""fullscreenenter"",""trial"":1,""time"":1922}]",NA,NA,NA,NA,NA,0,#1CD855,#FA92F8,0,0,0,38,1,690.0999999940395,39,0,676.7000000029802,0,1,experiment,NA,NA,1,0.3,0.7,3,2,204,5,NA
fcp-trial,253,999693,0.0-214.0-0.0,voc_e2,11766,"[{""event"":""fullscreenenter"",""trial"":1,""time"":1922}]",NA,NA,NA,NA,NA,2,#FA92F8,#1CD855,10,0,1,38,1,553.5999999940395,37,1,447.20000000298023,10,1,experiment,NA,NA,1,0.7,0.3,2,3,205,5,NA
fcp-trial,254,1002118,0.0-215.0-0.0,voc_e2,11766,"[{""event"":""fullscreenenter"",""trial"":1,""time"":1922}]",NA,NA,NA,NA,NA,5,#741CD8,#D8271C,10,10,0,38,1,514.3000000119209,39,0,403.09999999403954,10,1,experiment,NA,NA,2,0.5,0.5,5,4,206,5,NA
fcp-trial,255,1004846,0.0-216.0-0.0,voc_e2,11766,"[{""event"":""fullscreenenter"",""trial"":1,""time"":1922}]",NA,NA,NA,NA,NA,4,#D89F1C,#3386FF,0,0,1,38,1,826.2999999970198,37,1,390.3999999910593,0,1,experiment,NA,NA,0,0.9,0.1,0,1,207,5,NA
fcp-trial,256,1007368,0.0-217.0-0.0,voc_e2,11766,"[{""event"":""fullscreenenter"",""trial"":1,""time"":1922}]",NA,NA,NA,NA,NA,0,#D89F1C,#3386FF,10,10,1,38,1,628.5,37,1,386.699999988079,10,1,experiment,NA,NA,0,0.9,0.1,0,1,208,5,NA
fcp-trial,257,1009826,0.0-218.0-0.0,voc_e2,11766,"[{""event"":""fullscreenenter"",""trial"":1,""time"":1922}]",NA,NA,NA,NA,NA,4,#FA92F8,#1CD855,0,0,1,38,1,568.2000000029802,37,1,383.70000000298023,0,1,experiment,NA,NA,1,0.7,0.3,2,3,209,5,NA
fcp-trial,258,1012294,0.0-219.0-0.0,voc_e2,11766,"[{""event"":""fullscreenenter"",""trial"":1,""time"":1922}]",NA,NA,NA,NA,NA,1,#FA92F8,#1CD855,10,0,1,38,1,503.70000000298023,37,1,456.70000000298023,10,1,experiment,NA,NA,1,0.7,0.3,2,3,210,5,NA
audio-instructions,259,1033410,0.0-220.0,voc_e2,11766,"[{""event"":""fullscreenenter"",""trial"":1,""time"":1922}]",NA,16663,static/audio/pause.wav,NA,0,NA,NA,NA,NA,NA,NA,NA,NA,NA,NA,NA,NA,NA,NA,NA,NA,NA,NA,NA,NA,NA,NA,NA,NA,NA
fcp-trial,260,1037094,0.0-221.0-0.0,voc_e2,11766,"[{""event"":""fullscreenenter"",""trial"":1,""time"":1922}]",NA,NA,NA,NA,NA,3,#D89F1C,#3386FF,10,0,1,38,1,1720.7999999970198,37,1,454.699999988079,10,1,experiment,NA,NA,0,0.9,0.1,0,1,211,5,NA
fcp-trial,261,1039514,0.0-222.0-0.0,voc_e2,11766,"[{""event"":""fullscreenenter"",""trial"":1,""time"":1922}]",NA,NA,NA,NA,NA,6,#1CD855,#FA92F8,10,10,0,38,1,456.59999999403954,39,0,455,10,1,experiment,NA,NA,1,0.3,0.7,3,2,212,5,NA
fcp-trial,262,1041983,0.0-223.0-0.0,voc_e2,11766,"[{""event"":""fullscreenenter"",""trial"":1,""time"":1922}]",NA,NA,NA,NA,NA,0,#FA92F8,#1CD855,0,0,1,38,1,528.5,37,1,430.1000000089407,0,1,experiment,NA,NA,1,0.7,0.3,2,3,213,5,NA
fcp-trial,263,1044461,0.0-224.0-0.0,voc_e2,11766,"[{""event"":""fullscreenenter"",""trial"":1,""time"":1922}]",NA,NA,NA,NA,NA,4,#D89F1C,#3386FF,10,0,1,38,1,466.09999999403954,37,1,503.5,10,1,experiment,NA,NA,0,0.9,0.1,0,1,214,5,NA
fcp-trial,264,1047115,0.0-225.0-0.0,voc_e2,11766,"[{""event"":""fullscreenenter"",""trial"":1,""time"":1922}]",NA,NA,NA,NA,NA,2,#D8271C,#741CD8,10,10,1,38,1,548.7999999970198,37,1,600.1999999880791,10,1,experiment,NA,NA,2,0.5,0.5,4,5,215,5,NA
fcp-trial,265,1049632,0.0-226.0-0.0,voc_e2,11766,"[{""event"":""fullscreenenter"",""trial"":1,""time"":1922}]",NA,NA,NA,NA,NA,4,#741CD8,#D8271C,10,0,0,38,1,534.1999999880791,39,0,475,0,1,experiment,NA,NA,2,0.5,0.5,5,4,216,5,NA
fcp-trial,266,1052085,0.0-227.0-0.0,voc_e2,11766,"[{""event"":""fullscreenenter"",""trial"":1,""time"":1922}]",NA,NA,NA,NA,NA,4,#FA92F8,#1CD855,10,0,1,38,1,513.5,37,1,433.09999999403954,10,1,experiment,NA,NA,1,0.7,0.3,2,3,217,5,NA
fcp-trial,267,1054934,0.0-228.0-0.0,voc_e2,11766,"[{""event"":""fullscreenenter"",""trial"":1,""time"":1922}]",NA,NA,NA,NA,NA,6,#3386FF,#D89F1C,0,0,0,38,1,607.5999999940395,39,0,734.2999999970198,0,1,experiment,NA,NA,0,0.1,0.9,1,0,218,5,NA
fcp-trial,268,1057708,0.0-229.0-0.0,voc_e2,11766,"[{""event"":""fullscreenenter"",""trial"":1,""time"":1922}]",NA,NA,NA,NA,NA,5,#D8271C,#741CD8,10,0,1,38,1,677.9000000059605,37,1,587.0999999940395,10,1,experiment,NA,NA,2,0.5,0.5,4,5,219,5,NA
fcp-trial,269,1060155,0.0-230.0-0.0,voc_e2,11766,"[{""event"":""fullscreenenter"",""trial"":1,""time"":1922}]",NA,NA,NA,NA,NA,3,#741CD8,#D8271C,10,10,0,38,1,494,39,0,446.20000000298023,10,1,experiment,NA,NA,2,0.5,0.5,5,4,220,5,NA
fcp-trial,270,1062824,0.0-231.0-0.0,voc_e2,11766,"[{""event"":""fullscreenenter"",""trial"":1,""time"":1922}]",NA,NA,NA,NA,NA,0,#3386FF,#D89F1C,10,10,0,38,1,543.5999999940395,39,0,619.5,10,1,experiment,NA,NA,0,0.1,0.9,1,0,221,5,NA
fcp-trial,271,1065550,0.0-232.0-0.0,voc_e2,11766,"[{""event"":""fullscreenenter"",""trial"":1,""time"":1922}]",NA,NA,NA,NA,NA,1,#FA92F8,#1CD855,0,0,1,38,1,761.6999999880791,37,1,455.29999999701977,0,1,experiment,NA,NA,1,0.7,0.3,2,3,222,5,NA
fcp-trial,272,1069267,0.0-233.0-0.0,voc_e2,11766,"[{""event"":""fullscreenenter"",""trial"":1,""time"":1922}]",NA,NA,NA,NA,NA,1,#D89F1C,#3386FF,10,0,1,38,1,1615.8999999910593,37,1,590.8000000119209,10,1,experiment,NA,NA,0,0.9,0.1,0,1,223,5,NA
fcp-trial,273,1072079,0.0-234.0-0.0,voc_e2,11766,"[{""event"":""fullscreenenter"",""trial"":1,""time"":1922}]",NA,NA,NA,NA,NA,6,#D8271C,#741CD8,10,0,1,38,1,829.2000000029802,37,1,472.79999999701977,10,1,experiment,NA,NA,2,0.5,0.5,4,5,224,5,NA
fcp-trial,274,1074840,0.0-235.0-0.0,voc_e2,11766,"[{""event"":""fullscreenenter"",""trial"":1,""time"":1922}]",NA,NA,NA,NA,NA,2,#D89F1C,#3386FF,10,10,1,38,1,806.6000000089407,37,1,447.29999999701977,10,1,experiment,NA,NA,0,0.9,0.1,0,1,225,5,NA
fcp-trial,275,1077565,0.0-236.0-0.0,voc_e2,11766,"[{""event"":""fullscreenenter"",""trial"":1,""time"":1922}]",NA,NA,NA,NA,NA,1,#741CD8,#D8271C,0,10,0,38,1,681,39,0,535.0999999940395,10,1,experiment,NA,NA,2,0.5,0.5,5,4,226,6,NA
fcp-trial,276,1080511,0.0-237.0-0.0,voc_e2,11766,"[{""event"":""fullscreenenter"",""trial"":1,""time"":1922}]",NA,NA,NA,NA,NA,3,#1CD855,#FA92F8,10,10,0,38,1,533.4000000059605,39,0,903.2000000029802,10,1,experiment,NA,NA,1,0.3,0.7,3,2,227,6,NA
fcp-trial,277,1083534,0.0-238.0-0.0,voc_e2,11766,"[{""event"":""fullscreenenter"",""trial"":1,""time"":1922}]",NA,NA,NA,NA,NA,5,#1CD855,#FA92F8,10,0,0,38,1,964.2999999970198,39,0,551.7000000029802,0,1,experiment,NA,NA,1,0.3,0.7,3,2,228,6,NA
fcp-trial,278,1086039,0.0-239.0-0.0,voc_e2,11766,"[{""event"":""fullscreenenter"",""trial"":1,""time"":1922}]",NA,NA,NA,NA,NA,5,#3386FF,#D89F1C,0,10,0,38,1,574.7000000029802,39,0,423.09999999403954,10,1,experiment,NA,NA,0,0.1,0.9,1,0,229,6,NA
fcp-trial,279,1088446,0.0-240.0-0.0,voc_e2,11766,"[{""event"":""fullscreenenter"",""trial"":1,""time"":1922}]",NA,NA,NA,NA,NA,0,#D8271C,#741CD8,10,0,1,38,1,459.40000000596046,37,1,437.90000000596046,10,1,experiment,NA,NA,2,0.5,0.5,4,5,230,6,NA
fcp-trial,280,1091101,0.0-241.0-0.0,voc_e2,11766,"[{""event"":""fullscreenenter"",""trial"":1,""time"":1922}]",NA,NA,NA,NA,NA,2,#1CD855,#FA92F8,10,0,0,38,1,598.7999999970198,39,0,551.2000000029802,0,1,experiment,NA,NA,1,0.3,0.7,3,2,231,6,NA
fcp-trial,281,1093673,0.0-242.0-0.0,voc_e2,11766,"[{""event"":""fullscreenenter"",""trial"":1,""time"":1922}]",NA,NA,NA,NA,NA,6,#FA92F8,#1CD855,0,0,1,38,1,621.2000000029802,37,1,441.79999999701977,0,1,experiment,NA,NA,1,0.7,0.3,2,3,232,6,NA
fcp-trial,282,1095992,0.0-243.0-0.0,voc_e2,11766,"[{""event"":""fullscreenenter"",""trial"":1,""time"":1922}]",NA,NA,NA,NA,NA,5,#1CD855,#FA92F8,0,10,0,38,1,465.79999999701977,39,0,345.29999999701977,10,1,experiment,NA,NA,1,0.3,0.7,3,2,233,6,NA
fcp-trial,283,1098304,0.0-244.0-0.0,voc_e2,11766,"[{""event"":""fullscreenenter"",""trial"":1,""time"":1922}]",NA,NA,NA,NA,NA,2,#3386FF,#D89F1C,0,10,0,38,1,458.80000001192093,39,0,345.70000000298023,10,1,experiment,NA,NA,0,0.1,0.9,1,0,234,6,NA
fcp-trial,284,1101229,0.0-245.0-0.0,voc_e2,11766,"[{""event"":""fullscreenenter"",""trial"":1,""time"":1922}]",NA,NA,NA,NA,NA,4,#D89F1C,#3386FF,10,0,1,38,1,697.5999999940395,37,1,718.8999999910593,10,1,experiment,NA,NA,0,0.9,0.1,0,1,235,6,NA
fcp-trial,285,1103561,0.0-246.0-0.0,voc_e2,11766,"[{""event"":""fullscreenenter"",""trial"":1,""time"":1922}]",NA,NA,NA,NA,NA,4,#741CD8,#D8271C,0,10,0,38,1,574.1000000089407,39,0,250.30000001192093,10,1,experiment,NA,NA,2,0.5,0.5,5,4,236,6,NA
fcp-trial,286,1105945,0.0-247.0-0.0,voc_e2,11766,"[{""event"":""fullscreenenter"",""trial"":1,""time"":1922}]",NA,NA,NA,NA,NA,2,#1CD855,#FA92F8,0,10,0,38,1,618.0999999940395,39,0,261.6000000089407,10,1,experiment,NA,NA,1,0.3,0.7,3,2,237,6,NA
fcp-trial,287,1108452,0.0-248.0-0.0,voc_e2,11766,"[{""event"":""fullscreenenter"",""trial"":1,""time"":1922}]",NA,NA,NA,NA,NA,0,#3386FF,#D89F1C,0,10,0,38,1,610.5999999940395,39,0,389,10,1,experiment,NA,NA,0,0.1,0.9,1,0,238,6,NA
fcp-trial,288,1110703,0.0-249.0-0.0,voc_e2,11766,"[{""event"":""fullscreenenter"",""trial"":1,""time"":1922}]",NA,NA,NA,NA,NA,1,#FA92F8,#1CD855,0,0,1,38,1,484.59999999403954,37,1,255.70000000298023,0,1,experiment,NA,NA,1,0.7,0.3,2,3,239,6,NA
fcp-trial,289,1113038,0.0-250.0-0.0,voc_e2,11766,"[{""event"":""fullscreenenter"",""trial"":1,""time"":1922}]",NA,NA,NA,NA,NA,6,#D8271C,#741CD8,10,10,1,38,1,401.90000000596046,37,1,422.29999999701977,10,1,experiment,NA,NA,2,0.5,0.5,4,5,240,6,NA
fcp-trial,290,1115300,0.0-251.0-0.0,voc_e2,11766,"[{""event"":""fullscreenenter"",""trial"":1,""time"":1922}]",NA,NA,NA,NA,NA,3,#741CD8,#D8271C,10,10,0,38,1,490.70000000298023,39,0,260.6000000089407,10,1,experiment,NA,NA,2,0.5,0.5,5,4,241,6,NA
fcp-trial,291,1118614,0.0-252.0-0.0,voc_e2,11766,"[{""event"":""fullscreenenter"",""trial"":1,""time"":1922}]",NA,NA,NA,NA,NA,3,#1CD855,#FA92F8,0,10,0,38,1,744.6000000089407,39,0,1063.4000000059605,10,1,experiment,NA,NA,1,0.3,0.7,3,2,242,6,NA
fcp-trial,292,1121186,0.0-253.0-0.0,voc_e2,11766,"[{""event"":""fullscreenenter"",""trial"":1,""time"":1922}]",NA,NA,NA,NA,NA,6,#3386FF,#D89F1C,0,10,0,38,1,790.2999999970198,39,0,274.1000000089407,10,1,experiment,NA,NA,0,0.1,0.9,1,0,243,6,NA
fcp-trial,293,1124429,0.0-254.0-0.0,voc_e2,11766,"[{""event"":""fullscreenenter"",""trial"":1,""time"":1922}]",NA,NA,NA,NA,NA,3,#D89F1C,#3386FF,10,0,1,38,1,1027.0999999940395,37,1,710.1999999880791,10,1,experiment,NA,NA,0,0.9,0.1,0,1,244,6,NA
fcp-trial,294,1127421,0.0-255.0-0.0,voc_e2,11766,"[{""event"":""fullscreenenter"",""trial"":1,""time"":1922}]",NA,NA,NA,NA,NA,5,#D8271C,#741CD8,10,10,1,38,1,805.5,37,1,677.9000000059605,10,1,experiment,NA,NA,2,0.5,0.5,4,5,245,6,NA
fcp-trial,295,1130127,0.0-256.0-0.0,voc_e2,11766,"[{""event"":""fullscreenenter"",""trial"":1,""time"":1922}]",NA,NA,NA,NA,NA,0,#FA92F8,#1CD855,0,0,1,38,1,751.2000000029802,37,1,449.70000000298023,0,1,experiment,NA,NA,1,0.7,0.3,2,3,246,6,NA
fcp-trial,296,1132644,0.0-257.0-0.0,voc_e2,11766,"[{""event"":""fullscreenenter"",""trial"":1,""time"":1922}]",NA,NA,NA,NA,NA,5,#3386FF,#D89F1C,0,10,0,38,1,557.7000000029802,39,0,454.300000011921,10,1,experiment,NA,NA,0,0.1,0.9,1,0,247,6,NA
fcp-trial,297,1135692,0.0-258.0-0.0,voc_e2,11766,"[{""event"":""fullscreenenter"",""trial"":1,""time"":1922}]",NA,NA,NA,NA,NA,0,#741CD8,#D8271C,10,0,0,38,1,759.1999999880791,39,0,783.1000000089407,0,1,experiment,NA,NA,2,0.5,0.5,5,4,248,6,NA
fcp-trial,298,1138085,0.0-259.0-0.0,voc_e2,11766,"[{""event"":""fullscreenenter"",""trial"":1,""time"":1922}]",NA,NA,NA,NA,NA,1,#D89F1C,#3386FF,10,0,1,38,1,408.70000000298023,37,1,477.1000000089407,10,1,experiment,NA,NA,0,0.9,0.1,0,1,249,6,NA
fcp-trial,299,1140438,0.0-260.0-0.0,voc_e2,11766,"[{""event"":""fullscreenenter"",""trial"":1,""time"":1922}]",NA,NA,NA,NA,NA,4,#1CD855,#FA92F8,0,0,0,38,1,382.29999999701977,39,0,460.8999999910593,0,1,experiment,NA,NA,1,0.3,0.7,3,2,250,6,NA
fcp-trial,300,1143413,0.0-261.0-0.0,voc_e2,11766,"[{""event"":""fullscreenenter"",""trial"":1,""time"":1922}]",NA,NA,NA,NA,NA,1,#741CD8,#D8271C,10,0,0,38,1,451.90000000596046,39,0,1014.3999999910592,0,1,experiment,NA,NA,2,0.5,0.5,5,4,251,6,NA
fcp-trial,301,1146019,0.0-262.0-0.0,voc_e2,11766,"[{""event"":""fullscreenenter"",""trial"":1,""time"":1922}]",NA,NA,NA,NA,NA,2,#D8271C,#741CD8,10,0,1,38,1,678.7999999970198,37,1,420.40000000596046,10,1,experiment,NA,NA,2,0.5,0.5,4,5,252,6,NA
fcp-trial,302,1148530,0.0-263.0-0.0,voc_e2,11766,"[{""event"":""fullscreenenter"",""trial"":1,""time"":1922}]",NA,NA,NA,NA,NA,5,#3386FF,#D89F1C,0,10,0,38,1,495.3999999910593,39,0,504.3999999910593,10,1,experiment,NA,NA,0,0.1,0.9,1,0,253,6,NA
fcp-trial,303,1151434,0.0-264.0-0.0,voc_e2,11766,"[{""event"":""fullscreenenter"",""trial"":1,""time"":1922}]",NA,NA,NA,NA,NA,6,#1CD855,#FA92F8,10,10,0,38,1,938.1000000089407,39,0,456.59999999403954,10,1,experiment,NA,NA,1,0.3,0.7,3,2,254,6,NA
fcp-trial,304,1154037,0.0-265.0-0.0,voc_e2,11766,"[{""event"":""fullscreenenter"",""trial"":1,""time"":1922}]",NA,NA,NA,NA,NA,4,#1CD855,#FA92F8,0,10,0,38,1,741.8999999910593,39,0,352.5,10,1,experiment,NA,NA,1,0.3,0.7,3,2,255,6,NA
fcp-trial,305,1156542,0.0-266.0-0.0,voc_e2,11766,"[{""event"":""fullscreenenter"",""trial"":1,""time"":1922}]",NA,NA,NA,NA,NA,4,#D89F1C,#3386FF,10,0,1,38,1,641.2000000029802,37,1,344.40000000596046,10,1,experiment,NA,NA,0,0.9,0.1,0,1,256,6,NA
fcp-trial,306,1158977,0.0-267.0-0.0,voc_e2,11766,"[{""event"":""fullscreenenter"",""trial"":1,""time"":1922}]",NA,NA,NA,NA,NA,4,#D8271C,#741CD8,0,10,1,38,1,475.20000000298023,37,1,448.79999999701977,0,1,experiment,NA,NA,2,0.5,0.5,4,5,257,6,NA
fcp-trial,307,1161431,0.0-268.0-0.0,voc_e2,11766,"[{""event"":""fullscreenenter"",""trial"":1,""time"":1922}]",NA,NA,NA,NA,NA,2,#1CD855,#FA92F8,0,10,0,38,1,467,39,0,475.20000000298023,10,1,experiment,NA,NA,1,0.3,0.7,3,2,258,6,NA
fcp-trial,308,1164030,0.0-269.0-0.0,voc_e2,11766,"[{""event"":""fullscreenenter"",""trial"":1,""time"":1922}]",NA,NA,NA,NA,NA,5,#741CD8,#D8271C,10,10,0,38,1,529.4000000059605,39,0,557.5,10,1,experiment,NA,NA,2,0.5,0.5,5,4,259,6,NA
fcp-trial,309,1166393,0.0-270.0-0.0,voc_e2,11766,"[{""event"":""fullscreenenter"",""trial"":1,""time"":1922}]",NA,NA,NA,NA,NA,1,#D89F1C,#3386FF,10,10,1,38,1,402.5,37,1,451.79999999701977,10,1,experiment,NA,NA,0,0.9,0.1,0,1,260,6,NA
fcp-trial,310,1168816,0.0-271.0-0.0,voc_e2,11766,"[{""event"":""fullscreenenter"",""trial"":1,""time"":1922}]",NA,NA,NA,NA,NA,5,#FA92F8,#1CD855,10,10,1,38,1,509,37,1,405.70000000298023,10,1,experiment,NA,NA,1,0.7,0.3,2,3,261,6,NA
fcp-trial,311,1171080,0.0-272.0-0.0,voc_e2,11766,"[{""event"":""fullscreenenter"",""trial"":1,""time"":1922}]",NA,NA,NA,NA,NA,0,#D89F1C,#3386FF,10,0,1,38,1,317.5,37,1,439.40000000596046,10,1,experiment,NA,NA,0,0.9,0.1,0,1,262,6,NA
fcp-trial,312,1173718,0.0-273.0-0.0,voc_e2,11766,"[{""event"":""fullscreenenter"",""trial"":1,""time"":1922}]",NA,NA,NA,NA,NA,3,#1CD855,#FA92F8,0,10,0,38,1,644.2000000029802,39,0,485.199999988079,10,1,experiment,NA,NA,1,0.3,0.7,3,2,263,6,NA
fcp-trial,313,1176068,0.0-274.0-0.0,voc_e2,11766,"[{""event"":""fullscreenenter"",""trial"":1,""time"":1922}]",NA,NA,NA,NA,NA,6,#741CD8,#D8271C,0,0,0,38,1,367.19999998807907,39,0,474.5,0,1,experiment,NA,NA,2,0.5,0.5,5,4,264,6,NA
fcp-trial,314,1178368,0.0-275.0-0.0,voc_e2,11766,"[{""event"":""fullscreenenter"",""trial"":1,""time"":1922}]",NA,NA,NA,NA,NA,1,#741CD8,#D8271C,0,10,0,38,1,362.29999999701977,39,0,427.79999999701977,10,1,experiment,NA,NA,2,0.5,0.5,5,4,265,6,NA
fcp-trial,315,1180886,0.0-276.0-0.0,voc_e2,11766,"[{""event"":""fullscreenenter"",""trial"":1,""time"":1922}]",NA,NA,NA,NA,NA,0,#FA92F8,#1CD855,10,10,1,38,1,504.40000000596046,37,1,507.5,10,1,experiment,NA,NA,1,0.7,0.3,2,3,266,6,NA
fcp-trial,316,1183520,0.0-277.0-0.0,voc_e2,11766,"[{""event"":""fullscreenenter"",""trial"":1,""time"":1922}]",NA,NA,NA,NA,NA,2,#D89F1C,#3386FF,10,10,1,38,1,694.2000000029802,37,1,431.90000000596046,10,1,experiment,NA,NA,0,0.9,0.1,0,1,267,6,NA
fcp-trial,317,1186071,0.0-278.0-0.0,voc_e2,11766,"[{""event"":""fullscreenenter"",""trial"":1,""time"":1922}]",NA,NA,NA,NA,NA,3,#741CD8,#D8271C,0,0,0,38,1,590.5999999940395,39,0,453.09999999403954,0,1,experiment,NA,NA,2,0.5,0.5,5,4,268,6,NA
fcp-trial,318,1188423,0.0-279.0-0.0,voc_e2,11766,"[{""event"":""fullscreenenter"",""trial"":1,""time"":1922}]",NA,NA,NA,NA,NA,1,#1CD855,#FA92F8,0,0,0,38,1,430.79999999701977,37,1,414.29999999701977,0,0,experiment,NA,NA,1,0.3,0.7,3,2,269,6,NA
fcp-trial,319,1190869,0.0-280.0-0.0,voc_e2,11766,"[{""event"":""fullscreenenter"",""trial"":1,""time"":1922}]",NA,NA,NA,NA,NA,6,#D89F1C,#3386FF,10,0,1,38,1,455.1000000089407,37,1,483.699999988079,10,1,experiment,NA,NA,0,0.9,0.1,0,1,270,6,NA
fcp-trial,320,1193195,0.0-281.0-0.0,voc_e2,11766,"[{""event"":""fullscreenenter"",""trial"":1,""time"":1922}]",NA,NA,NA,NA,NA,3,#D89F1C,#3386FF,10,0,1,38,1,411.29999999701977,37,1,406.8999999910593,10,1,experiment,NA,NA,0,0.9,0.1,0,1,271,7,NA
fcp-trial,321,1195646,0.0-282.0-0.0,voc_e2,11766,"[{""event"":""fullscreenenter"",""trial"":1,""time"":1922}]",NA,NA,NA,NA,NA,0,#D8271C,#741CD8,10,0,1,38,1,513.7000000029802,37,1,427.20000000298023,10,1,experiment,NA,NA,2,0.5,0.5,4,5,272,7,NA
fcp-trial,322,1198243,0.0-283.0-0.0,voc_e2,11766,"[{""event"":""fullscreenenter"",""trial"":1,""time"":1922}]",NA,NA,NA,NA,NA,2,#D8271C,#741CD8,10,0,1,38,1,691.0999999940395,37,1,394,10,1,experiment,NA,NA,2,0.5,0.5,4,5,273,7,NA
fcp-trial,323,1201426,0.0-284.0-0.0,voc_e2,11766,"[{""event"":""fullscreenenter"",""trial"":1,""time"":1922}]",NA,NA,NA,NA,NA,4,#741CD8,#D8271C,10,0,0,38,1,1125.2000000029802,39,0,552.5,0,1,experiment,NA,NA,2,0.5,0.5,5,4,274,7,NA
fcp-trial,324,1203877,0.0-285.0-0.0,voc_e2,11766,"[{""event"":""fullscreenenter"",""trial"":1,""time"":1922}]",NA,NA,NA,NA,NA,5,#FA92F8,#1CD855,10,10,1,38,1,452.20000000298023,37,1,489.8999999910593,10,1,experiment,NA,NA,1,0.7,0.3,2,3,275,7,NA
fcp-trial,325,1206398,0.0-286.0-0.0,voc_e2,11766,"[{""event"":""fullscreenenter"",""trial"":1,""time"":1922}]",NA,NA,NA,NA,NA,6,#FA92F8,#1CD855,0,0,1,38,1,513,37,1,502.20000000298023,0,1,experiment,NA,NA,1,0.7,0.3,2,3,276,7,NA
fcp-trial,326,1208682,0.0-287.0-0.0,voc_e2,11766,"[{""event"":""fullscreenenter"",""trial"":1,""time"":1922}]",NA,NA,NA,NA,NA,0,#FA92F8,#1CD855,0,0,1,38,1,339.6000000089407,37,1,439.09999999403954,0,1,experiment,NA,NA,1,0.7,0.3,2,3,277,7,NA
fcp-trial,327,1211392,0.0-288.0-0.0,voc_e2,11766,"[{""event"":""fullscreenenter"",""trial"":1,""time"":1922}]",NA,NA,NA,NA,NA,4,#3386FF,#D89F1C,0,10,0,38,1,439.1000000089407,39,0,766.2000000029802,10,1,experiment,NA,NA,0,0.1,0.9,1,0,278,7,NA
fcp-trial,328,1214199,0.0-289.0-0.0,voc_e2,11766,"[{""event"":""fullscreenenter"",""trial"":1,""time"":1922}]",NA,NA,NA,NA,NA,6,#D8271C,#741CD8,0,0,1,38,1,484.3999999910593,37,1,814,0,1,experiment,NA,NA,2,0.5,0.5,4,5,279,7,NA
fcp-trial,329,1216752,0.0-290.0-0.0,voc_e2,11766,"[{""event"":""fullscreenenter"",""trial"":1,""time"":1922}]",NA,NA,NA,NA,NA,1,#741CD8,#D8271C,10,0,0,38,1,608.9000000059605,39,0,436.29999999701977,0,1,experiment,NA,NA,2,0.5,0.5,5,4,280,7,NA
fcp-trial,330,1220168,0.0-291.0-0.0,voc_e2,11766,"[{""event"":""fullscreenenter"",""trial"":1,""time"":1922}]",NA,NA,NA,NA,NA,1,#1CD855,#FA92F8,0,0,0,38,1,581.7999999970198,39,0,1326.6000000089407,0,1,experiment,NA,NA,1,0.3,0.7,3,2,281,7,NA
fcp-trial,331,1222703,0.0-292.0-0.0,voc_e2,11766,"[{""event"":""fullscreenenter"",""trial"":1,""time"":1922}]",NA,NA,NA,NA,NA,6,#3386FF,#D89F1C,0,10,0,38,1,610.5999999940395,39,0,417.8999999910593,10,1,experiment,NA,NA,0,0.1,0.9,1,0,282,7,NA
fcp-trial,332,1225360,0.0-293.0-0.0,voc_e2,11766,"[{""event"":""fullscreenenter"",""trial"":1,""time"":1922}]",NA,NA,NA,NA,NA,2,#D89F1C,#3386FF,10,0,1,38,1,478.90000000596046,37,1,669.7999999970198,10,1,experiment,NA,NA,0,0.9,0.1,0,1,283,7,NA
fcp-trial,333,1227889,0.0-294.0-0.0,voc_e2,11766,"[{""event"":""fullscreenenter"",""trial"":1,""time"":1922}]",NA,NA,NA,NA,NA,3,#3386FF,#D89F1C,0,10,0,38,1,449.59999999403954,39,0,568,10,1,experiment,NA,NA,0,0.1,0.9,1,0,284,7,NA
fcp-trial,334,1230260,0.0-295.0-0.0,voc_e2,11766,"[{""event"":""fullscreenenter"",""trial"":1,""time"":1922}]",NA,NA,NA,NA,NA,5,#D8271C,#741CD8,0,0,1,38,1,453.90000000596046,37,1,410.20000000298023,0,1,experiment,NA,NA,2,0.5,0.5,4,5,285,7,NA
fcp-trial,335,1233032,0.0-296.0-0.0,voc_e2,11766,"[{""event"":""fullscreenenter"",""trial"":1,""time"":1922}]",NA,NA,NA,NA,NA,2,#1CD855,#FA92F8,0,10,0,38,1,524.7000000029802,39,0,740.5,10,1,experiment,NA,NA,1,0.3,0.7,3,2,286,7,NA
fcp-trial,336,1235479,0.0-297.0-0.0,voc_e2,11766,"[{""event"":""fullscreenenter"",""trial"":1,""time"":1922}]",NA,NA,NA,NA,NA,4,#FA92F8,#1CD855,0,0,1,38,1,417.70000000298023,37,1,519.5,0,1,experiment,NA,NA,1,0.7,0.3,2,3,287,7,NA
fcp-trial,337,1238227,0.0-298.0-0.0,voc_e2,11766,"[{""event"":""fullscreenenter"",""trial"":1,""time"":1922}]",NA,NA,NA,NA,NA,5,#D89F1C,#3386FF,10,0,1,38,1,678.7999999970198,37,1,563.3999999910593,10,1,experiment,NA,NA,0,0.9,0.1,0,1,288,7,NA
fcp-trial,338,1240719,0.0-299.0-0.0,voc_e2,11766,"[{""event"":""fullscreenenter"",""trial"":1,""time"":1922}]",NA,NA,NA,NA,NA,0,#D8271C,#741CD8,10,0,1,38,1,595.7000000029802,37,1,389.90000000596046,10,1,experiment,NA,NA,2,0.5,0.5,4,5,289,7,NA
fcp-trial,339,1243430,0.0-300.0-0.0,voc_e2,11766,"[{""event"":""fullscreenenter"",""trial"":1,""time"":1922}]",NA,NA,NA,NA,NA,3,#FA92F8,#1CD855,10,0,1,38,1,674.9000000059605,37,1,523.7000000029802,10,1,experiment,NA,NA,1,0.7,0.3,2,3,290,7,NA
fcp-trial,340,1245875,0.0-301.0-0.0,voc_e2,11766,"[{""event"":""fullscreenenter"",""trial"":1,""time"":1922}]",NA,NA,NA,NA,NA,1,#3386FF,#D89F1C,0,10,0,38,1,508.40000000596046,39,0,427,10,1,experiment,NA,NA,0,0.1,0.9,1,0,291,7,NA
fcp-trial,341,1248256,0.0-302.0-0.0,voc_e2,11766,"[{""event"":""fullscreenenter"",""trial"":1,""time"":1922}]",NA,NA,NA,NA,NA,3,#D8271C,#741CD8,10,0,1,38,1,450.09999999403954,37,1,423.20000000298023,10,1,experiment,NA,NA,2,0.5,0.5,4,5,292,7,NA
fcp-trial,342,1250824,0.0-303.0-0.0,voc_e2,11766,"[{""event"":""fullscreenenter"",""trial"":1,""time"":1922}]",NA,NA,NA,NA,NA,2,#741CD8,#D8271C,0,0,0,38,1,564.7000000029802,39,0,491.79999999701977,0,1,experiment,NA,NA,2,0.5,0.5,5,4,293,7,NA
fcp-trial,343,1253332,0.0-304.0-0.0,voc_e2,11766,"[{""event"":""fullscreenenter"",""trial"":1,""time"":1922}]",NA,NA,NA,NA,NA,0,#3386FF,#D89F1C,0,10,0,38,1,431.40000000596046,39,0,568.5999999940395,10,1,experiment,NA,NA,0,0.1,0.9,1,0,294,7,NA
fcp-trial,344,1255744,0.0-305.0-0.0,voc_e2,11766,"[{""event"":""fullscreenenter"",""trial"":1,""time"":1922}]",NA,NA,NA,NA,NA,1,#741CD8,#D8271C,0,0,0,38,1,511.29999999701977,39,0,395.09999999403954,0,1,experiment,NA,NA,2,0.5,0.5,5,4,295,7,NA
fcp-trial,345,1258257,0.0-306.0-0.0,voc_e2,11766,"[{""event"":""fullscreenenter"",""trial"":1,""time"":1922}]",NA,NA,NA,NA,NA,5,#741CD8,#D8271C,10,10,0,38,1,603,39,0,398.8999999910593,10,1,experiment,NA,NA,2,0.5,0.5,5,4,296,7,NA
fcp-trial,346,1260957,0.0-307.0-0.0,voc_e2,11766,"[{""event"":""fullscreenenter"",""trial"":1,""time"":1922}]",NA,NA,NA,NA,NA,0,#FA92F8,#1CD855,10,0,1,38,1,706.2000000029802,37,1,488,10,1,experiment,NA,NA,1,0.7,0.3,2,3,297,7,NA
fcp-trial,347,1263512,0.0-308.0-0.0,voc_e2,11766,"[{""event"":""fullscreenenter"",""trial"":1,""time"":1922}]",NA,NA,NA,NA,NA,1,#D89F1C,#3386FF,10,0,1,38,1,557.7000000029802,37,1,491.40000000596046,10,1,experiment,NA,NA,0,0.9,0.1,0,1,298,7,NA
fcp-trial,348,1265947,0.0-309.0-0.0,voc_e2,11766,"[{""event"":""fullscreenenter"",""trial"":1,""time"":1922}]",NA,NA,NA,NA,NA,2,#1CD855,#FA92F8,10,0,0,38,1,470.1000000089407,39,0,455.6000000089407,0,1,experiment,NA,NA,1,0.3,0.7,3,2,299,7,NA
fcp-trial,349,1268461,0.0-310.0-0.0,voc_e2,11766,"[{""event"":""fullscreenenter"",""trial"":1,""time"":1922}]",NA,NA,NA,NA,NA,5,#D89F1C,#3386FF,10,10,1,38,1,516.0999999940395,37,1,489,10,1,experiment,NA,NA,0,0.9,0.1,0,1,300,7,NA
fcp-trial,350,1270929,0.0-311.0-0.0,voc_e2,11766,"[{""event"":""fullscreenenter"",""trial"":1,""time"":1922}]",NA,NA,NA,NA,NA,3,#741CD8,#D8271C,0,0,0,38,1,465.90000000596046,39,0,494,0,1,experiment,NA,NA,2,0.5,0.5,5,4,301,7,NA
fcp-trial,351,1273327,0.0-312.0-0.0,voc_e2,11766,"[{""event"":""fullscreenenter"",""trial"":1,""time"":1922}]",NA,NA,NA,NA,NA,4,#D89F1C,#3386FF,10,0,1,38,1,489.90000000596046,37,1,403.20000000298023,10,1,experiment,NA,NA,0,0.9,0.1,0,1,302,7,NA
fcp-trial,352,1275927,0.0-313.0-0.0,voc_e2,11766,"[{""event"":""fullscreenenter"",""trial"":1,""time"":1922}]",NA,NA,NA,NA,NA,4,#1CD855,#FA92F8,0,10,0,38,1,594.5,39,0,492.20000000298023,10,1,experiment,NA,NA,1,0.3,0.7,3,2,303,7,NA
fcp-trial,353,1278481,0.0-314.0-0.0,voc_e2,11766,"[{""event"":""fullscreenenter"",""trial"":1,""time"":1922}]",NA,NA,NA,NA,NA,6,#741CD8,#D8271C,0,0,0,38,1,601.5,39,0,447.29999999701977,0,1,experiment,NA,NA,2,0.5,0.5,5,4,304,7,NA
fcp-trial,354,1280978,0.0-315.0-0.0,voc_e2,11766,"[{""event"":""fullscreenenter"",""trial"":1,""time"":1922}]",NA,NA,NA,NA,NA,6,#1CD855,#FA92F8,0,10,0,38,1,511.80000001192093,39,0,478.90000000596046,10,1,experiment,NA,NA,1,0.3,0.7,3,2,305,7,NA
fcp-trial,355,1283272,0.0-316.0-0.0,voc_e2,11766,"[{""event"":""fullscreenenter"",""trial"":1,""time"":1922}]",NA,NA,NA,NA,NA,3,#FA92F8,#1CD855,10,10,1,38,1,390.09999999403954,37,1,394.5,10,1,experiment,NA,NA,1,0.7,0.3,2,3,306,7,NA
fcp-trial,356,1285753,0.0-317.0-0.0,voc_e2,11766,"[{""event"":""fullscreenenter"",""trial"":1,""time"":1922}]",NA,NA,NA,NA,NA,0,#D89F1C,#3386FF,10,0,1,38,1,542.1000000089407,37,1,429.800000011921,10,1,experiment,NA,NA,0,0.9,0.1,0,1,307,7,NA
fcp-trial,357,1288323,0.0-318.0-0.0,voc_e2,11766,"[{""event"":""fullscreenenter"",""trial"":1,""time"":1922}]",NA,NA,NA,NA,NA,4,#D8271C,#741CD8,10,10,1,38,1,478.90000000596046,39,0,582.5,10,0,experiment,NA,NA,2,0.5,0.5,4,5,308,7,NA
fcp-trial,358,1290843,0.0-319.0-0.0,voc_e2,11766,"[{""event"":""fullscreenenter"",""trial"":1,""time"":1922}]",NA,NA,NA,NA,NA,3,#3386FF,#D89F1C,0,10,0,38,1,508.69999998807907,39,0,484.90000000596046,10,1,experiment,NA,NA,0,0.1,0.9,1,0,309,7,NA
fcp-trial,359,1293390,0.0-320.0-0.0,voc_e2,11766,"[{""event"":""fullscreenenter"",""trial"":1,""time"":1922}]",NA,NA,NA,NA,NA,6,#D89F1C,#3386FF,10,0,1,38,1,535,37,1,503.09999999403954,10,1,experiment,NA,NA,0,0.9,0.1,0,1,310,7,NA
fcp-trial,360,1296074,0.0-321.0-0.0,voc_e2,11766,"[{""event"":""fullscreenenter"",""trial"":1,""time"":1922}]",NA,NA,NA,NA,NA,1,#1CD855,#FA92F8,0,10,0,38,1,590.2999999970198,39,0,588.6999999880791,10,1,experiment,NA,NA,1,0.3,0.7,3,2,311,7,NA
fcp-trial,361,1298713,0.0-322.0-0.0,voc_e2,11766,"[{""event"":""fullscreenenter"",""trial"":1,""time"":1922}]",NA,NA,NA,NA,NA,2,#D89F1C,#3386FF,10,0,1,38,1,550.2999999970198,37,1,578.8999999910593,10,1,experiment,NA,NA,0,0.9,0.1,0,1,312,7,NA
fcp-trial,362,1301365,0.0-323.0-0.0,voc_e2,11766,"[{""event"":""fullscreenenter"",""trial"":1,""time"":1922}]",NA,NA,NA,NA,NA,2,#741CD8,#D8271C,0,0,0,38,1,708.2000000029802,37,1,433.8999999910593,0,0,experiment,NA,NA,2,0.5,0.5,5,4,313,7,NA
fcp-trial,363,1304244,0.0-324.0-0.0,voc_e2,11766,"[{""event"":""fullscreenenter"",""trial"":1,""time"":1922}]",NA,NA,NA,NA,NA,5,#FA92F8,#1CD855,10,10,1,38,1,674.1000000089407,37,1,697.2999999970198,10,1,experiment,NA,NA,1,0.7,0.3,2,3,314,7,NA
fcp-trial,364,1306877,0.0-325.0-0.0,voc_e2,11766,"[{""event"":""fullscreenenter"",""trial"":1,""time"":1922}]",NA,NA,NA,NA,NA,0,#D8271C,#741CD8,0,10,1,38,1,452.40000000596046,39,0,670,10,0,experiment,NA,NA,2,0.5,0.5,4,5,315,7,NA
audio-instructions,365,1313175,0.0-326.0,voc_e2,11766,"[{""event"":""fullscreenenter"",""trial"":1,""time"":1922}]",NA,643.5999999940395,static/audio/finished.wav,NA,0,NA,NA,NA,NA,NA,NA,NA,NA,NA,NA,NA,NA,NA,NA,NA,NA,NA,NA,NA,NA,NA,NA,NA,NA,NA
audio-instructions,366,1324627,0.0-327.0-0.0,voc_e2,11766,"[{""event"":""fullscreenenter"",""trial"":1,""time"":1922}]",NA,613.2000000029802,static/audio/explicit1.wav,NA,0,NA,NA,NA,NA,NA,NA,NA,NA,NA,NA,NA,NA,NA,NA,NA,NA,NA,NA,NA,NA,NA,NA,NA,NA,NA
audio-instructions,367,1332765,0.0-327.0-1.0,voc_e2,11766,"[{""event"":""fullscreenenter"",""trial"":1,""time"":1922}]",NA,542.4000000059605,static/audio/explicit2.wav,NA,0,NA,NA,NA,NA,NA,NA,NA,NA,NA,NA,NA,NA,NA,NA,NA,NA,NA,NA,NA,NA,NA,NA,NA,NA,NA
image-slider-response,368,1342025,0.0-328.0,voc_e2,11766,"[{""event"":""fullscreenenter"",""trial"":1,""time"":1922}]",NA,9258.29999999702,static/img/machines/machine2.png,NA,NA,NA,NA,NA,NA,NA,NA,NA,NA,NA,NA,NA,NA,NA,NA,explicit,NA,NA,NA,NA,NA,NA,NA,NA,NA,6
image-slider-response,369,1347459,0.0-329.0,voc_e2,11766,"[{""event"":""fullscreenenter"",""trial"":1,""time"":1922}]",NA,5432.4000000059605,static/img/machines/machine5.png,NA,NA,NA,NA,NA,NA,NA,NA,NA,NA,NA,NA,NA,NA,NA,NA,explicit,NA,NA,NA,NA,NA,NA,NA,NA,NA,6
image-slider-response,370,1352651,0.0-330.0,voc_e2,11766,"[{""event"":""fullscreenenter"",""trial"":1,""time"":1922}]",NA,5190.29999999702,static/img/machines/machine6.png,NA,NA,NA,NA,NA,NA,NA,NA,NA,NA,NA,NA,NA,NA,NA,NA,explicit,NA,NA,NA,NA,NA,NA,NA,NA,NA,3
image-slider-response,371,1355377,0.0-331.0,voc_e2,11766,"[{""event"":""fullscreenenter"",""trial"":1,""time"":1922}]",NA,2724.5999999940395,static/img/machines/machine3.png,NA,NA,NA,NA,NA,NA,NA,NA,NA,NA,NA,NA,NA,NA,NA,NA,explicit,NA,NA,NA,NA,NA,NA,NA,NA,NA,4
image-slider-response,372,1359682,0.0-332.0,voc_e2,11766,"[{""event"":""fullscreenenter"",""trial"":1,""time"":1922}]",NA,4302.5999999940395,static/img/machines/machine1.png,NA,NA,NA,NA,NA,NA,NA,NA,NA,NA,NA,NA,NA,NA,NA,NA,explicit,NA,NA,NA,NA,NA,NA,NA,NA,NA,5
image-slider-response,373,1364803,0.0-333.0,voc_e2,11766,"[{""event"":""fullscreenenter"",""trial"":1,""time"":1922}]",NA,5119.600000008941,static/img/machines/machine4.png,NA,NA,NA,NA,NA,NA,NA,NA,NA,NA,NA,NA,NA,NA,NA,NA,explicit,NA,NA,NA,NA,NA,NA,NA,NA,NA,9
