trial_type,trial_index,time_elapsed,internal_node_id,task_version,subject_id,interactions,success,rt,stimulus,key_press,button_pressed,offer,arcade_color_L,arcade_color_R,arcade_outcome_L,arcade_outcome_R,correct,stage_1_key,stage_1_choice,stage_1_rt,stage_2_key,stage_2_choice,stage_2_rt,stage_3_outcome,accuracy,phase,responses,num_errors,context,reward_prob_L,reward_prob_R,arcade_id_L,arcade_id_R,trial,block,response
pavlovia,0,5,0.0-0.0,voc_e2,12104,[],NA,NA,NA,NA,NA,NA,NA,NA,NA,NA,NA,NA,NA,NA,NA,NA,NA,NA,NA,NA,NA,NA,NA,NA,NA,NA,NA,NA,NA,NA
fullscreen,1,12735,0.0-1.0,voc_e2,12104,"[{""event"":""fullscreenenter"",""trial"":1,""time"":11749}]",TRUE,NA,NA,NA,NA,NA,NA,NA,NA,NA,NA,NA,NA,NA,NA,NA,NA,NA,NA,NA,NA,NA,NA,NA,NA,NA,NA,NA,NA,NA
audio-keyboard-response,2,16454,0.0-2.0,voc_e2,12104,"[{""event"":""fullscreenenter"",""trial"":1,""time"":11749}]",NA,3558,static/audio/beep_loop.wav,32,NA,NA,NA,NA,NA,NA,NA,NA,NA,NA,NA,NA,NA,NA,NA,NA,NA,NA,NA,NA,NA,NA,NA,NA,NA,NA
audio-test,3,22018,0.0-3.0,voc_e2,12104,"[{""event"":""fullscreenenter"",""trial"":1,""time"":11749}]",NA,NA,static/audio/turtle.wav,NA,3,NA,NA,NA,NA,NA,NA,NA,NA,NA,NA,NA,NA,NA,NA,NA,NA,NA,NA,NA,NA,NA,NA,NA,NA,NA
audio-test,4,26129,0.0-4.0,voc_e2,12104,"[{""event"":""fullscreenenter"",""trial"":1,""time"":11749}]",NA,NA,static/audio/shark.wav,NA,2,NA,NA,NA,NA,NA,NA,NA,NA,NA,NA,NA,NA,NA,NA,NA,NA,NA,NA,NA,NA,NA,NA,NA,NA,NA
audio-instructions,5,35631,0.0-5.0-0.0,voc_e2,12104,"[{""event"":""fullscreenenter"",""trial"":1,""time"":11749}]",NA,3712.2000000178814,static/audio/instructions1.wav,NA,0,NA,NA,NA,NA,NA,NA,NA,NA,NA,NA,NA,NA,NA,NA,NA,NA,NA,NA,NA,NA,NA,NA,NA,NA,NA
audio-instructions,6,46182,0.0-5.0-1.0,voc_e2,12104,"[{""event"":""fullscreenenter"",""trial"":1,""time"":11749}]",NA,3807.400000005961,static/audio/instructions2.wav,NA,0,NA,NA,NA,NA,NA,NA,NA,NA,NA,NA,NA,NA,NA,NA,NA,NA,NA,NA,NA,NA,NA,NA,NA,NA,NA
audio-instructions,7,55398,0.0-5.0-2.0,voc_e2,12104,"[{""event"":""fullscreenenter"",""trial"":1,""time"":11749}]",NA,3410.300000011921,static/audio/instructions3.wav,NA,0,NA,NA,NA,NA,NA,NA,NA,NA,NA,NA,NA,NA,NA,NA,NA,NA,NA,NA,NA,NA,NA,NA,NA,NA,NA
audio-instructions,8,72671,0.0-5.0-3.0,voc_e2,12104,"[{""event"":""fullscreenenter"",""trial"":1,""time"":11749}]",NA,4046.099999994039,static/audio/instructions4.wav,NA,0,NA,NA,NA,NA,NA,NA,NA,NA,NA,NA,NA,NA,NA,NA,NA,NA,NA,NA,NA,NA,NA,NA,NA,NA,NA
audio-instructions,9,83602,0.0-5.0-4.0,voc_e2,12104,"[{""event"":""fullscreenenter"",""trial"":1,""time"":11749}]",NA,1543.0999999940395,static/audio/instructions5.wav,NA,0,NA,NA,NA,NA,NA,NA,NA,NA,NA,NA,NA,NA,NA,NA,NA,NA,NA,NA,NA,NA,NA,NA,NA,NA,NA
fcp-practice,10,87766,0.0-5.0-5.0-0.0,voc_e2,12104,"[{""event"":""fullscreenenter"",""trial"":1,""time"":11749}]",NA,NA,NA,NA,NA,NA,#EDC948,#46d3c8,10,0,1,null,null,null,37,1,2642.4000000059605,10,1,practice,NA,NA,NA,NA,NA,NA,NA,NA,NA,NA
fcp-practice,11,89999,0.0-5.0-5.0-1.0,voc_e2,12104,"[{""event"":""fullscreenenter"",""trial"":1,""time"":11749}]",NA,NA,NA,NA,NA,NA,#EDC948,#46d3c8,10,0,1,null,null,null,37,1,724.4000000059605,10,1,practice,NA,NA,NA,NA,NA,NA,NA,NA,NA,NA
fcp-practice,12,91623,0.0-5.0-5.0-2.0,voc_e2,12104,"[{""event"":""fullscreenenter"",""trial"":1,""time"":11749}]",NA,NA,NA,NA,NA,NA,#EDC948,#46d3c8,0,10,1,null,null,null,37,1,119.7999999821186,0,1,practice,NA,NA,NA,NA,NA,NA,NA,NA,NA,NA
fcp-practice,13,93730,0.0-5.0-5.0-3.0,voc_e2,12104,"[{""event"":""fullscreenenter"",""trial"":1,""time"":11749}]",NA,NA,NA,NA,NA,NA,#EDC948,#46d3c8,10,0,1,null,null,null,37,1,602.9000000059605,10,1,practice,NA,NA,NA,NA,NA,NA,NA,NA,NA,NA
fcp-practice,14,96591,0.0-5.0-5.0-4.0,voc_e2,12104,"[{""event"":""fullscreenenter"",""trial"":1,""time"":11749}]",NA,NA,NA,NA,NA,NA,#EDC948,#46d3c8,10,0,1,null,null,null,37,1,1356.2999999821186,10,1,practice,NA,NA,NA,NA,NA,NA,NA,NA,NA,NA
audio-instructions,15,116600,0.0-5.0-6.0,voc_e2,12104,"[{""event"":""fullscreenenter"",""trial"":1,""time"":11749}]",NA,2003.7999999821184,static/audio/instructions6.wav,NA,0,NA,NA,NA,NA,NA,NA,NA,NA,NA,NA,NA,NA,NA,NA,NA,NA,NA,NA,NA,NA,NA,NA,NA,NA,NA
audio-instructions,16,137402,0.0-5.0-7.0,voc_e2,12104,"[{""event"":""fullscreenenter"",""trial"":1,""time"":11749}]",NA,1599.5,static/audio/instructions7.wav,NA,0,NA,NA,NA,NA,NA,NA,NA,NA,NA,NA,NA,NA,NA,NA,NA,NA,NA,NA,NA,NA,NA,NA,NA,NA,NA
audio-instructions,17,148704,0.0-5.0-8.0,voc_e2,12104,"[{""event"":""fullscreenenter"",""trial"":1,""time"":11749}]",NA,1825.199999988079,static/audio/instructions8.wav,NA,0,NA,NA,NA,NA,NA,NA,NA,NA,NA,NA,NA,NA,NA,NA,NA,NA,NA,NA,NA,NA,NA,NA,NA,NA,NA
fcp-comprehension,18,168559,0.0-5.0-9.0,voc_e2,12104,"[{""event"":""fullscreenenter"",""trial"":1,""time"":11749}]",NA,19852.5,NA,NA,NA,NA,NA,NA,NA,NA,NA,NA,NA,NA,NA,NA,NA,NA,NA,NA,"true,true",0,NA,NA,NA,NA,NA,NA,NA,NA
audio-instructions,19,177188,0.0-6.0-0.0,voc_e2,12104,"[{""event"":""fullscreenenter"",""trial"":1,""time"":11749}]",NA,3077.199999988079,static/audio/instructions9.wav,NA,0,NA,NA,NA,NA,NA,NA,NA,NA,NA,NA,NA,NA,NA,NA,NA,NA,NA,NA,NA,NA,NA,NA,NA,NA,NA
audio-instructions,20,191958,0.0-6.0-1.0,voc_e2,12104,"[{""event"":""fullscreenenter"",""trial"":1,""time"":11749}]",NA,2649.800000011921,static/audio/instructions10.wav,NA,0,NA,NA,NA,NA,NA,NA,NA,NA,NA,NA,NA,NA,NA,NA,NA,NA,NA,NA,NA,NA,NA,NA,NA,NA,NA
fcp-trial,21,204359,0.0-6.0-2.0,voc_e2,12104,"[{""event"":""fullscreenenter"",""trial"":1,""time"":11749}]",NA,NA,NA,NA,NA,0,#EDC948,#46d3c8,10,10,1,38,1,8542.800000011921,37,1,2342.7999999821186,10,1,practice,NA,NA,NA,NA,NA,NA,NA,NA,NA,NA
audio-instructions,22,217265,0.0-6.0-3.0,voc_e2,12104,"[{""event"":""fullscreenenter"",""trial"":1,""time"":11749}]",NA,1890.9000000059605,static/audio/instructions11.wav,NA,0,NA,NA,NA,NA,NA,NA,NA,NA,NA,NA,NA,NA,NA,NA,NA,NA,NA,NA,NA,NA,NA,NA,NA,NA,NA
fcp-trial,23,223582,0.0-6.0-4.0,voc_e2,12104,"[{""event"":""fullscreenenter"",""trial"":1,""time"":11749}]",NA,NA,NA,NA,NA,6,#EDC948,#46d3c8,10,10,1,40,0,2486.699999988079,37,1,2321.5,10,1,practice,NA,NA,NA,NA,NA,NA,NA,NA,NA,NA
audio-instructions,24,243122,0.0-6.0-5.0,voc_e2,12104,"[{""event"":""fullscreenenter"",""trial"":1,""time"":11749}]",NA,847.7000000178814,static/audio/instructions12.wav,NA,0,NA,NA,NA,NA,NA,NA,NA,NA,NA,NA,NA,NA,NA,NA,NA,NA,NA,NA,NA,NA,NA,NA,NA,NA,NA
audio-instructions,25,252510,0.0-6.0-6.0,voc_e2,12104,"[{""event"":""fullscreenenter"",""trial"":1,""time"":11749}]",NA,1787.9000000059605,static/audio/instructions13.wav,NA,0,NA,NA,NA,NA,NA,NA,NA,NA,NA,NA,NA,NA,NA,NA,NA,NA,NA,NA,NA,NA,NA,NA,NA,NA,NA
audio-instructions,26,262613,0.0-6.0-7.0,voc_e2,12104,"[{""event"":""fullscreenenter"",""trial"":1,""time"":11749}]",NA,1651.4000000059605,static/audio/instructions14.wav,NA,0,NA,NA,NA,NA,NA,NA,NA,NA,NA,NA,NA,NA,NA,NA,NA,NA,NA,NA,NA,NA,NA,NA,NA,NA,NA
audio-instructions,27,270998,0.0-7.0-0.0,voc_e2,12104,"[{""event"":""fullscreenenter"",""trial"":1,""time"":11749}]",NA,1473.699999988079,static/audio/instructions15.wav,NA,0,NA,NA,NA,NA,NA,NA,NA,NA,NA,NA,NA,NA,NA,NA,NA,NA,NA,NA,NA,NA,NA,NA,NA,NA,NA
audio-instructions,28,278819,0.0-7.0-1.0,voc_e2,12104,"[{""event"":""fullscreenenter"",""trial"":1,""time"":11749}]",NA,993.3000000119208,static/audio/instructions16.wav,NA,0,NA,NA,NA,NA,NA,NA,NA,NA,NA,NA,NA,NA,NA,NA,NA,NA,NA,NA,NA,NA,NA,NA,NA,NA,NA
audio-instructions,29,288702,0.0-7.0-2.0,voc_e2,12104,"[{""event"":""fullscreenenter"",""trial"":1,""time"":11749}]",NA,2203.600000023842,static/audio/instructions17.wav,NA,0,NA,NA,NA,NA,NA,NA,NA,NA,NA,NA,NA,NA,NA,NA,NA,NA,NA,NA,NA,NA,NA,NA,NA,NA,NA
audio-instructions,30,298624,0.0-7.0-3.0,voc_e2,12104,"[{""event"":""fullscreenenter"",""trial"":1,""time"":11749}]",NA,2152.2000000178814,static/audio/instructions18.wav,NA,0,NA,NA,NA,NA,NA,NA,NA,NA,NA,NA,NA,NA,NA,NA,NA,NA,NA,NA,NA,NA,NA,NA,NA,NA,NA
audio-instructions,31,307067,0.0-7.0-4.0,voc_e2,12104,"[{""event"":""fullscreenenter"",""trial"":1,""time"":11749}]",NA,1696.100000023842,static/audio/instructions19.wav,NA,0,NA,NA,NA,NA,NA,NA,NA,NA,NA,NA,NA,NA,NA,NA,NA,NA,NA,NA,NA,NA,NA,NA,NA,NA,NA
fcp-comprehension,32,346367,0.0-7.0-5.0,voc_e2,12104,"[{""event"":""fullscreenenter"",""trial"":1,""time"":11749}]",NA,39296.59999999404,NA,NA,NA,NA,NA,NA,NA,NA,NA,NA,NA,NA,NA,NA,NA,NA,NA,NA,"false,false,false,true",0,NA,NA,NA,NA,NA,NA,NA,NA
audio-instructions,33,361506,0.0-8.0,voc_e2,12104,"[{""event"":""fullscreenenter"",""trial"":1,""time"":11749}]",NA,5760.299999982119,static/audio/ready.wav,NA,0,NA,NA,NA,NA,NA,NA,NA,NA,NA,NA,NA,NA,NA,NA,NA,NA,NA,NA,NA,NA,NA,NA,NA,NA,NA
fcp-trial,34,367792,0.0-9.0-0.0,voc_e2,12104,"[{""event"":""fullscreenenter"",""trial"":1,""time"":11749}]",NA,NA,NA,NA,NA,4,#FA92F8,#1CD855,10,10,0,38,1,2431.0999999940395,39,0,2347.4000000059605,10,1,experiment,NA,NA,0,0.1,0.9,1,0,1,1,NA
fcp-trial,35,371592,0.0-10.0-0.0,voc_e2,12104,"[{""event"":""fullscreenenter"",""trial"":1,""time"":11749}]",NA,NA,NA,NA,NA,3,#3386FF,#D89F1C,0,10,0,38,1,1660.0999999940395,39,0,634.7999999821186,10,1,experiment,NA,NA,1,0.3,0.7,3,2,2,1,NA
fcp-trial,36,374614,0.0-11.0-0.0,voc_e2,12104,"[{""event"":""fullscreenenter"",""trial"":1,""time"":11749}]",NA,NA,NA,NA,NA,6,#D8271C,#741CD8,10,10,0,38,1,979.4000000059605,39,0,535.4000000059605,10,1,experiment,NA,NA,2,0.5,0.5,5,4,3,1,NA
fcp-trial,37,377785,0.0-12.0-0.0,voc_e2,12104,"[{""event"":""fullscreenenter"",""trial"":1,""time"":11749}]",NA,NA,NA,NA,NA,2,#1CD855,#FA92F8,10,0,1,38,1,985.0999999940395,37,1,675.8000000119209,10,1,experiment,NA,NA,0,0.9,0.1,0,1,4,1,NA
fcp-trial,38,380980,0.0-13.0-0.0,voc_e2,12104,"[{""event"":""fullscreenenter"",""trial"":1,""time"":11749}]",NA,NA,NA,NA,NA,1,#1CD855,#FA92F8,10,0,1,38,1,1029.2999999821186,37,1,657.9000000059605,10,1,experiment,NA,NA,0,0.9,0.1,0,1,5,1,NA
fcp-trial,39,384268,0.0-14.0-0.0,voc_e2,12104,"[{""event"":""fullscreenenter"",""trial"":1,""time"":11749}]",NA,NA,NA,NA,NA,6,#D89F1C,#3386FF,10,10,1,38,1,933.0999999940395,37,1,849.0999999940395,10,1,experiment,NA,NA,1,0.7,0.3,2,3,6,1,NA
fcp-trial,40,387414,0.0-15.0-0.0,voc_e2,12104,"[{""event"":""fullscreenenter"",""trial"":1,""time"":11749}]",NA,NA,NA,NA,NA,0,#FA92F8,#1CD855,0,10,0,38,1,991.2999999821186,39,0,528,10,1,experiment,NA,NA,0,0.1,0.9,1,0,7,1,NA
fcp-trial,41,390657,0.0-16.0-0.0,voc_e2,12104,"[{""event"":""fullscreenenter"",""trial"":1,""time"":11749}]",NA,NA,NA,NA,NA,2,#741CD8,#D8271C,10,0,1,38,1,976.9000000059605,37,1,755,10,1,experiment,NA,NA,2,0.5,0.5,4,5,8,1,NA
fcp-trial,42,393498,0.0-17.0-0.0,voc_e2,12104,"[{""event"":""fullscreenenter"",""trial"":1,""time"":11749}]",NA,NA,NA,NA,NA,4,#3386FF,#D89F1C,0,10,0,38,1,758.0999999940395,39,0,576.6000000238419,10,1,experiment,NA,NA,1,0.3,0.7,3,2,9,1,NA
fcp-trial,43,396415,0.0-18.0-0.0,voc_e2,12104,"[{""event"":""fullscreenenter"",""trial"":1,""time"":11749}]",NA,NA,NA,NA,NA,1,#D8271C,#741CD8,10,10,0,38,1,715.7999999821186,37,1,695.1000000238419,10,0,experiment,NA,NA,2,0.5,0.5,5,4,10,1,NA
fcp-trial,44,400716,0.0-19.0-0.0,voc_e2,12104,"[{""event"":""fullscreenenter"",""trial"":1,""time"":11749}]",NA,NA,NA,NA,NA,3,#FA92F8,#1CD855,0,10,0,38,1,2243.0999999940395,39,0,550.0999999940395,10,1,experiment,NA,NA,0,0.1,0.9,1,0,11,1,NA
fcp-trial,45,404393,0.0-20.0-0.0,voc_e2,12104,"[{""event"":""fullscreenenter"",""trial"":1,""time"":11749}]",NA,NA,NA,NA,NA,1,#D89F1C,#3386FF,0,0,1,38,1,1245.2000000178814,37,1,924,0,1,experiment,NA,NA,1,0.7,0.3,2,3,12,1,NA
fcp-trial,46,408027,0.0-21.0-0.0,voc_e2,12104,"[{""event"":""fullscreenenter"",""trial"":1,""time"":11749}]",NA,NA,NA,NA,NA,5,#D89F1C,#3386FF,0,10,1,38,1,1565,37,1,563,0,1,experiment,NA,NA,1,0.7,0.3,2,3,13,1,NA
fcp-trial,47,411766,0.0-22.0-0.0,voc_e2,12104,"[{""event"":""fullscreenenter"",""trial"":1,""time"":11749}]",NA,NA,NA,NA,NA,3,#741CD8,#D8271C,10,10,1,38,1,865.2000000178814,37,1,1368.5,10,1,experiment,NA,NA,2,0.5,0.5,4,5,14,1,NA
fcp-trial,48,415377,0.0-23.0-0.0,voc_e2,12104,"[{""event"":""fullscreenenter"",""trial"":1,""time"":11749}]",NA,NA,NA,NA,NA,0,#741CD8,#D8271C,0,10,1,38,1,1552.9000000059605,37,1,550.2999999821186,0,1,experiment,NA,NA,2,0.5,0.5,4,5,15,1,NA
fcp-trial,49,418969,0.0-24.0-0.0,voc_e2,12104,"[{""event"":""fullscreenenter"",""trial"":1,""time"":11749}]",NA,NA,NA,NA,NA,6,#FA92F8,#1CD855,0,10,0,38,1,1464.699999988079,39,0,621.3000000119209,10,1,experiment,NA,NA,0,0.1,0.9,1,0,16,1,NA
fcp-trial,50,422493,0.0-25.0-0.0,voc_e2,12104,"[{""event"":""fullscreenenter"",""trial"":1,""time"":11749}]",NA,NA,NA,NA,NA,0,#3386FF,#D89F1C,10,10,0,38,1,962,37,1,1055.0999999940395,10,0,experiment,NA,NA,1,0.3,0.7,3,2,17,1,NA
fcp-trial,51,425476,0.0-26.0-0.0,voc_e2,12104,"[{""event"":""fullscreenenter"",""trial"":1,""time"":11749}]",NA,NA,NA,NA,NA,2,#3386FF,#D89F1C,10,10,0,38,1,645.5999999940395,39,0,831,10,1,experiment,NA,NA,1,0.3,0.7,3,2,18,1,NA
fcp-trial,52,429024,0.0-27.0-0.0,voc_e2,12104,"[{""event"":""fullscreenenter"",""trial"":1,""time"":11749}]",NA,NA,NA,NA,NA,4,#D8271C,#741CD8,10,10,0,38,1,1260.699999988079,39,0,784.1999999880791,10,1,experiment,NA,NA,2,0.5,0.5,5,4,19,1,NA
fcp-trial,53,431870,0.0-28.0-0.0,voc_e2,12104,"[{""event"":""fullscreenenter"",""trial"":1,""time"":11749}]",NA,NA,NA,NA,NA,5,#1CD855,#FA92F8,10,10,1,38,1,769.2999999821186,37,1,568.0999999940395,10,1,experiment,NA,NA,0,0.9,0.1,0,1,20,1,NA
fcp-trial,54,434609,0.0-29.0-0.0,voc_e2,12104,"[{""event"":""fullscreenenter"",""trial"":1,""time"":11749}]",NA,NA,NA,NA,NA,5,#741CD8,#D8271C,10,0,1,38,1,645.3000000119209,37,1,585.7999999821186,10,1,experiment,NA,NA,2,0.5,0.5,4,5,21,1,NA
fcp-trial,55,437261,0.0-30.0-0.0,voc_e2,12104,"[{""event"":""fullscreenenter"",""trial"":1,""time"":11749}]",NA,NA,NA,NA,NA,5,#1CD855,#FA92F8,10,0,1,38,1,583.1000000238419,37,1,563.1999999880791,10,1,experiment,NA,NA,0,0.9,0.1,0,1,22,1,NA
fcp-trial,56,439839,0.0-31.0-0.0,voc_e2,12104,"[{""event"":""fullscreenenter"",""trial"":1,""time"":11749}]",NA,NA,NA,NA,NA,4,#1CD855,#FA92F8,10,0,1,38,1,502.80000001192093,37,1,566.7000000178814,10,1,experiment,NA,NA,0,0.9,0.1,0,1,23,1,NA
fcp-trial,57,442833,0.0-32.0-0.0,voc_e2,12104,"[{""event"":""fullscreenenter"",""trial"":1,""time"":11749}]",NA,NA,NA,NA,NA,5,#D89F1C,#3386FF,0,0,1,38,1,905.8000000119209,37,1,577.1999999880791,0,1,experiment,NA,NA,1,0.7,0.3,2,3,24,1,NA
fcp-trial,58,446262,0.0-33.0-0.0,voc_e2,12104,"[{""event"":""fullscreenenter"",""trial"":1,""time"":11749}]",NA,NA,NA,NA,NA,1,#D8271C,#741CD8,10,10,0,38,1,1403,37,1,520.5999999940395,10,0,experiment,NA,NA,2,0.5,0.5,5,4,25,1,NA
fcp-trial,59,449328,0.0-34.0-0.0,voc_e2,12104,"[{""event"":""fullscreenenter"",""trial"":1,""time"":11749}]",NA,NA,NA,NA,NA,2,#D8271C,#741CD8,0,0,0,38,1,1048.199999988079,37,1,512.3000000119209,0,0,experiment,NA,NA,2,0.5,0.5,5,4,26,1,NA
fcp-trial,60,453003,0.0-35.0-0.0,voc_e2,12104,"[{""event"":""fullscreenenter"",""trial"":1,""time"":11749}]",NA,NA,NA,NA,NA,2,#1CD855,#FA92F8,0,10,1,38,1,1166.5999999940395,37,1,1002.4000000059605,0,1,experiment,NA,NA,0,0.9,0.1,0,1,27,1,NA
fcp-trial,61,455813,0.0-36.0-0.0,voc_e2,12104,"[{""event"":""fullscreenenter"",""trial"":1,""time"":11749}]",NA,NA,NA,NA,NA,4,#D89F1C,#3386FF,10,0,1,38,1,667,39,0,637.5,0,0,experiment,NA,NA,1,0.7,0.3,2,3,28,1,NA
fcp-trial,62,460496,0.0-37.0-0.0,voc_e2,12104,"[{""event"":""fullscreenenter"",""trial"":1,""time"":11749}]",NA,NA,NA,NA,NA,4,#741CD8,#D8271C,0,0,1,38,1,941.5,37,1,2234.9000000059605,0,1,experiment,NA,NA,2,0.5,0.5,4,5,29,1,NA
fcp-trial,63,463666,0.0-38.0-0.0,voc_e2,12104,"[{""event"":""fullscreenenter"",""trial"":1,""time"":11749}]",NA,NA,NA,NA,NA,6,#D8271C,#741CD8,10,10,0,38,1,728.3000000119209,39,0,936.1000000238419,10,1,experiment,NA,NA,2,0.5,0.5,5,4,30,1,NA
fcp-trial,64,466693,0.0-39.0-0.0,voc_e2,12104,"[{""event"":""fullscreenenter"",""trial"":1,""time"":11749}]",NA,NA,NA,NA,NA,1,#FA92F8,#1CD855,0,10,0,38,1,772.7000000178814,37,1,748.3000000119209,0,0,experiment,NA,NA,0,0.1,0.9,1,0,31,1,NA
fcp-trial,65,470248,0.0-40.0-0.0,voc_e2,12104,"[{""event"":""fullscreenenter"",""trial"":1,""time"":11749}]",NA,NA,NA,NA,NA,6,#3386FF,#D89F1C,10,10,0,38,1,757.5999999940395,37,1,1292.5999999940395,10,0,experiment,NA,NA,1,0.3,0.7,3,2,32,1,NA
fcp-trial,66,473301,0.0-41.0-0.0,voc_e2,12104,"[{""event"":""fullscreenenter"",""trial"":1,""time"":11749}]",NA,NA,NA,NA,NA,0,#3386FF,#D89F1C,0,10,0,38,1,583.2999999821186,37,1,962,0,0,experiment,NA,NA,1,0.3,0.7,3,2,33,1,NA
fcp-trial,67,475867,0.0-42.0-0.0,voc_e2,12104,"[{""event"":""fullscreenenter"",""trial"":1,""time"":11749}]",NA,NA,NA,NA,NA,1,#3386FF,#D89F1C,0,10,0,38,1,499.7999999821186,39,0,557.6999999880791,10,1,experiment,NA,NA,1,0.3,0.7,3,2,34,1,NA
fcp-trial,68,478578,0.0-43.0-0.0,voc_e2,12104,"[{""event"":""fullscreenenter"",""trial"":1,""time"":11749}]",NA,NA,NA,NA,NA,5,#741CD8,#D8271C,10,0,1,38,1,393.10000002384186,37,1,812.5,10,1,experiment,NA,NA,2,0.5,0.5,4,5,35,1,NA
fcp-trial,69,481515,0.0-44.0-0.0,voc_e2,12104,"[{""event"":""fullscreenenter"",""trial"":1,""time"":11749}]",NA,NA,NA,NA,NA,6,#1CD855,#FA92F8,0,10,1,38,1,394.60000002384186,39,0,1036.0999999940395,10,0,experiment,NA,NA,0,0.9,0.1,0,1,36,1,NA
fcp-trial,70,484103,0.0-45.0-0.0,voc_e2,12104,"[{""event"":""fullscreenenter"",""trial"":1,""time"":11749}]",NA,NA,NA,NA,NA,3,#3386FF,#D89F1C,0,0,0,38,1,421.59999999403954,37,1,657.3999999761581,0,0,experiment,NA,NA,1,0.3,0.7,3,2,37,1,NA
fcp-trial,71,487122,0.0-46.0-0.0,voc_e2,12104,"[{""event"":""fullscreenenter"",""trial"":1,""time"":11749}]",NA,NA,NA,NA,NA,0,#FA92F8,#1CD855,0,10,0,38,1,1189.5,39,0,321.7999999821186,10,1,experiment,NA,NA,0,0.1,0.9,1,0,38,1,NA
fcp-trial,72,489979,0.0-47.0-0.0,voc_e2,12104,"[{""event"":""fullscreenenter"",""trial"":1,""time"":11749}]",NA,NA,NA,NA,NA,2,#3386FF,#D89F1C,10,10,0,38,1,837.4000000059605,37,1,511,10,0,experiment,NA,NA,1,0.3,0.7,3,2,39,1,NA
fcp-trial,73,493528,0.0-48.0-0.0,voc_e2,12104,"[{""event"":""fullscreenenter"",""trial"":1,""time"":11749}]",NA,NA,NA,NA,NA,3,#741CD8,#D8271C,10,10,1,38,1,1310.699999988079,37,1,732.4000000059605,10,1,experiment,NA,NA,2,0.5,0.5,4,5,40,1,NA
fcp-trial,74,498545,0.0-49.0-0.0,voc_e2,12104,"[{""event"":""fullscreenenter"",""trial"":1,""time"":11749}]",NA,NA,NA,NA,NA,0,#D8271C,#741CD8,10,0,0,40,0,1696.0999999940395,39,0,1814.199999988079,0,1,experiment,NA,NA,2,0.5,0.5,5,4,41,1,NA
fcp-trial,75,502748,0.0-50.0-0.0,voc_e2,12104,"[{""event"":""fullscreenenter"",""trial"":1,""time"":11749}]",NA,NA,NA,NA,NA,3,#1CD855,#FA92F8,10,0,1,38,1,1956.4000000059605,37,1,736.6000000238419,10,1,experiment,NA,NA,0,0.9,0.1,0,1,42,1,NA
fcp-trial,76,507048,0.0-51.0-0.0,voc_e2,12104,"[{""event"":""fullscreenenter"",""trial"":1,""time"":11749}]",NA,NA,NA,NA,NA,1,#D89F1C,#3386FF,10,0,1,38,1,2077,37,1,689.5999999940395,10,1,experiment,NA,NA,1,0.7,0.3,2,3,43,1,NA
fcp-trial,77,511081,0.0-52.0-0.0,voc_e2,12104,"[{""event"":""fullscreenenter"",""trial"":1,""time"":11749}]",NA,NA,NA,NA,NA,0,#D89F1C,#3386FF,10,0,1,40,0,1260.9000000059605,37,1,1264.4000000059605,10,1,experiment,NA,NA,1,0.7,0.3,2,3,44,1,NA
fcp-trial,78,515644,0.0-53.0-0.0,voc_e2,12104,"[{""event"":""fullscreenenter"",""trial"":1,""time"":11749}]",NA,NA,NA,NA,NA,0,#FA92F8,#1CD855,0,10,0,40,0,2332.300000011921,37,1,723.7000000178814,0,0,experiment,NA,NA,0,0.1,0.9,1,0,45,1,NA
fcp-trial,79,519232,0.0-54.0-0.0,voc_e2,12104,"[{""event"":""fullscreenenter"",""trial"":1,""time"":11749}]",NA,NA,NA,NA,NA,0,#D8271C,#741CD8,0,10,0,40,0,1204.0999999940395,39,0,876,10,1,experiment,NA,NA,2,0.5,0.5,5,4,46,2,NA
fcp-trial,80,523897,0.0-55.0-0.0,voc_e2,12104,"[{""event"":""fullscreenenter"",""trial"":1,""time"":11749}]",NA,NA,NA,NA,NA,2,#FA92F8,#1CD855,0,10,0,40,0,2407.5999999940395,37,1,750.6000000238419,0,0,experiment,NA,NA,0,0.1,0.9,1,0,47,2,NA
fcp-trial,81,528621,0.0-56.0-0.0,voc_e2,12104,"[{""event"":""fullscreenenter"",""trial"":1,""time"":11749}]",NA,NA,NA,NA,NA,6,#D89F1C,#3386FF,10,0,1,40,0,2482.4000000059605,37,1,733.6999999880791,10,1,experiment,NA,NA,1,0.7,0.3,2,3,48,2,NA
fcp-trial,82,531863,0.0-57.0-0.0,voc_e2,12104,"[{""event"":""fullscreenenter"",""trial"":1,""time"":11749}]",NA,NA,NA,NA,NA,3,#741CD8,#D8271C,10,0,1,40,0,918.9000000059605,39,0,815.6000000238419,0,0,experiment,NA,NA,2,0.5,0.5,4,5,49,2,NA
fcp-trial,83,535016,0.0-58.0-0.0,voc_e2,12104,"[{""event"":""fullscreenenter"",""trial"":1,""time"":11749}]",NA,NA,NA,NA,NA,4,#FA92F8,#1CD855,0,10,0,40,0,927.4000000059605,37,1,718.9000000059605,0,0,experiment,NA,NA,0,0.1,0.9,1,0,50,2,NA
fcp-trial,84,537523,0.0-59.0-0.0,voc_e2,12104,"[{""event"":""fullscreenenter"",""trial"":1,""time"":11749}]",NA,NA,NA,NA,NA,2,#D89F1C,#3386FF,10,0,1,40,0,457.90000000596046,39,0,539.5,0,0,experiment,NA,NA,1,0.7,0.3,2,3,51,2,NA
fcp-trial,85,540053,0.0-60.0-0.0,voc_e2,12104,"[{""event"":""fullscreenenter"",""trial"":1,""time"":11749}]",NA,NA,NA,NA,NA,4,#741CD8,#D8271C,10,0,1,40,0,478.7000000178814,37,1,541.5999999940395,10,1,experiment,NA,NA,2,0.5,0.5,4,5,52,2,NA
fcp-trial,86,542861,0.0-61.0-0.0,voc_e2,12104,"[{""event"":""fullscreenenter"",""trial"":1,""time"":11749}]",NA,NA,NA,NA,NA,6,#FA92F8,#1CD855,0,10,0,40,0,55.80000001192093,37,1,1244.5,0,0,experiment,NA,NA,0,0.1,0.9,1,0,53,2,NA
fcp-trial,87,545793,0.0-62.0-0.0,voc_e2,12104,"[{""event"":""fullscreenenter"",""trial"":1,""time"":11749}]",NA,NA,NA,NA,NA,3,#D89F1C,#3386FF,10,0,1,40,0,773.7000000178814,39,0,653.6999999880791,0,0,experiment,NA,NA,1,0.7,0.3,2,3,54,2,NA
fcp-trial,88,549581,0.0-63.0-0.0,voc_e2,12104,"[{""event"":""fullscreenenter"",""trial"":1,""time"":11749}]",NA,NA,NA,NA,NA,1,#D8271C,#741CD8,10,0,0,40,0,600.9000000059605,37,1,1680.5999999940395,10,0,experiment,NA,NA,2,0.5,0.5,5,4,55,2,NA
fcp-trial,89,552571,0.0-64.0-0.0,voc_e2,12104,"[{""event"":""fullscreenenter"",""trial"":1,""time"":11749}]",NA,NA,NA,NA,NA,3,#1CD855,#FA92F8,10,0,1,40,0,742.5999999940395,39,0,740.5,0,0,experiment,NA,NA,0,0.9,0.1,0,1,56,2,NA
fcp-trial,90,555392,0.0-65.0-0.0,voc_e2,12104,"[{""event"":""fullscreenenter"",""trial"":1,""time"":11749}]",NA,NA,NA,NA,NA,1,#1CD855,#FA92F8,10,0,1,40,0,752,37,1,559.1999999880791,10,1,experiment,NA,NA,0,0.9,0.1,0,1,57,2,NA
fcp-trial,91,558084,0.0-66.0-0.0,voc_e2,12104,"[{""event"":""fullscreenenter"",""trial"":1,""time"":11749}]",NA,NA,NA,NA,NA,5,#D89F1C,#3386FF,10,0,1,40,0,533.8000000119209,39,0,650.2000000178814,0,0,experiment,NA,NA,1,0.7,0.3,2,3,58,2,NA
fcp-trial,92,560933,0.0-67.0-0.0,voc_e2,12104,"[{""event"":""fullscreenenter"",""trial"":1,""time"":11749}]",NA,NA,NA,NA,NA,2,#741CD8,#D8271C,10,10,1,40,0,424,39,0,917.7000000178814,10,0,experiment,NA,NA,2,0.5,0.5,4,5,59,2,NA
fcp-trial,93,563647,0.0-68.0-0.0,voc_e2,12104,"[{""event"":""fullscreenenter"",""trial"":1,""time"":11749}]",NA,NA,NA,NA,NA,4,#3386FF,#D89F1C,0,10,0,40,0,532.6999999880791,39,0,673.8000000119209,10,1,experiment,NA,NA,1,0.3,0.7,3,2,60,2,NA
fcp-trial,94,566613,0.0-69.0-0.0,voc_e2,12104,"[{""event"":""fullscreenenter"",""trial"":1,""time"":11749}]",NA,NA,NA,NA,NA,5,#D8271C,#741CD8,10,10,0,40,0,817.0999999940395,37,1,643.0999999940395,10,0,experiment,NA,NA,2,0.5,0.5,5,4,61,2,NA
fcp-trial,95,569876,0.0-70.0-0.0,voc_e2,12104,"[{""event"":""fullscreenenter"",""trial"":1,""time"":11749}]",NA,NA,NA,NA,NA,5,#FA92F8,#1CD855,10,10,0,40,0,1164.9000000059605,39,0,592.3000000119209,10,1,experiment,NA,NA,0,0.1,0.9,1,0,62,2,NA
fcp-trial,96,572477,0.0-71.0-0.0,voc_e2,12104,"[{""event"":""fullscreenenter"",""trial"":1,""time"":11749}]",NA,NA,NA,NA,NA,6,#D8271C,#741CD8,0,0,0,40,0,407.09999999403954,39,0,686.9000000059605,0,1,experiment,NA,NA,2,0.5,0.5,5,4,63,2,NA
fcp-trial,97,574798,0.0-72.0-0.0,voc_e2,12104,"[{""event"":""fullscreenenter"",""trial"":1,""time"":11749}]",NA,NA,NA,NA,NA,4,#D8271C,#741CD8,10,0,0,40,0,416.19999998807907,39,0,397.30000001192093,0,1,experiment,NA,NA,2,0.5,0.5,5,4,64,2,NA
fcp-trial,98,577647,0.0-73.0-0.0,voc_e2,12104,"[{""event"":""fullscreenenter"",""trial"":1,""time"":11749}]",NA,NA,NA,NA,NA,6,#D89F1C,#3386FF,10,0,1,40,0,418.80000001192093,37,1,923.7000000178814,10,1,experiment,NA,NA,1,0.7,0.3,2,3,65,2,NA
fcp-trial,99,580220,0.0-74.0-0.0,voc_e2,12104,"[{""event"":""fullscreenenter"",""trial"":1,""time"":11749}]",NA,NA,NA,NA,NA,2,#1CD855,#FA92F8,10,0,1,40,0,445,37,1,620.9000000059605,10,1,experiment,NA,NA,0,0.9,0.1,0,1,66,2,NA
fcp-trial,100,582897,0.0-75.0-0.0,voc_e2,12104,"[{""event"":""fullscreenenter"",""trial"":1,""time"":11749}]",NA,NA,NA,NA,NA,0,#1CD855,#FA92F8,0,0,1,40,0,555,39,0,614.4000000059605,0,0,experiment,NA,NA,0,0.9,0.1,0,1,67,2,NA
fcp-trial,101,585812,0.0-76.0-0.0,voc_e2,12104,"[{""event"":""fullscreenenter"",""trial"":1,""time"":11749}]",NA,NA,NA,NA,NA,5,#D89F1C,#3386FF,10,0,1,40,0,681.0999999940395,39,0,728.5,0,0,experiment,NA,NA,1,0.7,0.3,2,3,68,2,NA
fcp-trial,102,588542,0.0-77.0-0.0,voc_e2,12104,"[{""event"":""fullscreenenter"",""trial"":1,""time"":11749}]",NA,NA,NA,NA,NA,2,#D8271C,#741CD8,0,0,0,40,0,587.5,39,0,633.5999999940395,0,1,experiment,NA,NA,2,0.5,0.5,5,4,69,2,NA
fcp-trial,103,591105,0.0-78.0-0.0,voc_e2,12104,"[{""event"":""fullscreenenter"",""trial"":1,""time"":11749}]",NA,NA,NA,NA,NA,3,#1CD855,#FA92F8,10,0,1,40,0,495,37,1,560.2000000178814,10,1,experiment,NA,NA,0,0.9,0.1,0,1,70,2,NA
fcp-trial,104,593667,0.0-79.0-0.0,voc_e2,12104,"[{""event"":""fullscreenenter"",""trial"":1,""time"":11749}]",NA,NA,NA,NA,NA,4,#FA92F8,#1CD855,0,10,0,40,0,487.30000001192093,37,1,565.5999999940395,0,0,experiment,NA,NA,0,0.1,0.9,1,0,71,2,NA
fcp-trial,105,596746,0.0-80.0-0.0,voc_e2,12104,"[{""event"":""fullscreenenter"",""trial"":1,""time"":11749}]",NA,NA,NA,NA,NA,1,#FA92F8,#1CD855,0,10,0,40,0,1157.9000000059605,39,0,414.7000000178814,10,1,experiment,NA,NA,0,0.1,0.9,1,0,72,2,NA
fcp-trial,106,599381,0.0-81.0-0.0,voc_e2,12104,"[{""event"":""fullscreenenter"",""trial"":1,""time"":11749}]",NA,NA,NA,NA,NA,1,#D89F1C,#3386FF,0,0,1,40,0,443.69999998807907,39,0,687.9000000059605,0,0,experiment,NA,NA,1,0.7,0.3,2,3,73,2,NA
fcp-trial,107,601809,0.0-82.0-0.0,voc_e2,12104,"[{""event"":""fullscreenenter"",""trial"":1,""time"":11749}]",NA,NA,NA,NA,NA,0,#741CD8,#D8271C,0,0,1,40,0,429.7999999821186,37,1,491.09999999403954,0,1,experiment,NA,NA,2,0.5,0.5,4,5,74,2,NA
fcp-trial,108,604485,0.0-83.0-0.0,voc_e2,12104,"[{""event"":""fullscreenenter"",""trial"":1,""time"":11749}]",NA,NA,NA,NA,NA,2,#D89F1C,#3386FF,10,10,1,40,0,429.69999998807907,37,1,738.6999999880791,10,1,experiment,NA,NA,1,0.7,0.3,2,3,75,2,NA
fcp-trial,109,607852,0.0-84.0-0.0,voc_e2,12104,"[{""event"":""fullscreenenter"",""trial"":1,""time"":11749}]",NA,NA,NA,NA,NA,3,#3386FF,#D89F1C,0,10,0,40,0,1057.5,39,0,801.7999999821186,10,1,experiment,NA,NA,1,0.3,0.7,3,2,76,2,NA
fcp-trial,110,610468,0.0-85.0-0.0,voc_e2,12104,"[{""event"":""fullscreenenter"",""trial"":1,""time"":11749}]",NA,NA,NA,NA,NA,5,#1CD855,#FA92F8,10,0,1,40,0,592.1999999880791,37,1,515.5999999940395,10,1,experiment,NA,NA,0,0.9,0.1,0,1,77,2,NA
fcp-trial,111,613072,0.0-86.0-0.0,voc_e2,12104,"[{""event"":""fullscreenenter"",""trial"":1,""time"":11749}]",NA,NA,NA,NA,NA,5,#D8271C,#741CD8,0,10,0,40,0,523.0999999940395,39,0,573.5,10,1,experiment,NA,NA,2,0.5,0.5,5,4,78,2,NA
fcp-trial,112,615611,0.0-87.0-0.0,voc_e2,12104,"[{""event"":""fullscreenenter"",""trial"":1,""time"":11749}]",NA,NA,NA,NA,NA,0,#D89F1C,#3386FF,10,0,1,40,0,501.40000000596046,37,1,531.2000000178814,10,1,experiment,NA,NA,1,0.7,0.3,2,3,79,2,NA
fcp-trial,113,618268,0.0-88.0-0.0,voc_e2,12104,"[{""event"":""fullscreenenter"",""trial"":1,""time"":11749}]",NA,NA,NA,NA,NA,3,#741CD8,#D8271C,0,0,1,40,0,530.9000000059605,39,0,618.9000000059605,0,0,experiment,NA,NA,2,0.5,0.5,4,5,80,2,NA
fcp-trial,114,620687,0.0-89.0-0.0,voc_e2,12104,"[{""event"":""fullscreenenter"",""trial"":1,""time"":11749}]",NA,NA,NA,NA,NA,4,#3386FF,#D89F1C,0,10,0,40,0,342.40000000596046,37,1,569.6999999880791,0,0,experiment,NA,NA,1,0.3,0.7,3,2,81,2,NA
fcp-trial,115,623614,0.0-90.0-0.0,voc_e2,12104,"[{""event"":""fullscreenenter"",""trial"":1,""time"":11749}]",NA,NA,NA,NA,NA,6,#1CD855,#FA92F8,10,0,1,40,0,337.90000000596046,37,1,1082.800000011921,10,1,experiment,NA,NA,0,0.9,0.1,0,1,82,2,NA
fcp-trial,116,626065,0.0-91.0-0.0,voc_e2,12104,"[{""event"":""fullscreenenter"",""trial"":1,""time"":11749}]",NA,NA,NA,NA,NA,1,#741CD8,#D8271C,10,0,1,40,0,516.7000000178814,39,0,428.7999999821186,0,0,experiment,NA,NA,2,0.5,0.5,4,5,83,2,NA
fcp-trial,117,628756,0.0-92.0-0.0,voc_e2,12104,"[{""event"":""fullscreenenter"",""trial"":1,""time"":11749}]",NA,NA,NA,NA,NA,6,#741CD8,#D8271C,0,10,1,40,0,559.5999999940395,39,0,625.2000000178814,10,0,experiment,NA,NA,2,0.5,0.5,4,5,84,2,NA
fcp-trial,118,631350,0.0-93.0-0.0,voc_e2,12104,"[{""event"":""fullscreenenter"",""trial"":1,""time"":11749}]",NA,NA,NA,NA,NA,5,#D89F1C,#3386FF,10,0,1,40,0,450,39,0,635.3000000119209,0,0,experiment,NA,NA,1,0.7,0.3,2,3,85,2,NA
fcp-trial,119,633737,0.0-94.0-0.0,voc_e2,12104,"[{""event"":""fullscreenenter"",""trial"":1,""time"":11749}]",NA,NA,NA,NA,NA,5,#D8271C,#741CD8,0,0,0,40,0,282.80000001192093,37,1,595.0999999940395,0,0,experiment,NA,NA,2,0.5,0.5,5,4,86,2,NA
fcp-trial,120,636320,0.0-95.0-0.0,voc_e2,12104,"[{""event"":""fullscreenenter"",""trial"":1,""time"":11749}]",NA,NA,NA,NA,NA,3,#D89F1C,#3386FF,10,0,1,40,0,542.0999999940395,39,0,530.5,0,0,experiment,NA,NA,1,0.7,0.3,2,3,87,2,NA
fcp-trial,121,638808,0.0-96.0-0.0,voc_e2,12104,"[{""event"":""fullscreenenter"",""trial"":1,""time"":11749}]",NA,NA,NA,NA,NA,6,#1CD855,#FA92F8,10,0,1,40,0,441.19999998807907,37,1,540.1999999880791,10,1,experiment,NA,NA,0,0.9,0.1,0,1,88,2,NA
fcp-trial,122,641345,0.0-97.0-0.0,voc_e2,12104,"[{""event"":""fullscreenenter"",""trial"":1,""time"":11749}]",NA,NA,NA,NA,NA,2,#D8271C,#741CD8,10,0,0,40,0,573.2000000178814,39,0,458,0,1,experiment,NA,NA,2,0.5,0.5,5,4,89,2,NA
fcp-trial,123,643956,0.0-98.0-0.0,voc_e2,12104,"[{""event"":""fullscreenenter"",""trial"":1,""time"":11749}]",NA,NA,NA,NA,NA,3,#D8271C,#741CD8,10,10,0,40,0,434.90000000596046,37,1,668.0999999940395,10,0,experiment,NA,NA,2,0.5,0.5,5,4,90,2,NA
fcp-trial,124,646529,0.0-99.0-0.0,voc_e2,12104,"[{""event"":""fullscreenenter"",""trial"":1,""time"":11749}]",NA,NA,NA,NA,NA,1,#D89F1C,#3386FF,0,0,1,40,0,386,37,1,680.3000000119209,0,1,experiment,NA,NA,1,0.7,0.3,2,3,91,3,NA
fcp-trial,125,649099,0.0-100.0-0.0,voc_e2,12104,"[{""event"":""fullscreenenter"",""trial"":1,""time"":11749}]",NA,NA,NA,NA,NA,1,#1CD855,#FA92F8,10,0,1,40,0,461.60000002384186,39,0,604.5,0,0,experiment,NA,NA,0,0.9,0.1,0,1,92,3,NA
fcp-trial,126,651614,0.0-101.0-0.0,voc_e2,12104,"[{""event"":""fullscreenenter"",""trial"":1,""time"":11749}]",NA,NA,NA,NA,NA,0,#FA92F8,#1CD855,0,10,0,40,0,462.30000001192093,39,0,547.8000000119209,10,1,experiment,NA,NA,0,0.1,0.9,1,0,93,3,NA
fcp-trial,127,653972,0.0-102.0-0.0,voc_e2,12104,"[{""event"":""fullscreenenter"",""trial"":1,""time"":11749}]",NA,NA,NA,NA,NA,1,#D8271C,#741CD8,0,0,0,40,0,404.2000000178814,37,1,446.90000000596046,0,0,experiment,NA,NA,2,0.5,0.5,5,4,94,3,NA
fcp-trial,128,656249,0.0-103.0-0.0,voc_e2,12104,"[{""event"":""fullscreenenter"",""trial"":1,""time"":11749}]",NA,NA,NA,NA,NA,5,#1CD855,#FA92F8,10,0,1,40,0,370.40000000596046,39,0,398.30000001192093,0,0,experiment,NA,NA,0,0.9,0.1,0,1,95,3,NA
fcp-trial,129,658662,0.0-104.0-0.0,voc_e2,12104,"[{""event"":""fullscreenenter"",""trial"":1,""time"":11749}]",NA,NA,NA,NA,NA,2,#3386FF,#D89F1C,0,10,0,40,0,393.89999997615814,37,1,514,0,0,experiment,NA,NA,1,0.3,0.7,3,2,96,3,NA
fcp-trial,130,661302,0.0-105.0-0.0,voc_e2,12104,"[{""event"":""fullscreenenter"",""trial"":1,""time"":11749}]",NA,NA,NA,NA,NA,2,#1CD855,#FA92F8,10,0,1,40,0,579.5,39,0,554.3000000119209,0,0,experiment,NA,NA,0,0.9,0.1,0,1,97,3,NA
fcp-trial,131,664020,0.0-106.0-0.0,voc_e2,12104,"[{""event"":""fullscreenenter"",""trial"":1,""time"":11749}]",NA,NA,NA,NA,NA,6,#D8271C,#741CD8,0,0,0,40,0,728.8999999761581,37,1,483.19999998807907,0,0,experiment,NA,NA,2,0.5,0.5,5,4,98,3,NA
fcp-trial,132,667714,0.0-107.0-0.0,voc_e2,12104,"[{""event"":""fullscreenenter"",""trial"":1,""time"":11749}]",NA,NA,NA,NA,NA,0,#D89F1C,#3386FF,10,10,1,40,0,423.09999999403954,39,0,1763.699999988079,10,0,experiment,NA,NA,1,0.7,0.3,2,3,99,3,NA
fcp-trial,133,670998,0.0-108.0-0.0,voc_e2,12104,"[{""event"":""fullscreenenter"",""trial"":1,""time"":11749}]",NA,NA,NA,NA,NA,6,#D89F1C,#3386FF,0,10,1,40,0,1151.0999999940395,37,1,626.6999999880791,0,1,experiment,NA,NA,1,0.7,0.3,2,3,100,3,NA
fcp-trial,134,674503,0.0-109.0-0.0,voc_e2,12104,"[{""event"":""fullscreenenter"",""trial"":1,""time"":11749}]",NA,NA,NA,NA,NA,4,#FA92F8,#1CD855,0,10,0,40,0,1359.199999988079,37,1,639.5,0,0,experiment,NA,NA,0,0.1,0.9,1,0,101,3,NA
fcp-trial,135,677773,0.0-110.0-0.0,voc_e2,12104,"[{""event"":""fullscreenenter"",""trial"":1,""time"":11749}]",NA,NA,NA,NA,NA,4,#D8271C,#741CD8,10,10,0,40,0,1276.199999988079,39,0,486.59999999403954,10,1,experiment,NA,NA,2,0.5,0.5,5,4,102,3,NA
fcp-trial,136,682796,0.0-111.0-0.0,voc_e2,12104,"[{""event"":""fullscreenenter"",""trial"":1,""time"":11749}]",NA,NA,NA,NA,NA,4,#3386FF,#D89F1C,10,10,0,40,0,2872.2999999821186,39,0,645.5,10,1,experiment,NA,NA,1,0.3,0.7,3,2,103,3,NA
fcp-trial,137,685785,0.0-112.0-0.0,voc_e2,12104,"[{""event"":""fullscreenenter"",""trial"":1,""time"":11749}]",NA,NA,NA,NA,NA,3,#FA92F8,#1CD855,0,10,0,40,0,935.7999999821186,39,0,545.5999999940395,10,1,experiment,NA,NA,0,0.1,0.9,1,0,104,3,NA
fcp-trial,138,691192,0.0-113.0-0.0,voc_e2,12104,"[{""event"":""fullscreenenter"",""trial"":1,""time"":11749}]",NA,NA,NA,NA,NA,0,#741CD8,#D8271C,10,0,1,38,1,1966.699999988079,37,1,1933.5,10,1,experiment,NA,NA,2,0.5,0.5,4,5,105,3,NA
audio-instructions,139,696850,0.0-114.0,voc_e2,12104,"[{""event"":""fullscreenenter"",""trial"":1,""time"":11749}]",NA,1066.300000011921,static/audio/pause.wav,NA,0,NA,NA,NA,NA,NA,NA,NA,NA,NA,NA,NA,NA,NA,NA,NA,NA,NA,NA,NA,NA,NA,NA,NA,NA,NA
fcp-trial,140,701760,0.0-115.0-0.0,voc_e2,12104,"[{""event"":""fullscreenenter"",""trial"":1,""time"":11749}]",NA,NA,NA,NA,NA,5,#741CD8,#D8271C,0,10,1,40,0,2201.5,37,1,1199.800000011921,0,1,experiment,NA,NA,2,0.5,0.5,4,5,106,3,NA
fcp-trial,141,704596,0.0-116.0-0.0,voc_e2,12104,"[{""event"":""fullscreenenter"",""trial"":1,""time"":11749}]",NA,NA,NA,NA,NA,2,#D8271C,#741CD8,0,0,0,40,0,927.2000000178814,39,0,402.19999998807907,0,1,experiment,NA,NA,2,0.5,0.5,5,4,107,3,NA
fcp-trial,142,707429,0.0-117.0-0.0,voc_e2,12104,"[{""event"":""fullscreenenter"",""trial"":1,""time"":11749}]",NA,NA,NA,NA,NA,3,#FA92F8,#1CD855,0,10,0,40,0,833.9000000059605,39,0,493.59999999403954,10,1,experiment,NA,NA,0,0.1,0.9,1,0,108,3,NA
fcp-trial,143,710770,0.0-118.0-0.0,voc_e2,12104,"[{""event"":""fullscreenenter"",""trial"":1,""time"":11749}]",NA,NA,NA,NA,NA,5,#3386FF,#D89F1C,0,10,0,40,0,1352.5999999940395,39,0,480.80000001192093,10,1,experiment,NA,NA,1,0.3,0.7,3,2,109,3,NA
fcp-trial,144,713545,0.0-119.0-0.0,voc_e2,12104,"[{""event"":""fullscreenenter"",""trial"":1,""time"":11749}]",NA,NA,NA,NA,NA,6,#D8271C,#741CD8,0,10,0,40,0,810.5999999940395,37,1,458.39999997615814,0,0,experiment,NA,NA,2,0.5,0.5,5,4,110,3,NA
fcp-trial,145,718326,0.0-120.0-0.0,voc_e2,12104,"[{""event"":""fullscreenenter"",""trial"":1,""time"":11749}]",NA,NA,NA,NA,NA,0,#1CD855,#FA92F8,10,10,1,38,1,1903.800000011921,37,1,1370.7999999821186,10,1,experiment,NA,NA,0,0.9,0.1,0,1,111,3,NA
fcp-trial,146,721395,0.0-121.0-0.0,voc_e2,12104,"[{""event"":""fullscreenenter"",""trial"":1,""time"":11749}]",NA,NA,NA,NA,NA,4,#1CD855,#FA92F8,10,0,1,40,0,1002.2000000178814,39,0,560.8000000119209,0,0,experiment,NA,NA,0,0.9,0.1,0,1,112,3,NA
fcp-trial,147,731445,0.0-122.0-0.0,voc_e2,12104,"[{""event"":""fullscreenenter"",""trial"":1,""time"":11749}]",NA,NA,NA,NA,NA,1,#D8271C,#741CD8,10,0,0,38,1,5515.0999999940395,39,0,3028.800000011921,0,1,experiment,NA,NA,2,0.5,0.5,5,4,113,3,NA
fcp-trial,148,736518,0.0-123.0-0.0,voc_e2,12104,"[{""event"":""fullscreenenter"",""trial"":1,""time"":11749}]",NA,NA,NA,NA,NA,2,#D89F1C,#3386FF,10,10,1,40,0,3065.899999976158,37,1,499.19999998807907,10,1,experiment,NA,NA,1,0.7,0.3,2,3,114,3,NA
fcp-trial,149,739511,0.0-124.0-0.0,voc_e2,12104,"[{""event"":""fullscreenenter"",""trial"":1,""time"":11749}]",NA,NA,NA,NA,NA,4,#3386FF,#D89F1C,10,10,0,40,0,957,37,1,528.6000000238419,10,0,experiment,NA,NA,1,0.3,0.7,3,2,115,3,NA
fcp-trial,150,744908,0.0-125.0-0.0,voc_e2,12104,"[{""event"":""fullscreenenter"",""trial"":1,""time"":11749}]",NA,NA,NA,NA,NA,0,#D89F1C,#3386FF,10,0,1,38,1,3216.800000011921,39,0,673.1999999880791,0,0,experiment,NA,NA,1,0.7,0.3,2,3,116,3,NA
fcp-trial,151,749750,0.0-126.0-0.0,voc_e2,12104,"[{""event"":""fullscreenenter"",""trial"":1,""time"":11749}]",NA,NA,NA,NA,NA,1,#FA92F8,#1CD855,0,10,0,40,0,2111.300000011921,37,1,1222.0999999940395,0,0,experiment,NA,NA,0,0.1,0.9,1,0,117,3,NA
fcp-trial,152,755677,0.0-127.0-0.0,voc_e2,12104,"[{""event"":""fullscreenenter"",""trial"":1,""time"":11749}]",NA,NA,NA,NA,NA,3,#D8271C,#741CD8,10,0,0,40,0,4000,39,0,416.5,0,1,experiment,NA,NA,2,0.5,0.5,5,4,118,3,NA
fcp-trial,153,759218,0.0-128.0-0.0,voc_e2,12104,"[{""event"":""fullscreenenter"",""trial"":1,""time"":11749}]",NA,NA,NA,NA,NA,3,#3386FF,#D89F1C,0,0,0,40,0,1431.3999999761581,39,0,601.5,0,1,experiment,NA,NA,1,0.3,0.7,3,2,119,3,NA
fcp-trial,154,762085,0.0-129.0-0.0,voc_e2,12104,"[{""event"":""fullscreenenter"",""trial"":1,""time"":11749}]",NA,NA,NA,NA,NA,5,#1CD855,#FA92F8,10,0,1,40,0,741.3000000119209,39,0,620.2000000178814,0,0,experiment,NA,NA,0,0.9,0.1,0,1,120,3,NA
fcp-trial,155,765764,0.0-130.0-0.0,voc_e2,12104,"[{""event"":""fullscreenenter"",""trial"":1,""time"":11749}]",NA,NA,NA,NA,NA,6,#3386FF,#D89F1C,0,0,0,40,0,1150.9000000059605,37,1,1021.0999999940395,0,0,experiment,NA,NA,1,0.3,0.7,3,2,121,3,NA
fcp-trial,156,770482,0.0-131.0-0.0,voc_e2,12104,"[{""event"":""fullscreenenter"",""trial"":1,""time"":11749}]",NA,NA,NA,NA,NA,2,#1CD855,#FA92F8,10,0,1,40,0,2708.7999999821186,37,1,503.19999998807907,10,1,experiment,NA,NA,0,0.9,0.1,0,1,122,3,NA
fcp-trial,157,773538,0.0-132.0-0.0,voc_e2,12104,"[{""event"":""fullscreenenter"",""trial"":1,""time"":11749}]",NA,NA,NA,NA,NA,4,#741CD8,#D8271C,10,0,1,40,0,894.7000000178814,39,0,655.0999999940395,0,0,experiment,NA,NA,2,0.5,0.5,4,5,123,3,NA
fcp-trial,158,778087,0.0-133.0-0.0,voc_e2,12104,"[{""event"":""fullscreenenter"",""trial"":1,""time"":11749}]",NA,NA,NA,NA,NA,0,#D8271C,#741CD8,0,10,0,38,1,2142.5999999940395,39,0,898.1999999880791,10,1,experiment,NA,NA,2,0.5,0.5,5,4,124,3,NA
fcp-trial,159,781430,0.0-134.0-0.0,voc_e2,12104,"[{""event"":""fullscreenenter"",""trial"":1,""time"":11749}]",NA,NA,NA,NA,NA,6,#1CD855,#FA92F8,10,0,1,40,0,1199.699999988079,39,0,637,0,0,experiment,NA,NA,0,0.9,0.1,0,1,125,3,NA
fcp-trial,160,785202,0.0-135.0-0.0,voc_e2,12104,"[{""event"":""fullscreenenter"",""trial"":1,""time"":11749}]",NA,NA,NA,NA,NA,1,#3386FF,#D89F1C,0,10,0,40,0,1694.7999999821186,39,0,570.8000000119209,10,1,experiment,NA,NA,1,0.3,0.7,3,2,126,3,NA
fcp-trial,161,788480,0.0-136.0-0.0,voc_e2,12104,"[{""event"":""fullscreenenter"",""trial"":1,""time"":11749}]",NA,NA,NA,NA,NA,0,#FA92F8,#1CD855,0,0,0,38,1,1234.800000011921,39,0,535.8000000119209,0,1,experiment,NA,NA,0,0.1,0.9,1,0,127,3,NA
fcp-trial,162,791721,0.0-137.0-0.0,voc_e2,12104,"[{""event"":""fullscreenenter"",""trial"":1,""time"":11749}]",NA,NA,NA,NA,NA,2,#D89F1C,#3386FF,10,0,1,40,0,1076.300000011921,37,1,657.3999999761581,10,1,experiment,NA,NA,1,0.7,0.3,2,3,128,3,NA
fcp-trial,163,795774,0.0-138.0-0.0,voc_e2,12104,"[{""event"":""fullscreenenter"",""trial"":1,""time"":11749}]",NA,NA,NA,NA,NA,5,#D89F1C,#3386FF,10,0,1,40,0,1829.800000011921,37,1,713.2999999821186,10,1,experiment,NA,NA,1,0.7,0.3,2,3,129,3,NA
fcp-trial,164,800525,0.0-139.0-0.0,voc_e2,12104,"[{""event"":""fullscreenenter"",""trial"":1,""time"":11749}]",NA,NA,NA,NA,NA,4,#FA92F8,#1CD855,0,10,0,40,0,2628.2999999821186,37,1,614.7999999821186,0,0,experiment,NA,NA,0,0.1,0.9,1,0,130,3,NA
fcp-trial,165,804370,0.0-140.0-0.0,voc_e2,12104,"[{""event"":""fullscreenenter"",""trial"":1,""time"":11749}]",NA,NA,NA,NA,NA,1,#D8271C,#741CD8,0,0,0,40,0,1842.5999999940395,39,0,492.90000000596046,0,1,experiment,NA,NA,2,0.5,0.5,5,4,131,3,NA
fcp-trial,166,811912,0.0-141.0-0.0,voc_e2,12104,"[{""event"":""fullscreenenter"",""trial"":1,""time"":11749}]",NA,NA,NA,NA,NA,2,#1CD855,#FA92F8,10,0,1,40,0,3883.5,39,0,2151.2999999821186,0,0,experiment,NA,NA,0,0.9,0.1,0,1,132,3,NA
fcp-trial,167,817214,0.0-142.0-0.0,voc_e2,12104,"[{""event"":""fullscreenenter"",""trial"":1,""time"":11749}]",NA,NA,NA,NA,NA,2,#741CD8,#D8271C,0,0,1,40,0,2350.699999988079,39,0,1443.300000011921,0,0,experiment,NA,NA,2,0.5,0.5,4,5,133,3,NA
fcp-trial,168,821693,0.0-143.0-0.0,voc_e2,12104,"[{""event"":""fullscreenenter"",""trial"":1,""time"":11749}]",NA,NA,NA,NA,NA,4,#D89F1C,#3386FF,10,0,1,40,0,2266.800000011921,37,1,705.5999999940395,10,1,experiment,NA,NA,1,0.7,0.3,2,3,134,3,NA
fcp-trial,169,824971,0.0-144.0-0.0,voc_e2,12104,"[{""event"":""fullscreenenter"",""trial"":1,""time"":11749}]",NA,NA,NA,NA,NA,6,#741CD8,#D8271C,10,10,1,40,0,1340.0999999940395,39,0,426.90000000596046,10,0,experiment,NA,NA,2,0.5,0.5,4,5,135,3,NA
fcp-trial,170,830696,0.0-145.0-0.0,voc_e2,12104,"[{""event"":""fullscreenenter"",""trial"":1,""time"":11749}]",NA,NA,NA,NA,NA,1,#FA92F8,#1CD855,0,10,0,38,1,3798.9000000059605,37,1,418.30000001192093,0,0,experiment,NA,NA,0,0.1,0.9,1,0,136,4,NA
fcp-trial,171,834815,0.0-146.0-0.0,voc_e2,12104,"[{""event"":""fullscreenenter"",""trial"":1,""time"":11749}]",NA,NA,NA,NA,NA,6,#D89F1C,#3386FF,10,10,1,40,0,2102.4000000059605,39,0,505.2000000178814,10,0,experiment,NA,NA,1,0.7,0.3,2,3,137,4,NA
fcp-trial,172,838333,0.0-147.0-0.0,voc_e2,12104,"[{""event"":""fullscreenenter"",""trial"":1,""time"":11749}]",NA,NA,NA,NA,NA,1,#3386FF,#D89F1C,10,10,0,40,0,1365.5,39,0,647.1999999880791,10,1,experiment,NA,NA,1,0.3,0.7,3,2,138,4,NA
fcp-trial,173,841433,0.0-148.0-0.0,voc_e2,12104,"[{""event"":""fullscreenenter"",""trial"":1,""time"":11749}]",NA,NA,NA,NA,NA,5,#741CD8,#D8271C,0,10,1,40,0,731.9000000059605,39,0,863,10,0,experiment,NA,NA,2,0.5,0.5,4,5,139,4,NA
fcp-trial,174,843842,0.0-149.0-0.0,voc_e2,12104,"[{""event"":""fullscreenenter"",""trial"":1,""time"":11749}]",NA,NA,NA,NA,NA,6,#1CD855,#FA92F8,10,0,1,40,0,396.7000000178814,39,0,503.19999998807907,0,0,experiment,NA,NA,0,0.9,0.1,0,1,140,4,NA
fcp-trial,175,846833,0.0-150.0-0.0,voc_e2,12104,"[{""event"":""fullscreenenter"",""trial"":1,""time"":11749}]",NA,NA,NA,NA,NA,3,#741CD8,#D8271C,10,10,1,40,0,657.6000000238419,37,1,828.5999999940395,10,1,experiment,NA,NA,2,0.5,0.5,4,5,141,4,NA
fcp-trial,176,849362,0.0-151.0-0.0,voc_e2,12104,"[{""event"":""fullscreenenter"",""trial"":1,""time"":11749}]",NA,NA,NA,NA,NA,5,#1CD855,#FA92F8,10,0,1,40,0,425.19999998807907,39,0,597.7000000178814,0,0,experiment,NA,NA,0,0.9,0.1,0,1,142,4,NA
fcp-trial,177,852008,0.0-152.0-0.0,voc_e2,12104,"[{""event"":""fullscreenenter"",""trial"":1,""time"":11749}]",NA,NA,NA,NA,NA,0,#D89F1C,#3386FF,10,0,1,40,0,368.90000000596046,39,0,770.9000000059605,0,0,experiment,NA,NA,1,0.7,0.3,2,3,143,4,NA
fcp-trial,178,855111,0.0-153.0-0.0,voc_e2,12104,"[{""event"":""fullscreenenter"",""trial"":1,""time"":11749}]",NA,NA,NA,NA,NA,4,#D8271C,#741CD8,10,10,0,40,0,1138,39,0,457.5,10,1,experiment,NA,NA,2,0.5,0.5,5,4,144,4,NA
fcp-trial,179,858158,0.0-154.0-0.0,voc_e2,12104,"[{""event"":""fullscreenenter"",""trial"":1,""time"":11749}]",NA,NA,NA,NA,NA,3,#D89F1C,#3386FF,10,0,1,40,0,763.4000000059605,37,1,776,10,1,experiment,NA,NA,1,0.7,0.3,2,3,145,4,NA
fcp-trial,180,861046,0.0-155.0-0.0,voc_e2,12104,"[{""event"":""fullscreenenter"",""trial"":1,""time"":11749}]",NA,NA,NA,NA,NA,3,#FA92F8,#1CD855,0,10,0,40,0,808.2999999821186,37,1,570.4000000059605,0,0,experiment,NA,NA,0,0.1,0.9,1,0,146,4,NA
fcp-trial,181,869510,0.0-156.0-0.0,voc_e2,12104,"[{""event"":""fullscreenenter"",""trial"":1,""time"":11749}]",NA,NA,NA,NA,NA,0,#D8271C,#741CD8,0,0,0,38,1,1533.3999999761581,37,1,5422,0,0,experiment,NA,NA,2,0.5,0.5,5,4,147,4,NA
fcp-trial,182,872789,0.0-157.0-0.0,voc_e2,12104,"[{""event"":""fullscreenenter"",""trial"":1,""time"":11749}]",NA,NA,NA,NA,NA,2,#D8271C,#741CD8,0,10,0,40,0,1278.699999988079,39,0,493.7999999821186,10,1,experiment,NA,NA,2,0.5,0.5,5,4,148,4,NA
fcp-trial,183,877928,0.0-158.0-0.0,voc_e2,12104,"[{""event"":""fullscreenenter"",""trial"":1,""time"":11749}]",NA,NA,NA,NA,NA,6,#3386FF,#D89F1C,10,10,0,40,0,2998.9000000059605,37,1,630.3000000119209,10,0,experiment,NA,NA,1,0.3,0.7,3,2,149,4,NA
fcp-trial,184,882454,0.0-159.0-0.0,voc_e2,12104,"[{""event"":""fullscreenenter"",""trial"":1,""time"":11749}]",NA,NA,NA,NA,NA,0,#741CD8,#D8271C,0,10,1,38,1,2624.800000011921,37,1,393.5,0,1,experiment,NA,NA,2,0.5,0.5,4,5,150,4,NA
fcp-trial,185,886519,0.0-160.0-0.0,voc_e2,12104,"[{""event"":""fullscreenenter"",""trial"":1,""time"":11749}]",NA,NA,NA,NA,NA,4,#D8271C,#741CD8,10,0,0,40,0,1863,37,1,695.9000000059605,10,0,experiment,NA,NA,2,0.5,0.5,5,4,151,4,NA
fcp-trial,186,890637,0.0-161.0-0.0,voc_e2,12104,"[{""event"":""fullscreenenter"",""trial"":1,""time"":11749}]",NA,NA,NA,NA,NA,3,#1CD855,#FA92F8,10,0,1,40,0,2029,37,1,581.7999999821186,10,1,experiment,NA,NA,0,0.9,0.1,0,1,152,4,NA
fcp-trial,187,894368,0.0-162.0-0.0,voc_e2,12104,"[{""event"":""fullscreenenter"",""trial"":1,""time"":11749}]",NA,NA,NA,NA,NA,0,#D89F1C,#3386FF,10,0,1,38,1,1209.300000011921,39,0,1015.2999999821186,0,0,experiment,NA,NA,1,0.7,0.3,2,3,153,4,NA
fcp-trial,188,898895,0.0-163.0-0.0,voc_e2,12104,"[{""event"":""fullscreenenter"",""trial"":1,""time"":11749}]",NA,NA,NA,NA,NA,0,#FA92F8,#1CD855,0,10,0,38,1,2472.9000000059605,39,0,546.0999999940395,10,1,experiment,NA,NA,0,0.1,0.9,1,0,154,4,NA
fcp-trial,189,902139,0.0-164.0-0.0,voc_e2,12104,"[{""event"":""fullscreenenter"",""trial"":1,""time"":11749}]",NA,NA,NA,NA,NA,5,#741CD8,#D8271C,10,10,1,40,0,1150.9000000059605,39,0,587,10,0,experiment,NA,NA,2,0.5,0.5,4,5,155,4,NA
fcp-trial,190,905136,0.0-165.0-0.0,voc_e2,12104,"[{""event"":""fullscreenenter"",""trial"":1,""time"":11749}]",NA,NA,NA,NA,NA,2,#D89F1C,#3386FF,0,0,1,40,0,918.3999999761581,39,0,571.7000000178814,0,0,experiment,NA,NA,1,0.7,0.3,2,3,156,4,NA
fcp-trial,191,908677,0.0-166.0-0.0,voc_e2,12104,"[{""event"":""fullscreenenter"",""trial"":1,""time"":11749}]",NA,NA,NA,NA,NA,4,#D89F1C,#3386FF,10,10,1,40,0,1473.5999999940395,37,1,560.1999999880791,10,1,experiment,NA,NA,1,0.7,0.3,2,3,157,4,NA
fcp-trial,192,912461,0.0-167.0-0.0,voc_e2,12104,"[{""event"":""fullscreenenter"",""trial"":1,""time"":11749}]",NA,NA,NA,NA,NA,1,#1CD855,#FA92F8,10,0,1,40,0,1675.0999999940395,39,0,597.1999999880791,0,0,experiment,NA,NA,0,0.9,0.1,0,1,158,4,NA
fcp-trial,193,915836,0.0-168.0-0.0,voc_e2,12104,"[{""event"":""fullscreenenter"",""trial"":1,""time"":11749}]",NA,NA,NA,NA,NA,3,#3386FF,#D89F1C,0,10,0,40,0,1251.9000000059605,39,0,615.4000000059605,10,1,experiment,NA,NA,1,0.3,0.7,3,2,159,4,NA
fcp-trial,194,921323,0.0-169.0-0.0,voc_e2,12104,"[{""event"":""fullscreenenter"",""trial"":1,""time"":11749}]",NA,NA,NA,NA,NA,6,#D8271C,#741CD8,0,0,0,40,0,3126.4000000059605,39,0,854.9000000059605,0,1,experiment,NA,NA,2,0.5,0.5,5,4,160,4,NA
fcp-trial,195,924863,0.0-170.0-0.0,voc_e2,12104,"[{""event"":""fullscreenenter"",""trial"":1,""time"":11749}]",NA,NA,NA,NA,NA,4,#FA92F8,#1CD855,0,10,0,40,0,1428.3999999761581,39,0,605.8999999761581,10,1,experiment,NA,NA,0,0.1,0.9,1,0,161,4,NA
fcp-trial,196,927674,0.0-171.0-0.0,voc_e2,12104,"[{""event"":""fullscreenenter"",""trial"":1,""time"":11749}]",NA,NA,NA,NA,NA,5,#FA92F8,#1CD855,0,10,0,40,0,565,37,1,738.8999999761581,0,0,experiment,NA,NA,0,0.1,0.9,1,0,162,4,NA
fcp-trial,197,931674,0.0-172.0-0.0,voc_e2,12104,"[{""event"":""fullscreenenter"",""trial"":1,""time"":11749}]",NA,NA,NA,NA,NA,1,#741CD8,#D8271C,0,0,1,38,1,1764.7999999821186,37,1,731.1000000238419,0,1,experiment,NA,NA,2,0.5,0.5,4,5,163,4,NA
fcp-trial,198,934548,0.0-173.0-0.0,voc_e2,12104,"[{""event"":""fullscreenenter"",""trial"":1,""time"":11749}]",NA,NA,NA,NA,NA,1,#3386FF,#D89F1C,0,10,0,40,0,776.2999999821186,39,0,589.9000000059605,10,1,experiment,NA,NA,1,0.3,0.7,3,2,164,4,NA
fcp-trial,199,937471,0.0-174.0-0.0,voc_e2,12104,"[{""event"":""fullscreenenter"",""trial"":1,""time"":11749}]",NA,NA,NA,NA,NA,5,#3386FF,#D89F1C,0,10,0,40,0,809.5,37,1,606.8000000119209,0,0,experiment,NA,NA,1,0.3,0.7,3,2,165,4,NA
fcp-trial,200,940327,0.0-175.0-0.0,voc_e2,12104,"[{""event"":""fullscreenenter"",""trial"":1,""time"":11749}]",NA,NA,NA,NA,NA,6,#FA92F8,#1CD855,0,10,0,40,0,717.0999999940395,37,1,631.5,0,0,experiment,NA,NA,0,0.1,0.9,1,0,166,4,NA
fcp-trial,201,944907,0.0-176.0-0.0,voc_e2,12104,"[{""event"":""fullscreenenter"",""trial"":1,""time"":11749}]",NA,NA,NA,NA,NA,3,#D8271C,#741CD8,0,10,0,40,0,2278.300000011921,37,1,793.0999999940395,0,0,experiment,NA,NA,2,0.5,0.5,5,4,167,4,NA
fcp-trial,202,947524,0.0-177.0-0.0,voc_e2,12104,"[{""event"":""fullscreenenter"",""trial"":1,""time"":11749}]",NA,NA,NA,NA,NA,2,#1CD855,#FA92F8,0,0,1,40,0,582.0999999940395,39,0,527.7000000178814,0,0,experiment,NA,NA,0,0.9,0.1,0,1,168,4,NA
fcp-trial,203,950179,0.0-178.0-0.0,voc_e2,12104,"[{""event"":""fullscreenenter"",""trial"":1,""time"":11749}]",NA,NA,NA,NA,NA,4,#3386FF,#D89F1C,0,10,0,40,0,464.5,39,0,682.5999999940395,10,1,experiment,NA,NA,1,0.3,0.7,3,2,169,4,NA
fcp-trial,204,952913,0.0-179.0-0.0,voc_e2,12104,"[{""event"":""fullscreenenter"",""trial"":1,""time"":11749}]",NA,NA,NA,NA,NA,2,#741CD8,#D8271C,0,0,1,40,0,676,39,0,546.5,0,0,experiment,NA,NA,2,0.5,0.5,4,5,170,4,NA
fcp-trial,205,956462,0.0-180.0-0.0,voc_e2,12104,"[{""event"":""fullscreenenter"",""trial"":1,""time"":11749}]",NA,NA,NA,NA,NA,5,#FA92F8,#1CD855,0,10,0,40,0,1237.699999988079,39,0,802.8000000119209,10,1,experiment,NA,NA,0,0.1,0.9,1,0,171,4,NA
fcp-trial,206,960593,0.0-181.0-0.0,voc_e2,12104,"[{""event"":""fullscreenenter"",""trial"":1,""time"":11749}]",NA,NA,NA,NA,NA,0,#FA92F8,#1CD855,0,10,0,40,0,657.5,37,1,1964.5999999940395,0,0,experiment,NA,NA,0,0.1,0.9,1,0,172,4,NA
fcp-trial,207,966437,0.0-182.0-0.0,voc_e2,12104,"[{""event"":""fullscreenenter"",""trial"":1,""time"":11749}]",NA,NA,NA,NA,NA,4,#D8271C,#741CD8,0,0,0,40,0,1453.7000000178814,37,1,2884.5,0,0,experiment,NA,NA,2,0.5,0.5,5,4,173,4,NA
fcp-trial,208,971308,0.0-183.0-0.0,voc_e2,12104,"[{""event"":""fullscreenenter"",""trial"":1,""time"":11749}]",NA,NA,NA,NA,NA,3,#3386FF,#D89F1C,0,10,0,40,0,2815.699999988079,39,0,547.5,10,1,experiment,NA,NA,1,0.3,0.7,3,2,174,4,NA
fcp-trial,209,976157,0.0-184.0-0.0,voc_e2,12104,"[{""event"":""fullscreenenter"",""trial"":1,""time"":11749}]",NA,NA,NA,NA,NA,2,#1CD855,#FA92F8,10,0,1,40,0,1537.2000000178814,37,1,1804.5999999940395,10,1,experiment,NA,NA,0,0.9,0.1,0,1,175,4,NA
fcp-trial,210,983013,0.0-185.0-0.0,voc_e2,12104,"[{""event"":""fullscreenenter"",""trial"":1,""time"":11749}]",NA,NA,NA,NA,NA,6,#3386FF,#D89F1C,10,0,0,40,0,799.0999999940395,37,1,4548.5999999940395,10,0,experiment,NA,NA,1,0.3,0.7,3,2,176,4,NA
fcp-trial,211,988437,0.0-186.0-0.0,voc_e2,12104,"[{""event"":""fullscreenenter"",""trial"":1,""time"":11749}]",NA,NA,NA,NA,NA,6,#1CD855,#FA92F8,10,0,1,40,0,1027.300000011921,37,1,2889.300000011921,10,1,experiment,NA,NA,0,0.9,0.1,0,1,177,4,NA
fcp-trial,212,991941,0.0-187.0-0.0,voc_e2,12104,"[{""event"":""fullscreenenter"",""trial"":1,""time"":11749}]",NA,NA,NA,NA,NA,3,#D8271C,#741CD8,10,0,0,40,0,1277.7999999821186,39,0,718.2999999821186,0,1,experiment,NA,NA,2,0.5,0.5,5,4,178,4,NA
fcp-trial,213,1003648,0.0-188.0-0.0,voc_e2,12104,"[{""event"":""fullscreenenter"",""trial"":1,""time"":11749}]",NA,NA,NA,NA,NA,1,#FA92F8,#1CD855,0,10,0,40,0,3967.0999999940395,37,1,6231.200000017881,0,0,experiment,NA,NA,0,0.1,0.9,1,0,179,4,NA
fcp-trial,214,1013232,0.0-189.0-0.0,voc_e2,12104,"[{""event"":""fullscreenenter"",""trial"":1,""time"":11749}]",NA,NA,NA,NA,NA,5,#D89F1C,#3386FF,10,0,1,40,0,3706.5999999940395,37,1,4369.699999988079,10,1,experiment,NA,NA,1,0.7,0.3,2,3,180,4,NA
fcp-trial,215,1018936,0.0-190.0-0.0,voc_e2,12104,"[{""event"":""fullscreenenter"",""trial"":1,""time"":11749}]",NA,NA,NA,NA,NA,5,#741CD8,#D8271C,10,0,1,38,1,1263.5999999940395,37,1,2931.0999999940395,10,1,experiment,NA,NA,2,0.5,0.5,4,5,181,5,NA
fcp-trial,216,1022498,0.0-191.0-0.0,voc_e2,12104,"[{""event"":""fullscreenenter"",""trial"":1,""time"":11749}]",NA,NA,NA,NA,NA,4,#FA92F8,#1CD855,0,10,0,40,0,1321.5999999940395,39,0,731.2999999821186,10,1,experiment,NA,NA,0,0.1,0.9,1,0,182,5,NA
fcp-trial,217,1026981,0.0-192.0-0.0,voc_e2,12104,"[{""event"":""fullscreenenter"",""trial"":1,""time"":11749}]",NA,NA,NA,NA,NA,0,#D8271C,#741CD8,10,10,0,38,1,416.5,39,0,2558,10,1,experiment,NA,NA,2,0.5,0.5,5,4,183,5,NA
fcp-trial,218,1029422,0.0-193.0-0.0,voc_e2,12104,"[{""event"":""fullscreenenter"",""trial"":1,""time"":11749}]",NA,NA,NA,NA,NA,2,#3386FF,#D89F1C,0,10,0,40,0,401.19999998807907,39,0,530.7000000178814,10,1,experiment,NA,NA,1,0.3,0.7,3,2,184,5,NA
fcp-trial,219,1032123,0.0-194.0-0.0,voc_e2,12104,"[{""event"":""fullscreenenter"",""trial"":1,""time"":11749}]",NA,NA,NA,NA,NA,6,#741CD8,#D8271C,10,10,1,40,0,724.4000000059605,37,1,470.40000000596046,10,1,experiment,NA,NA,2,0.5,0.5,4,5,185,5,NA
fcp-trial,220,1034696,0.0-195.0-0.0,voc_e2,12104,"[{""event"":""fullscreenenter"",""trial"":1,""time"":11749}]",NA,NA,NA,NA,NA,1,#3386FF,#D89F1C,0,10,0,40,0,492.30000001192093,37,1,573.6999999880791,0,0,experiment,NA,NA,1,0.3,0.7,3,2,186,5,NA
fcp-trial,221,1037198,0.0-196.0-0.0,voc_e2,12104,"[{""event"":""fullscreenenter"",""trial"":1,""time"":11749}]",NA,NA,NA,NA,NA,3,#1CD855,#FA92F8,10,10,1,40,0,385.90000000596046,39,0,606.1999999880791,10,0,experiment,NA,NA,0,0.9,0.1,0,1,187,5,NA
fcp-trial,222,1040022,0.0-197.0-0.0,voc_e2,12104,"[{""event"":""fullscreenenter"",""trial"":1,""time"":11749}]",NA,NA,NA,NA,NA,0,#3386FF,#D89F1C,0,0,0,40,0,451.60000002384186,39,0,862.0999999940395,0,1,experiment,NA,NA,1,0.3,0.7,3,2,188,5,NA
fcp-trial,223,1042418,0.0-198.0-0.0,voc_e2,12104,"[{""event"":""fullscreenenter"",""trial"":1,""time"":11749}]",NA,NA,NA,NA,NA,1,#D8271C,#741CD8,10,10,0,40,0,367.7000000178814,37,1,521.6999999880791,10,0,experiment,NA,NA,2,0.5,0.5,5,4,189,5,NA
fcp-trial,224,1044752,0.0-199.0-0.0,voc_e2,12104,"[{""event"":""fullscreenenter"",""trial"":1,""time"":11749}]",NA,NA,NA,NA,NA,4,#D89F1C,#3386FF,0,10,1,40,0,339.09999999403954,37,1,484.89999997615814,0,1,experiment,NA,NA,1,0.7,0.3,2,3,190,5,NA
fcp-trial,225,1047185,0.0-200.0-0.0,voc_e2,12104,"[{""event"":""fullscreenenter"",""trial"":1,""time"":11749}]",NA,NA,NA,NA,NA,2,#D89F1C,#3386FF,0,0,1,40,0,238.80000001192093,37,1,683,0,1,experiment,NA,NA,1,0.7,0.3,2,3,191,5,NA
fcp-trial,226,1049581,0.0-201.0-0.0,voc_e2,12104,"[{""event"":""fullscreenenter"",""trial"":1,""time"":11749}]",NA,NA,NA,NA,NA,1,#741CD8,#D8271C,10,10,1,40,0,346.5,39,0,541.5999999940395,10,0,experiment,NA,NA,2,0.5,0.5,4,5,192,5,NA
fcp-trial,227,1052840,0.0-202.0-0.0,voc_e2,12104,"[{""event"":""fullscreenenter"",""trial"":1,""time"":11749}]",NA,NA,NA,NA,NA,6,#741CD8,#D8271C,0,0,1,40,0,958.6000000238419,39,0,793,0,0,experiment,NA,NA,2,0.5,0.5,4,5,193,5,NA
fcp-trial,228,1056225,0.0-203.0-0.0,voc_e2,12104,"[{""event"":""fullscreenenter"",""trial"":1,""time"":11749}]",NA,NA,NA,NA,NA,3,#1CD855,#FA92F8,10,0,1,40,0,1145.5,39,0,733.0999999940395,0,0,experiment,NA,NA,0,0.9,0.1,0,1,194,5,NA
fcp-trial,229,1059971,0.0-204.0-0.0,voc_e2,12104,"[{""event"":""fullscreenenter"",""trial"":1,""time"":11749}]",NA,NA,NA,NA,NA,1,#3386FF,#D89F1C,0,10,0,40,0,1593.2000000178814,39,0,646.2999999821186,10,1,experiment,NA,NA,1,0.3,0.7,3,2,195,5,NA
fcp-trial,230,1062764,0.0-205.0-0.0,voc_e2,12104,"[{""event"":""fullscreenenter"",""trial"":1,""time"":11749}]",NA,NA,NA,NA,NA,1,#FA92F8,#1CD855,0,10,0,40,0,695.8999999761581,37,1,588.5999999940395,0,0,experiment,NA,NA,0,0.1,0.9,1,0,196,5,NA
fcp-trial,231,1065618,0.0-206.0-0.0,voc_e2,12104,"[{""event"":""fullscreenenter"",""trial"":1,""time"":11749}]",NA,NA,NA,NA,NA,4,#D8271C,#741CD8,10,10,0,40,0,404.5,37,1,941.5999999940395,10,0,experiment,NA,NA,2,0.5,0.5,5,4,197,5,NA
fcp-trial,232,1072786,0.0-207.0-0.0,voc_e2,12104,"[{""event"":""fullscreenenter"",""trial"":1,""time"":11749}]",NA,NA,NA,NA,NA,3,#3386FF,#D89F1C,0,0,0,40,0,3912.7000000178814,39,0,1748.5,0,1,experiment,NA,NA,1,0.3,0.7,3,2,198,5,NA
fcp-trial,233,1087790,0.0-208.0-0.0,voc_e2,12104,"[{""event"":""fullscreenenter"",""trial"":1,""time"":11749}]",NA,NA,NA,NA,NA,0,#D8271C,#741CD8,10,10,0,null,null,null,null,null,null,NA,0,experiment,NA,NA,2,0.5,0.5,5,4,199,5,NA
fcp-trial,234,1092380,0.0-209.0-0.0,voc_e2,12104,"[{""event"":""fullscreenenter"",""trial"":1,""time"":11749}]",NA,NA,NA,NA,NA,5,#1CD855,#FA92F8,10,0,1,40,0,1969.0999999940395,37,1,1115.199999988079,10,1,experiment,NA,NA,0,0.9,0.1,0,1,200,5,NA
fcp-trial,235,1095511,0.0-210.0-0.0,voc_e2,12104,"[{""event"":""fullscreenenter"",""trial"":1,""time"":11749}]",NA,NA,NA,NA,NA,5,#D89F1C,#3386FF,10,0,1,40,0,899.9000000059605,39,0,728.5999999940395,0,0,experiment,NA,NA,1,0.7,0.3,2,3,201,5,NA
fcp-trial,236,1098896,0.0-211.0-0.0,voc_e2,12104,"[{""event"":""fullscreenenter"",""trial"":1,""time"":11749}]",NA,NA,NA,NA,NA,5,#D8271C,#741CD8,0,10,0,40,0,1311,37,1,572.7000000178814,0,0,experiment,NA,NA,2,0.5,0.5,5,4,202,5,NA
fcp-trial,237,1104224,0.0-212.0-0.0,voc_e2,12104,"[{""event"":""fullscreenenter"",""trial"":1,""time"":11749}]",NA,NA,NA,NA,NA,3,#D8271C,#741CD8,0,0,0,40,0,3228.9000000059605,39,0,598.6999999880791,0,1,experiment,NA,NA,2,0.5,0.5,5,4,203,5,NA
fcp-trial,238,1108206,0.0-213.0-0.0,voc_e2,12104,"[{""event"":""fullscreenenter"",""trial"":1,""time"":11749}]",NA,NA,NA,NA,NA,0,#FA92F8,#1CD855,0,10,0,38,1,1965.300000011921,39,0,511,10,1,experiment,NA,NA,0,0.1,0.9,1,0,204,5,NA
fcp-trial,239,1113623,0.0-214.0-0.0,voc_e2,12104,"[{""event"":""fullscreenenter"",""trial"":1,""time"":11749}]",NA,NA,NA,NA,NA,6,#D89F1C,#3386FF,10,10,1,40,0,2137,39,0,1775.2000000178814,10,0,experiment,NA,NA,1,0.7,0.3,2,3,205,5,NA
fcp-trial,240,1117732,0.0-215.0-0.0,voc_e2,12104,"[{""event"":""fullscreenenter"",""trial"":1,""time"":11749}]",NA,NA,NA,NA,NA,0,#D89F1C,#3386FF,10,10,1,40,0,1675.699999988079,37,1,925.6999999880791,10,1,experiment,NA,NA,1,0.7,0.3,2,3,206,5,NA
fcp-trial,241,1121605,0.0-216.0-0.0,voc_e2,12104,"[{""event"":""fullscreenenter"",""trial"":1,""time"":11749}]",NA,NA,NA,NA,NA,4,#1CD855,#FA92F8,10,0,1,40,0,1404.9000000059605,37,1,962.4000000059605,10,1,experiment,NA,NA,0,0.9,0.1,0,1,207,5,NA
fcp-trial,242,1124985,0.0-217.0-0.0,voc_e2,12104,"[{""event"":""fullscreenenter"",""trial"":1,""time"":11749}]",NA,NA,NA,NA,NA,2,#741CD8,#D8271C,0,0,1,40,0,1290.4000000059605,37,1,581.8000000119209,0,1,experiment,NA,NA,2,0.5,0.5,4,5,208,5,NA
fcp-trial,243,1130263,0.0-218.0-0.0,voc_e2,12104,"[{""event"":""fullscreenenter"",""trial"":1,""time"":11749}]",NA,NA,NA,NA,NA,2,#1CD855,#FA92F8,10,0,1,40,0,2400.7000000178814,39,0,1375.2999999821186,0,0,experiment,NA,NA,0,0.9,0.1,0,1,209,5,NA
fcp-trial,244,1135013,0.0-219.0-0.0,voc_e2,12104,"[{""event"":""fullscreenenter"",""trial"":1,""time"":11749}]",NA,NA,NA,NA,NA,6,#FA92F8,#1CD855,0,10,0,40,0,2719.800000011921,39,0,524,10,1,experiment,NA,NA,0,0.1,0.9,1,0,210,5,NA
audio-instructions,245,1140884,0.0-220.0,voc_e2,12104,"[{""event"":""fullscreenenter"",""trial"":1,""time"":11749}]",NA,1272,static/audio/pause.wav,NA,0,NA,NA,NA,NA,NA,NA,NA,NA,NA,NA,NA,NA,NA,NA,NA,NA,NA,NA,NA,NA,NA,NA,NA,NA,NA
fcp-trial,246,1145875,0.0-221.0-0.0,voc_e2,12104,"[{""event"":""fullscreenenter"",""trial"":1,""time"":11749}]",NA,NA,NA,NA,NA,4,#1CD855,#FA92F8,10,0,1,40,0,2313,39,0,1169,0,0,experiment,NA,NA,0,0.9,0.1,0,1,211,5,NA
fcp-trial,247,1148915,0.0-222.0-0.0,voc_e2,12104,"[{""event"":""fullscreenenter"",""trial"":1,""time"":11749}]",NA,NA,NA,NA,NA,6,#3386FF,#D89F1C,0,0,0,40,0,847.8000000119209,37,1,684.9000000059605,0,0,experiment,NA,NA,1,0.3,0.7,3,2,212,5,NA
fcp-trial,248,1152188,0.0-223.0-0.0,voc_e2,12104,"[{""event"":""fullscreenenter"",""trial"":1,""time"":11749}]",NA,NA,NA,NA,NA,6,#1CD855,#FA92F8,10,0,1,40,0,1206.5999999940395,39,0,559,0,0,experiment,NA,NA,0,0.9,0.1,0,1,213,5,NA
fcp-trial,249,1155485,0.0-224.0-0.0,voc_e2,12104,"[{""event"":""fullscreenenter"",""trial"":1,""time"":11749}]",NA,NA,NA,NA,NA,5,#741CD8,#D8271C,10,10,1,40,0,1273.4000000059605,37,1,515.4000000059605,10,1,experiment,NA,NA,2,0.5,0.5,4,5,214,5,NA
fcp-trial,250,1159812,0.0-225.0-0.0,voc_e2,12104,"[{""event"":""fullscreenenter"",""trial"":1,""time"":11749}]",NA,NA,NA,NA,NA,0,#D89F1C,#3386FF,10,10,1,38,1,2167.800000011921,39,0,654.2000000178814,10,0,experiment,NA,NA,1,0.7,0.3,2,3,215,5,NA
fcp-trial,251,1163926,0.0-226.0-0.0,voc_e2,12104,"[{""event"":""fullscreenenter"",""trial"":1,""time"":11749}]",NA,NA,NA,NA,NA,1,#D8271C,#741CD8,10,0,0,40,0,1820.9000000059605,39,0,786.9000000059605,0,1,experiment,NA,NA,2,0.5,0.5,5,4,216,5,NA
fcp-trial,252,1167472,0.0-227.0-0.0,voc_e2,12104,"[{""event"":""fullscreenenter"",""trial"":1,""time"":11749}]",NA,NA,NA,NA,NA,4,#D8271C,#741CD8,0,0,0,40,0,1382.300000011921,37,1,656.0999999940395,0,0,experiment,NA,NA,2,0.5,0.5,5,4,217,5,NA
fcp-trial,253,1171571,0.0-228.0-0.0,voc_e2,12104,"[{""event"":""fullscreenenter"",""trial"":1,""time"":11749}]",NA,NA,NA,NA,NA,0,#FA92F8,#1CD855,0,10,0,38,1,2240.4000000059605,39,0,352.69999998807907,10,1,experiment,NA,NA,0,0.1,0.9,1,0,218,5,NA
fcp-trial,254,1179350,0.0-229.0-0.0,voc_e2,12104,"[{""event"":""fullscreenenter"",""trial"":1,""time"":11749}]",NA,NA,NA,NA,NA,4,#3386FF,#D89F1C,0,10,0,40,0,4416.4000000059605,39,0,1856.199999988079,10,1,experiment,NA,NA,1,0.3,0.7,3,2,219,5,NA
fcp-trial,255,1185326,0.0-230.0-0.0,voc_e2,12104,"[{""event"":""fullscreenenter"",""trial"":1,""time"":11749}]",NA,NA,NA,NA,NA,1,#D89F1C,#3386FF,10,0,1,40,0,3885.600000023842,37,1,582.8000000119209,10,1,experiment,NA,NA,1,0.7,0.3,2,3,220,5,NA
fcp-trial,256,1191808,0.0-231.0-0.0,voc_e2,12104,"[{""event"":""fullscreenenter"",""trial"":1,""time"":11749}]",NA,NA,NA,NA,NA,5,#1CD855,#FA92F8,10,0,1,40,0,4360.699999988079,39,0,614.7999999821186,0,0,experiment,NA,NA,0,0.9,0.1,0,1,221,5,NA
fcp-trial,257,1200076,0.0-232.0-0.0,voc_e2,12104,"[{""event"":""fullscreenenter"",""trial"":1,""time"":11749}]",NA,NA,NA,NA,NA,3,#D8271C,#741CD8,0,0,0,40,0,6141.0999999940395,39,0,619.0999999940395,0,1,experiment,NA,NA,2,0.5,0.5,5,4,222,5,NA
fcp-trial,258,1202839,0.0-233.0-0.0,voc_e2,12104,"[{""event"":""fullscreenenter"",""trial"":1,""time"":11749}]",NA,NA,NA,NA,NA,0,#D8271C,#741CD8,0,0,0,40,0,765.7999999821186,39,0,490.5,0,1,experiment,NA,NA,2,0.5,0.5,5,4,223,5,NA
fcp-trial,259,1206303,0.0-234.0-0.0,voc_e2,12104,"[{""event"":""fullscreenenter"",""trial"":1,""time"":11749}]",NA,NA,NA,NA,NA,3,#FA92F8,#1CD855,0,10,0,40,0,1238.199999988079,39,0,717.5,10,1,experiment,NA,NA,0,0.1,0.9,1,0,224,5,NA
fcp-trial,260,1209612,0.0-235.0-0.0,voc_e2,12104,"[{""event"":""fullscreenenter"",""trial"":1,""time"":11749}]",NA,NA,NA,NA,NA,5,#D89F1C,#3386FF,10,0,1,40,0,1278.5,39,0,523.5,0,0,experiment,NA,NA,1,0.7,0.3,2,3,225,5,NA
fcp-trial,261,1212504,0.0-236.0-0.0,voc_e2,12104,"[{""event"":""fullscreenenter"",""trial"":1,""time"":11749}]",NA,NA,NA,NA,NA,2,#D89F1C,#3386FF,10,10,1,40,0,686.7000000178814,37,1,698.2999999821186,10,1,experiment,NA,NA,1,0.7,0.3,2,3,226,6,NA
fcp-trial,262,1217473,0.0-237.0-0.0,voc_e2,12104,"[{""event"":""fullscreenenter"",""trial"":1,""time"":11749}]",NA,NA,NA,NA,NA,2,#1CD855,#FA92F8,10,0,1,40,0,3163.899999976158,39,0,299.30000001192093,0,0,experiment,NA,NA,0,0.9,0.1,0,1,227,6,NA
fcp-trial,263,1222030,0.0-238.0-0.0,voc_e2,12104,"[{""event"":""fullscreenenter"",""trial"":1,""time"":11749}]",NA,NA,NA,NA,NA,2,#741CD8,#D8271C,10,10,1,40,0,761.8000000119209,39,0,2288.5999999940395,10,0,experiment,NA,NA,2,0.5,0.5,4,5,228,6,NA
fcp-trial,264,1227169,0.0-239.0-0.0,voc_e2,12104,"[{""event"":""fullscreenenter"",""trial"":1,""time"":11749}]",NA,NA,NA,NA,NA,6,#741CD8,#D8271C,0,0,1,40,0,923,39,0,2709.4000000059605,0,0,experiment,NA,NA,2,0.5,0.5,4,5,229,6,NA
fcp-trial,265,1233200,0.0-240.0-0.0,voc_e2,12104,"[{""event"":""fullscreenenter"",""trial"":1,""time"":11749}]",NA,NA,NA,NA,NA,1,#FA92F8,#1CD855,0,10,0,40,0,1573.0999999940395,39,0,2951.7999999821186,10,1,experiment,NA,NA,0,0.1,0.9,1,0,230,6,NA
fcp-trial,266,1236297,0.0-241.0-0.0,voc_e2,12104,"[{""event"":""fullscreenenter"",""trial"":1,""time"":11749}]",NA,NA,NA,NA,NA,3,#D89F1C,#3386FF,10,10,1,40,0,1192.7000000178814,39,0,395.09999999403954,10,0,experiment,NA,NA,1,0.7,0.3,2,3,231,6,NA
fcp-trial,267,1239674,0.0-242.0-0.0,voc_e2,12104,"[{""event"":""fullscreenenter"",""trial"":1,""time"":11749}]",NA,NA,NA,NA,NA,6,#FA92F8,#1CD855,0,10,0,40,0,801.3000000119209,37,1,1068,0,0,experiment,NA,NA,0,0.1,0.9,1,0,232,6,NA
fcp-trial,268,1242723,0.0-243.0-0.0,voc_e2,12104,"[{""event"":""fullscreenenter"",""trial"":1,""time"":11749}]",NA,NA,NA,NA,NA,4,#741CD8,#D8271C,0,10,1,40,0,1173.5,39,0,369.30000001192093,10,0,experiment,NA,NA,2,0.5,0.5,4,5,233,6,NA
fcp-trial,269,1245708,0.0-244.0-0.0,voc_e2,12104,"[{""event"":""fullscreenenter"",""trial"":1,""time"":11749}]",NA,NA,NA,NA,NA,5,#FA92F8,#1CD855,10,0,0,40,0,681.4000000059605,39,0,798.7000000178814,0,1,experiment,NA,NA,0,0.1,0.9,1,0,234,6,NA
fcp-trial,270,1249245,0.0-245.0-0.0,voc_e2,12104,"[{""event"":""fullscreenenter"",""trial"":1,""time"":11749}]",NA,NA,NA,NA,NA,2,#D8271C,#741CD8,0,10,0,40,0,1478,37,1,550.1999999880791,0,0,experiment,NA,NA,2,0.5,0.5,5,4,235,6,NA
fcp-trial,271,1257976,0.0-246.0-0.0,voc_e2,12104,"[{""event"":""fullscreenenter"",""trial"":1,""time"":11749}]",NA,NA,NA,NA,NA,4,#D89F1C,#3386FF,10,10,1,40,0,1824,37,1,5399,10,1,experiment,NA,NA,1,0.7,0.3,2,3,236,6,NA
fcp-trial,272,1261940,0.0-247.0-0.0,voc_e2,12104,"[{""event"":""fullscreenenter"",""trial"":1,""time"":11749}]",NA,NA,NA,NA,NA,1,#741CD8,#D8271C,0,0,1,38,1,1942,39,0,515.1999999880791,0,0,experiment,NA,NA,2,0.5,0.5,4,5,237,6,NA
fcp-trial,273,1265227,0.0-248.0-0.0,voc_e2,12104,"[{""event"":""fullscreenenter"",""trial"":1,""time"":11749}]",NA,NA,NA,NA,NA,5,#3386FF,#D89F1C,0,10,0,40,0,978.2000000178814,37,1,802.6999999880791,0,0,experiment,NA,NA,1,0.3,0.7,3,2,238,6,NA
fcp-trial,274,1268176,0.0-249.0-0.0,voc_e2,12104,"[{""event"":""fullscreenenter"",""trial"":1,""time"":11749}]",NA,NA,NA,NA,NA,1,#FA92F8,#1CD855,0,10,0,40,0,922.6999999880791,39,0,518.5,10,1,experiment,NA,NA,0,0.1,0.9,1,0,239,6,NA
fcp-trial,275,1271086,0.0-250.0-0.0,voc_e2,12104,"[{""event"":""fullscreenenter"",""trial"":1,""time"":11749}]",NA,NA,NA,NA,NA,3,#D8271C,#741CD8,10,10,0,40,0,804.5999999940395,39,0,600.5,10,1,experiment,NA,NA,2,0.5,0.5,5,4,240,6,NA
fcp-trial,276,1274210,0.0-251.0-0.0,voc_e2,12104,"[{""event"":""fullscreenenter"",""trial"":1,""time"":11749}]",NA,NA,NA,NA,NA,2,#1CD855,#FA92F8,10,0,1,40,0,908,37,1,706.3000000119209,10,1,experiment,NA,NA,0,0.9,0.1,0,1,241,6,NA
fcp-trial,277,1276986,0.0-252.0-0.0,voc_e2,12104,"[{""event"":""fullscreenenter"",""trial"":1,""time"":11749}]",NA,NA,NA,NA,NA,1,#3386FF,#D89F1C,0,0,0,40,0,620,39,0,650.5999999940395,0,1,experiment,NA,NA,1,0.3,0.7,3,2,242,6,NA
fcp-trial,278,1280546,0.0-253.0-0.0,voc_e2,12104,"[{""event"":""fullscreenenter"",""trial"":1,""time"":11749}]",NA,NA,NA,NA,NA,4,#1CD855,#FA92F8,10,0,1,40,0,1451.5,39,0,603.4000000059605,0,0,experiment,NA,NA,0,0.9,0.1,0,1,243,6,NA
fcp-trial,279,1283259,0.0-254.0-0.0,voc_e2,12104,"[{""event"":""fullscreenenter"",""trial"":1,""time"":11749}]",NA,NA,NA,NA,NA,2,#D89F1C,#3386FF,10,0,1,40,0,694.4000000059605,37,1,509.09999999403954,10,1,experiment,NA,NA,1,0.7,0.3,2,3,244,6,NA
fcp-trial,280,1294048,0.0-255.0-0.0,voc_e2,12104,"[{""event"":""fullscreenenter"",""trial"":1,""time"":11749}]",NA,NA,NA,NA,NA,5,#D8271C,#741CD8,10,0,0,40,0,8856.300000011921,39,0,425.90000000596046,0,1,experiment,NA,NA,2,0.5,0.5,5,4,245,6,NA
fcp-trial,281,1298619,0.0-256.0-0.0,voc_e2,12104,"[{""event"":""fullscreenenter"",""trial"":1,""time"":11749}]",NA,NA,NA,NA,NA,0,#1CD855,#FA92F8,10,0,1,38,1,2282.7000000178814,37,1,779.5,10,1,experiment,NA,NA,0,0.9,0.1,0,1,246,6,NA
fcp-trial,282,1304304,0.0-257.0-0.0,voc_e2,12104,"[{""event"":""fullscreenenter"",""trial"":1,""time"":11749}]",NA,NA,NA,NA,NA,0,#D89F1C,#3386FF,10,0,1,38,1,3748.0999999940395,39,0,430.90000000596046,0,0,experiment,NA,NA,1,0.7,0.3,2,3,247,6,NA
fcp-trial,283,1308230,0.0-258.0-0.0,voc_e2,12104,"[{""event"":""fullscreenenter"",""trial"":1,""time"":11749}]",NA,NA,NA,NA,NA,3,#D89F1C,#3386FF,10,0,1,40,0,1749.699999988079,37,1,670.0999999940395,10,1,experiment,NA,NA,1,0.7,0.3,2,3,248,6,NA
fcp-trial,284,1312139,0.0-259.0-0.0,voc_e2,12104,"[{""event"":""fullscreenenter"",""trial"":1,""time"":11749}]",NA,NA,NA,NA,NA,6,#741CD8,#D8271C,0,10,1,40,0,1776.0999999940395,37,1,620.5999999940395,0,1,experiment,NA,NA,2,0.5,0.5,4,5,249,6,NA
fcp-trial,285,1315893,0.0-260.0-0.0,voc_e2,12104,"[{""event"":""fullscreenenter"",""trial"":1,""time"":11749}]",NA,NA,NA,NA,NA,6,#3386FF,#D89F1C,0,0,0,40,0,1645,37,1,601.5,0,0,experiment,NA,NA,1,0.3,0.7,3,2,250,6,NA
fcp-trial,286,1319455,0.0-261.0-0.0,voc_e2,12104,"[{""event"":""fullscreenenter"",""trial"":1,""time"":11749}]",NA,NA,NA,NA,NA,3,#FA92F8,#1CD855,0,10,0,40,0,1093.4000000059605,37,1,962.3000000119209,0,0,experiment,NA,NA,0,0.1,0.9,1,0,251,6,NA
fcp-trial,287,1322588,0.0-262.0-0.0,voc_e2,12104,"[{""event"":""fullscreenenter"",""trial"":1,""time"":11749}]",NA,NA,NA,NA,NA,0,#D8271C,#741CD8,10,0,0,40,0,751.2000000178814,37,1,875.9000000059605,10,0,experiment,NA,NA,2,0.5,0.5,5,4,252,6,NA
fcp-trial,288,1325536,0.0-263.0-0.0,voc_e2,12104,"[{""event"":""fullscreenenter"",""trial"":1,""time"":11749}]",NA,NA,NA,NA,NA,5,#D89F1C,#3386FF,10,0,1,40,0,829.0999999940395,37,1,613.9000000059605,10,1,experiment,NA,NA,1,0.7,0.3,2,3,253,6,NA
fcp-trial,289,1328882,0.0-264.0-0.0,voc_e2,12104,"[{""event"":""fullscreenenter"",""trial"":1,""time"":11749}]",NA,NA,NA,NA,NA,6,#FA92F8,#1CD855,0,10,0,40,0,1333,39,0,506.5,10,1,experiment,NA,NA,0,0.1,0.9,1,0,254,6,NA
fcp-trial,290,1331620,0.0-265.0-0.0,voc_e2,12104,"[{""event"":""fullscreenenter"",""trial"":1,""time"":11749}]",NA,NA,NA,NA,NA,3,#1CD855,#FA92F8,10,0,1,40,0,683.0999999940395,39,0,547.5999999940395,0,0,experiment,NA,NA,0,0.9,0.1,0,1,255,6,NA
fcp-trial,291,1338143,0.0-266.0-0.0,voc_e2,12104,"[{""event"":""fullscreenenter"",""trial"":1,""time"":11749}]",NA,NA,NA,NA,NA,4,#1CD855,#FA92F8,10,0,1,40,0,906.1999999880791,39,0,4109.199999988079,0,0,experiment,NA,NA,0,0.9,0.1,0,1,256,6,NA
fcp-trial,292,1341573,0.0-267.0-0.0,voc_e2,12104,"[{""event"":""fullscreenenter"",""trial"":1,""time"":11749}]",NA,NA,NA,NA,NA,5,#D8271C,#741CD8,10,10,0,40,0,1246.199999988079,37,1,676.1999999880791,10,0,experiment,NA,NA,2,0.5,0.5,5,4,257,6,NA
fcp-trial,293,1344407,0.0-268.0-0.0,voc_e2,12104,"[{""event"":""fullscreenenter"",""trial"":1,""time"":11749}]",NA,NA,NA,NA,NA,3,#3386FF,#D89F1C,10,0,0,40,0,750.7999999821186,37,1,575.5999999940395,10,0,experiment,NA,NA,1,0.3,0.7,3,2,258,6,NA
fcp-trial,294,1347842,0.0-269.0-0.0,voc_e2,12104,"[{""event"":""fullscreenenter"",""trial"":1,""time"":11749}]",NA,NA,NA,NA,NA,4,#3386FF,#D89F1C,0,10,0,38,1,1428.2999999821186,37,1,500.19999998807907,0,0,experiment,NA,NA,1,0.3,0.7,3,2,259,6,NA
fcp-trial,295,1350970,0.0-270.0-0.0,voc_e2,12104,"[{""event"":""fullscreenenter"",""trial"":1,""time"":11749}]",NA,NA,NA,NA,NA,1,#741CD8,#D8271C,0,0,1,40,0,1020.8999999761581,39,0,602.2999999821186,0,0,experiment,NA,NA,2,0.5,0.5,4,5,260,6,NA
fcp-trial,296,1354309,0.0-271.0-0.0,voc_e2,12104,"[{""event"":""fullscreenenter"",""trial"":1,""time"":11749}]",NA,NA,NA,NA,NA,1,#FA92F8,#1CD855,0,10,0,40,0,1177.300000011921,37,1,654.2000000178814,0,0,experiment,NA,NA,0,0.1,0.9,1,0,261,6,NA
fcp-trial,297,1357138,0.0-272.0-0.0,voc_e2,12104,"[{""event"":""fullscreenenter"",""trial"":1,""time"":11749}]",NA,NA,NA,NA,NA,5,#FA92F8,#1CD855,0,10,0,40,0,774.9000000059605,37,1,547.1999999880791,0,0,experiment,NA,NA,0,0.1,0.9,1,0,262,6,NA
fcp-trial,298,1364367,0.0-273.0-0.0,voc_e2,12104,"[{""event"":""fullscreenenter"",""trial"":1,""time"":11749}]",NA,NA,NA,NA,NA,4,#D8271C,#741CD8,10,10,0,40,0,5160.5999999940395,37,1,559,10,0,experiment,NA,NA,2,0.5,0.5,5,4,263,6,NA
fcp-trial,299,1368226,0.0-274.0-0.0,voc_e2,12104,"[{""event"":""fullscreenenter"",""trial"":1,""time"":11749}]",NA,NA,NA,NA,NA,6,#D89F1C,#3386FF,10,0,1,40,0,1352,37,1,998.6999999880791,10,1,experiment,NA,NA,1,0.7,0.3,2,3,264,6,NA
fcp-trial,300,1371096,0.0-275.0-0.0,voc_e2,12104,"[{""event"":""fullscreenenter"",""trial"":1,""time"":11749}]",NA,NA,NA,NA,NA,0,#FA92F8,#1CD855,0,10,0,40,0,492.7000000178814,37,1,869.7000000178814,0,0,experiment,NA,NA,0,0.1,0.9,1,0,265,6,NA
fcp-trial,301,1373710,0.0-276.0-0.0,voc_e2,12104,"[{""event"":""fullscreenenter"",""trial"":1,""time"":11749}]",NA,NA,NA,NA,NA,3,#D8271C,#741CD8,0,10,0,40,0,369.40000000596046,39,0,736,10,1,experiment,NA,NA,2,0.5,0.5,5,4,266,6,NA
fcp-trial,302,1376382,0.0-277.0-0.0,voc_e2,12104,"[{""event"":""fullscreenenter"",""trial"":1,""time"":11749}]",NA,NA,NA,NA,NA,0,#D89F1C,#3386FF,10,10,1,40,0,547.4000000059605,37,1,619.3000000119209,10,1,experiment,NA,NA,1,0.7,0.3,2,3,267,6,NA
fcp-trial,303,1379044,0.0-278.0-0.0,voc_e2,12104,"[{""event"":""fullscreenenter"",""trial"":1,""time"":11749}]",NA,NA,NA,NA,NA,0,#D8271C,#741CD8,0,0,0,40,0,579.5,37,1,574.5999999940395,0,0,experiment,NA,NA,2,0.5,0.5,5,4,268,6,NA
fcp-trial,304,1381529,0.0-279.0-0.0,voc_e2,12104,"[{""event"":""fullscreenenter"",""trial"":1,""time"":11749}]",NA,NA,NA,NA,NA,2,#FA92F8,#1CD855,0,10,0,40,0,405.19999998807907,37,1,573.6999999880791,0,0,experiment,NA,NA,0,0.1,0.9,1,0,269,6,NA
fcp-trial,305,1385220,0.0-280.0-0.0,voc_e2,12104,"[{""event"":""fullscreenenter"",""trial"":1,""time"":11749}]",NA,NA,NA,NA,NA,2,#D8271C,#741CD8,0,0,0,40,0,907.8999999761581,37,1,1274.4000000059605,0,0,experiment,NA,NA,2,0.5,0.5,5,4,270,6,NA
fcp-trial,306,1388192,0.0-281.0-0.0,voc_e2,12104,"[{""event"":""fullscreenenter"",""trial"":1,""time"":11749}]",NA,NA,NA,NA,NA,6,#741CD8,#D8271C,10,0,1,40,0,943.9000000059605,39,0,521.4000000059605,0,0,experiment,NA,NA,2,0.5,0.5,4,5,271,7,NA
fcp-trial,307,1394373,0.0-282.0-0.0,voc_e2,12104,"[{""event"":""fullscreenenter"",""trial"":1,""time"":11749}]",NA,NA,NA,NA,NA,1,#D89F1C,#3386FF,10,0,1,40,0,4125.200000017881,39,0,548.1999999880791,0,0,experiment,NA,NA,1,0.7,0.3,2,3,272,7,NA
fcp-trial,308,1397359,0.0-283.0-0.0,voc_e2,12104,"[{""event"":""fullscreenenter"",""trial"":1,""time"":11749}]",NA,NA,NA,NA,NA,2,#D89F1C,#3386FF,10,10,1,40,0,892.4000000059605,39,0,586.7000000178814,10,0,experiment,NA,NA,1,0.7,0.3,2,3,273,7,NA
fcp-trial,309,1400478,0.0-284.0-0.0,voc_e2,12104,"[{""event"":""fullscreenenter"",""trial"":1,""time"":11749}]",NA,NA,NA,NA,NA,4,#1CD855,#FA92F8,10,0,1,40,0,803.6999999880791,39,0,809.3999999761581,0,0,experiment,NA,NA,0,0.9,0.1,0,1,274,7,NA
fcp-trial,310,1402935,0.0-285.0-0.0,voc_e2,12104,"[{""event"":""fullscreenenter"",""trial"":1,""time"":11749}]",NA,NA,NA,NA,NA,6,#D8271C,#741CD8,10,10,0,40,0,372.19999998807907,37,1,578.7000000178814,10,0,experiment,NA,NA,2,0.5,0.5,5,4,275,7,NA
fcp-trial,311,1405921,0.0-286.0-0.0,voc_e2,12104,"[{""event"":""fullscreenenter"",""trial"":1,""time"":11749}]",NA,NA,NA,NA,NA,1,#D89F1C,#3386FF,0,10,1,40,0,879.4000000059605,37,1,599.4000000059605,0,1,experiment,NA,NA,1,0.7,0.3,2,3,276,7,NA
fcp-trial,312,1408914,0.0-287.0-0.0,voc_e2,12104,"[{""event"":""fullscreenenter"",""trial"":1,""time"":11749}]",NA,NA,NA,NA,NA,3,#3386FF,#D89F1C,10,10,0,40,0,854.3000000119209,37,1,630,10,0,experiment,NA,NA,1,0.3,0.7,3,2,277,7,NA
fcp-trial,313,1412032,0.0-288.0-0.0,voc_e2,12104,"[{""event"":""fullscreenenter"",""trial"":1,""time"":11749}]",NA,NA,NA,NA,NA,1,#1CD855,#FA92F8,10,0,1,40,0,1066.300000011921,37,1,542,10,1,experiment,NA,NA,0,0.9,0.1,0,1,278,7,NA
fcp-trial,314,1414529,0.0-289.0-0.0,voc_e2,12104,"[{""event"":""fullscreenenter"",""trial"":1,""time"":11749}]",NA,NA,NA,NA,NA,2,#D89F1C,#3386FF,10,0,1,40,0,408,39,0,579,0,0,experiment,NA,NA,1,0.7,0.3,2,3,279,7,NA
fcp-trial,315,1416709,0.0-290.0-0.0,voc_e2,12104,"[{""event"":""fullscreenenter"",""trial"":1,""time"":11749}]",NA,NA,NA,NA,NA,5,#D8271C,#741CD8,0,10,0,40,0,133.90000000596046,37,1,538.9000000059605,0,0,experiment,NA,NA,2,0.5,0.5,5,4,280,7,NA
fcp-trial,316,1419138,0.0-291.0-0.0,voc_e2,12104,"[{""event"":""fullscreenenter"",""trial"":1,""time"":11749}]",NA,NA,NA,NA,NA,4,#741CD8,#D8271C,0,0,1,40,0,259.19999998807907,37,1,662.7999999821186,0,1,experiment,NA,NA,2,0.5,0.5,4,5,281,7,NA
fcp-trial,317,1421697,0.0-292.0-0.0,voc_e2,12104,"[{""event"":""fullscreenenter"",""trial"":1,""time"":11749}]",NA,NA,NA,NA,NA,3,#741CD8,#D8271C,0,10,1,40,0,441.09999999403954,39,0,612.9000000059605,10,0,experiment,NA,NA,2,0.5,0.5,4,5,282,7,NA
fcp-trial,318,1424251,0.0-293.0-0.0,voc_e2,12104,"[{""event"":""fullscreenenter"",""trial"":1,""time"":11749}]",NA,NA,NA,NA,NA,6,#1CD855,#FA92F8,10,0,1,40,0,399.69999998807907,39,0,646.5,0,0,experiment,NA,NA,0,0.9,0.1,0,1,283,7,NA
fcp-trial,319,1427271,0.0-294.0-0.0,voc_e2,12104,"[{""event"":""fullscreenenter"",""trial"":1,""time"":11749}]",NA,NA,NA,NA,NA,4,#D89F1C,#3386FF,0,0,1,40,0,999.0999999940395,39,0,513.0999999940395,0,0,experiment,NA,NA,1,0.7,0.3,2,3,284,7,NA
fcp-trial,320,1430816,0.0-295.0-0.0,voc_e2,12104,"[{""event"":""fullscreenenter"",""trial"":1,""time"":11749}]",NA,NA,NA,NA,NA,6,#D89F1C,#3386FF,0,0,1,40,0,1382.5,39,0,655.8000000119209,0,0,experiment,NA,NA,1,0.7,0.3,2,3,285,7,NA
fcp-trial,321,1435737,0.0-296.0-0.0,voc_e2,12104,"[{""event"":""fullscreenenter"",""trial"":1,""time"":11749}]",NA,NA,NA,NA,NA,5,#1CD855,#FA92F8,10,0,1,40,0,2154.199999988079,39,0,1257.9000000059605,0,0,experiment,NA,NA,0,0.9,0.1,0,1,286,7,NA
fcp-trial,322,1438720,0.0-297.0-0.0,voc_e2,12104,"[{""event"":""fullscreenenter"",""trial"":1,""time"":11749}]",NA,NA,NA,NA,NA,1,#741CD8,#D8271C,10,0,1,40,0,195.69999998807907,37,1,1282.0999999940395,10,1,experiment,NA,NA,2,0.5,0.5,4,5,287,7,NA
fcp-trial,323,1441111,0.0-298.0-0.0,voc_e2,12104,"[{""event"":""fullscreenenter"",""trial"":1,""time"":11749}]",NA,NA,NA,NA,NA,0,#D89F1C,#3386FF,10,10,1,40,0,163.40000000596046,37,1,719.8000000119209,10,1,experiment,NA,NA,1,0.7,0.3,2,3,288,7,NA
fcp-trial,324,1443395,0.0-299.0-0.0,voc_e2,12104,"[{""event"":""fullscreenenter"",""trial"":1,""time"":11749}]",NA,NA,NA,NA,NA,0,#741CD8,#D8271C,10,10,1,40,0,21,39,0,757.0999999940395,10,0,experiment,NA,NA,2,0.5,0.5,4,5,289,7,NA
fcp-trial,325,1448787,0.0-300.0-0.0,voc_e2,12104,"[{""event"":""fullscreenenter"",""trial"":1,""time"":11749}]",NA,NA,NA,NA,NA,3,#1CD855,#FA92F8,10,0,1,40,0,2726,39,0,1157.1000000238419,0,0,experiment,NA,NA,0,0.9,0.1,0,1,290,7,NA
fcp-trial,326,1453654,0.0-301.0-0.0,voc_e2,12104,"[{""event"":""fullscreenenter"",""trial"":1,""time"":11749}]",NA,NA,NA,NA,NA,5,#3386FF,#D89F1C,0,10,0,40,0,2455.600000023842,37,1,902.5,0,0,experiment,NA,NA,1,0.3,0.7,3,2,291,7,NA
fcp-trial,327,1457140,0.0-302.0-0.0,voc_e2,12104,"[{""event"":""fullscreenenter"",""trial"":1,""time"":11749}]",NA,NA,NA,NA,NA,0,#1CD855,#FA92F8,10,0,1,40,0,637.4000000059605,39,0,1340.4000000059605,0,0,experiment,NA,NA,0,0.9,0.1,0,1,292,7,NA
fcp-trial,328,1460076,0.0-303.0-0.0,voc_e2,12104,"[{""event"":""fullscreenenter"",""trial"":1,""time"":11749}]",NA,NA,NA,NA,NA,2,#1CD855,#FA92F8,10,10,1,40,0,298.90000000596046,37,1,1128.3999999761581,10,1,experiment,NA,NA,0,0.9,0.1,0,1,293,7,NA
fcp-trial,329,1464387,0.0-304.0-0.0,voc_e2,12104,"[{""event"":""fullscreenenter"",""trial"":1,""time"":11749}]",NA,NA,NA,NA,NA,2,#D8271C,#741CD8,10,10,0,40,0,2148.5,39,0,653.4000000059605,10,1,experiment,NA,NA,2,0.5,0.5,5,4,294,7,NA
fcp-trial,330,1468522,0.0-305.0-0.0,voc_e2,12104,"[{""event"":""fullscreenenter"",""trial"":1,""time"":11749}]",NA,NA,NA,NA,NA,4,#D8271C,#741CD8,0,10,0,40,0,1816.0999999940395,39,0,811.3000000119209,10,1,experiment,NA,NA,2,0.5,0.5,5,4,295,7,NA
fcp-trial,331,1472664,0.0-306.0-0.0,voc_e2,12104,"[{""event"":""fullscreenenter"",""trial"":1,""time"":11749}]",NA,NA,NA,NA,NA,4,#FA92F8,#1CD855,0,10,0,40,0,1610.5,37,1,1026.4000000059605,0,0,experiment,NA,NA,0,0.1,0.9,1,0,296,7,NA
fcp-trial,332,1475432,0.0-307.0-0.0,voc_e2,12104,"[{""event"":""fullscreenenter"",""trial"":1,""time"":11749}]",NA,NA,NA,NA,NA,5,#741CD8,#D8271C,0,10,1,40,0,830.0999999940395,37,1,432.5,0,1,experiment,NA,NA,2,0.5,0.5,4,5,297,7,NA
fcp-trial,333,1479168,0.0-308.0-0.0,voc_e2,12104,"[{""event"":""fullscreenenter"",""trial"":1,""time"":11749}]",NA,NA,NA,NA,NA,1,#D89F1C,#3386FF,10,10,1,38,1,1340.199999988079,39,0,888.3000000119209,10,0,experiment,NA,NA,1,0.7,0.3,2,3,298,7,NA
fcp-trial,334,1485045,0.0-309.0-0.0,voc_e2,12104,"[{""event"":""fullscreenenter"",""trial"":1,""time"":11749}]",NA,NA,NA,NA,NA,2,#741CD8,#D8271C,10,10,1,38,1,3618.300000011921,37,1,752.3000000119209,10,1,experiment,NA,NA,2,0.5,0.5,4,5,299,7,NA
fcp-trial,335,1488174,0.0-310.0-0.0,voc_e2,12104,"[{""event"":""fullscreenenter"",""trial"":1,""time"":11749}]",NA,NA,NA,NA,NA,6,#1CD855,#FA92F8,10,0,1,40,0,1027.8999999761581,37,1,591.3000000119209,10,1,experiment,NA,NA,0,0.9,0.1,0,1,300,7,NA
fcp-trial,336,1493426,0.0-311.0-0.0,voc_e2,12104,"[{""event"":""fullscreenenter"",""trial"":1,""time"":11749}]",NA,NA,NA,NA,NA,1,#741CD8,#D8271C,0,0,1,38,1,3191.4000000059605,37,1,552.3000000119209,0,1,experiment,NA,NA,2,0.5,0.5,4,5,301,7,NA
fcp-trial,337,1496159,0.0-312.0-0.0,voc_e2,12104,"[{""event"":""fullscreenenter"",""trial"":1,""time"":11749}]",NA,NA,NA,NA,NA,3,#FA92F8,#1CD855,0,10,0,38,1,592.6999999880791,39,0,632.3999999761581,10,1,experiment,NA,NA,0,0.1,0.9,1,0,302,7,NA
fcp-trial,338,1499009,0.0-313.0-0.0,voc_e2,12104,"[{""event"":""fullscreenenter"",""trial"":1,""time"":11749}]",NA,NA,NA,NA,NA,4,#D89F1C,#3386FF,10,0,1,40,0,830.3000000119209,39,0,512.4000000059605,0,0,experiment,NA,NA,1,0.7,0.3,2,3,303,7,NA
fcp-trial,339,1502091,0.0-314.0-0.0,voc_e2,12104,"[{""event"":""fullscreenenter"",""trial"":1,""time"":11749}]",NA,NA,NA,NA,NA,1,#FA92F8,#1CD855,0,0,0,38,1,1122,39,0,451.2999999821186,0,1,experiment,NA,NA,0,0.1,0.9,1,0,304,7,NA
fcp-trial,340,1505470,0.0-315.0-0.0,voc_e2,12104,"[{""event"":""fullscreenenter"",""trial"":1,""time"":11749}]",NA,NA,NA,NA,NA,2,#3386FF,#D89F1C,0,10,0,40,0,1507.0999999940395,39,0,365.80000001192093,10,1,experiment,NA,NA,1,0.3,0.7,3,2,305,7,NA
fcp-trial,341,1510790,0.0-316.0-0.0,voc_e2,12104,"[{""event"":""fullscreenenter"",""trial"":1,""time"":11749}]",NA,NA,NA,NA,NA,0,#741CD8,#D8271C,0,0,1,40,0,694,37,1,3118.0999999940395,0,1,experiment,NA,NA,2,0.5,0.5,4,5,306,7,NA
fcp-trial,342,1514580,0.0-317.0-0.0,voc_e2,12104,"[{""event"":""fullscreenenter"",""trial"":1,""time"":11749}]",NA,NA,NA,NA,NA,5,#D89F1C,#3386FF,10,10,1,38,1,1111.699999988079,39,0,1171.300000011921,10,0,experiment,NA,NA,1,0.7,0.3,2,3,307,7,NA
fcp-trial,343,1518592,0.0-318.0-0.0,voc_e2,12104,"[{""event"":""fullscreenenter"",""trial"":1,""time"":11749}]",NA,NA,NA,NA,NA,6,#D8271C,#741CD8,0,0,0,38,1,2067,39,0,436.5,0,1,experiment,NA,NA,2,0.5,0.5,5,4,308,7,NA
fcp-trial,344,1524020,0.0-319.0-0.0,voc_e2,12104,"[{""event"":""fullscreenenter"",""trial"":1,""time"":11749}]",NA,NA,NA,NA,NA,5,#1CD855,#FA92F8,10,0,1,40,0,3366.5,39,0,553.1999999880791,0,0,experiment,NA,NA,0,0.9,0.1,0,1,309,7,NA
fcp-trial,345,1527088,0.0-320.0-0.0,voc_e2,12104,"[{""event"":""fullscreenenter"",""trial"":1,""time"":11749}]",NA,NA,NA,NA,NA,2,#1CD855,#FA92F8,10,0,1,38,1,682.9000000059605,39,0,878.5,0,0,experiment,NA,NA,0,0.9,0.1,0,1,310,7,NA
fcp-trial,346,1530287,0.0-321.0-0.0,voc_e2,12104,"[{""event"":""fullscreenenter"",""trial"":1,""time"":11749}]",NA,NA,NA,NA,NA,0,#1CD855,#FA92F8,10,0,1,38,1,1178,39,0,515.9000000059605,0,0,experiment,NA,NA,0,0.9,0.1,0,1,311,7,NA
fcp-trial,347,1534397,0.0-322.0-0.0,voc_e2,12104,"[{""event"":""fullscreenenter"",""trial"":1,""time"":11749}]",NA,NA,NA,NA,NA,0,#D89F1C,#3386FF,0,0,1,38,1,2016.7999999821186,39,0,586.2999999821186,0,0,experiment,NA,NA,1,0.7,0.3,2,3,312,7,NA
fcp-trial,348,1538123,0.0-323.0-0.0,voc_e2,12104,"[{""event"":""fullscreenenter"",""trial"":1,""time"":11749}]",NA,NA,NA,NA,NA,3,#D8271C,#741CD8,10,10,0,38,1,1857.2000000178814,39,0,358.5,10,1,experiment,NA,NA,2,0.5,0.5,5,4,313,7,NA
fcp-trial,349,1543720,0.0-324.0-0.0,voc_e2,12104,"[{""event"":""fullscreenenter"",""trial"":1,""time"":11749}]",NA,NA,NA,NA,NA,6,#D89F1C,#3386FF,10,0,1,40,0,3391.199999988079,39,0,700.2999999821186,0,0,experiment,NA,NA,1,0.7,0.3,2,3,314,7,NA
fcp-trial,350,1547555,0.0-325.0-0.0,voc_e2,12104,"[{""event"":""fullscreenenter"",""trial"":1,""time"":11749}]",NA,NA,NA,NA,NA,3,#D89F1C,#3386FF,10,0,1,40,0,1709.0999999940395,39,0,620,0,0,experiment,NA,NA,1,0.7,0.3,2,3,315,7,NA
audio-instructions,351,1554679,0.0-326.0,voc_e2,12104,"[{""event"":""fullscreenenter"",""trial"":1,""time"":11749}]",NA,1335.4000000059605,static/audio/finished.wav,NA,0,NA,NA,NA,NA,NA,NA,NA,NA,NA,NA,NA,NA,NA,NA,NA,NA,NA,NA,NA,NA,NA,NA,NA,NA,NA
audio-instructions,352,1577752,0.0-327.0-0.0,voc_e2,12104,"[{""event"":""fullscreenenter"",""trial"":1,""time"":11749}]",NA,12235,static/audio/explicit1.wav,NA,0,NA,NA,NA,NA,NA,NA,NA,NA,NA,NA,NA,NA,NA,NA,NA,NA,NA,NA,NA,NA,NA,NA,NA,NA,NA
audio-instructions,353,1586115,0.0-327.0-1.0,voc_e2,12104,"[{""event"":""fullscreenenter"",""trial"":1,""time"":11749}]",NA,768.1999999880791,static/audio/explicit2.wav,NA,0,NA,NA,NA,NA,NA,NA,NA,NA,NA,NA,NA,NA,NA,NA,NA,NA,NA,NA,NA,NA,NA,NA,NA,NA,NA
image-slider-response,354,1596253,0.0-328.0,voc_e2,12104,"[{""event"":""fullscreenenter"",""trial"":1,""time"":11749}]",NA,10135.5,static/img/machines/machine2.png,NA,NA,NA,NA,NA,NA,NA,NA,NA,NA,NA,NA,NA,NA,NA,NA,explicit,NA,NA,NA,NA,NA,NA,NA,NA,NA,6
image-slider-response,355,1597207,0.0-329.0,voc_e2,12104,"[{""event"":""fullscreenenter"",""trial"":1,""time"":11749}]",NA,952.0999999940396,static/img/machines/machine1.png,NA,NA,NA,NA,NA,NA,NA,NA,NA,NA,NA,NA,NA,NA,NA,NA,explicit,NA,NA,NA,NA,NA,NA,NA,NA,NA,5
image-slider-response,356,1608678,0.0-330.0,voc_e2,12104,"[{""event"":""fullscreenenter"",""trial"":1,""time"":11749}]",NA,11470,static/img/machines/machine4.png,NA,NA,NA,NA,NA,NA,NA,NA,NA,NA,NA,NA,NA,NA,NA,NA,explicit,NA,NA,NA,NA,NA,NA,NA,NA,NA,3
image-slider-response,357,1614536,0.0-331.0,voc_e2,12104,"[{""event"":""fullscreenenter"",""trial"":1,""time"":11749}]",NA,5855.700000017881,static/img/machines/machine3.png,NA,NA,NA,NA,NA,NA,NA,NA,NA,NA,NA,NA,NA,NA,NA,NA,explicit,NA,NA,NA,NA,NA,NA,NA,NA,NA,7
image-slider-response,358,1625992,0.0-332.0,voc_e2,12104,"[{""event"":""fullscreenenter"",""trial"":1,""time"":11749}]",NA,11454.40000000596,static/img/machines/machine6.png,NA,NA,NA,NA,NA,NA,NA,NA,NA,NA,NA,NA,NA,NA,NA,NA,explicit,NA,NA,NA,NA,NA,NA,NA,NA,NA,7
image-slider-response,359,1652332,0.0-333.0,voc_e2,12104,"[{""event"":""fullscreenenter"",""trial"":1,""time"":11749}]",NA,26338.40000000596,static/img/machines/machine5.png,NA,NA,NA,NA,NA,NA,NA,NA,NA,NA,NA,NA,NA,NA,NA,NA,explicit,NA,NA,NA,NA,NA,NA,NA,NA,NA,2
