trial_type,trial_index,time_elapsed,internal_node_id,task_version,subject_id,interactions,success,rt,stimulus,key_press,button_pressed,offer,arcade_color_L,arcade_color_R,arcade_outcome_L,arcade_outcome_R,correct,stage_1_key,stage_1_choice,stage_1_rt,stage_2_key,stage_2_choice,stage_2_rt,stage_3_outcome,accuracy,phase,responses,num_errors,context,reward_prob_L,reward_prob_R,arcade_id_L,arcade_id_R,trial,block,response
pavlovia,0,11,0.0-0.0,voc_e2,11908,[],NA,NA,NA,NA,NA,NA,NA,NA,NA,NA,NA,NA,NA,NA,NA,NA,NA,NA,NA,NA,NA,NA,NA,NA,NA,NA,NA,NA,NA,NA
fullscreen,1,2975,0.0-1.0,voc_e2,11908,"[{""event"":""fullscreenenter"",""trial"":1,""time"":1983}]",TRUE,NA,NA,NA,NA,NA,NA,NA,NA,NA,NA,NA,NA,NA,NA,NA,NA,NA,NA,NA,NA,NA,NA,NA,NA,NA,NA,NA,NA,NA
audio-keyboard-response,2,12692,0.0-2.0,voc_e2,11908,"[{""event"":""fullscreenenter"",""trial"":1,""time"":1983}]",NA,9605,static/audio/beep_loop.wav,32,NA,NA,NA,NA,NA,NA,NA,NA,NA,NA,NA,NA,NA,NA,NA,NA,NA,NA,NA,NA,NA,NA,NA,NA,NA,NA
audio-test,3,14999,0.0-3.0,voc_e2,11908,"[{""event"":""fullscreenenter"",""trial"":1,""time"":1983}]",NA,NA,static/audio/turtle.wav,NA,3,NA,NA,NA,NA,NA,NA,NA,NA,NA,NA,NA,NA,NA,NA,NA,NA,NA,NA,NA,NA,NA,NA,NA,NA,NA
audio-test,4,17143,0.0-4.0,voc_e2,11908,"[{""event"":""fullscreenenter"",""trial"":1,""time"":1983}]",NA,NA,static/audio/shark.wav,NA,2,NA,NA,NA,NA,NA,NA,NA,NA,NA,NA,NA,NA,NA,NA,NA,NA,NA,NA,NA,NA,NA,NA,NA,NA,NA
audio-instructions,5,24142,0.0-5.0-0.0,voc_e2,11908,"[{""event"":""fullscreenenter"",""trial"":1,""time"":1983}]",NA,1211,static/audio/instructions1.wav,NA,0,NA,NA,NA,NA,NA,NA,NA,NA,NA,NA,NA,NA,NA,NA,NA,NA,NA,NA,NA,NA,NA,NA,NA,NA,NA
audio-instructions,6,32185,0.0-5.0-1.0,voc_e2,11908,"[{""event"":""fullscreenenter"",""trial"":1,""time"":1983}]",NA,1302,static/audio/instructions2.wav,NA,0,NA,NA,NA,NA,NA,NA,NA,NA,NA,NA,NA,NA,NA,NA,NA,NA,NA,NA,NA,NA,NA,NA,NA,NA,NA
audio-instructions,7,39051,0.0-5.0-2.0,voc_e2,11908,"[{""event"":""fullscreenenter"",""trial"":1,""time"":1983}]",NA,1065,static/audio/instructions3.wav,NA,0,NA,NA,NA,NA,NA,NA,NA,NA,NA,NA,NA,NA,NA,NA,NA,NA,NA,NA,NA,NA,NA,NA,NA,NA,NA
audio-instructions,8,53496,0.0-5.0-3.0,voc_e2,11908,"[{""event"":""fullscreenenter"",""trial"":1,""time"":1983}]",NA,1217,static/audio/instructions4.wav,NA,0,NA,NA,NA,NA,NA,NA,NA,NA,NA,NA,NA,NA,NA,NA,NA,NA,NA,NA,NA,NA,NA,NA,NA,NA,NA
audio-instructions,9,64339,0.0-5.0-4.0,voc_e2,11908,"[{""event"":""fullscreenenter"",""trial"":1,""time"":1983}]",NA,1457,static/audio/instructions5.wav,NA,0,NA,NA,NA,NA,NA,NA,NA,NA,NA,NA,NA,NA,NA,NA,NA,NA,NA,NA,NA,NA,NA,NA,NA,NA,NA
fcp-practice,10,66930,0.0-5.0-5.0-0.0,voc_e2,11908,"[{""event"":""fullscreenenter"",""trial"":1,""time"":1983}]",NA,NA,NA,NA,NA,NA,#EDC948,#46d3c8,10,0,1,null,null,null,37,1,1071,10,1,practice,NA,NA,NA,NA,NA,NA,NA,NA,NA,NA
fcp-practice,11,68526,0.0-5.0-5.0-1.0,voc_e2,11908,"[{""event"":""fullscreenenter"",""trial"":1,""time"":1983}]",NA,NA,NA,NA,NA,NA,#EDC948,#46d3c8,10,0,1,null,null,null,37,1,86,10,1,practice,NA,NA,NA,NA,NA,NA,NA,NA,NA,NA
fcp-practice,12,70311,0.0-5.0-5.0-2.0,voc_e2,11908,"[{""event"":""fullscreenenter"",""trial"":1,""time"":1983}]",NA,NA,NA,NA,NA,NA,#EDC948,#46d3c8,0,10,1,null,null,null,37,1,275,0,1,practice,NA,NA,NA,NA,NA,NA,NA,NA,NA,NA
fcp-practice,13,71827,0.0-5.0-5.0-3.0,voc_e2,11908,"[{""event"":""fullscreenenter"",""trial"":1,""time"":1983}]",NA,NA,NA,NA,NA,NA,#EDC948,#46d3c8,10,0,1,null,null,null,37,1,4,10,1,practice,NA,NA,NA,NA,NA,NA,NA,NA,NA,NA
fcp-practice,14,73392,0.0-5.0-5.0-4.0,voc_e2,11908,"[{""event"":""fullscreenenter"",""trial"":1,""time"":1983}]",NA,NA,NA,NA,NA,NA,#EDC948,#46d3c8,10,0,1,null,null,null,37,1,54,10,1,practice,NA,NA,NA,NA,NA,NA,NA,NA,NA,NA
audio-instructions,15,92355,0.0-5.0-6.0,voc_e2,11908,"[{""event"":""fullscreenenter"",""trial"":1,""time"":1983}]",NA,954,static/audio/instructions6.wav,NA,0,NA,NA,NA,NA,NA,NA,NA,NA,NA,NA,NA,NA,NA,NA,NA,NA,NA,NA,NA,NA,NA,NA,NA,NA,NA
audio-instructions,16,112631,0.0-5.0-7.0,voc_e2,11908,"[{""event"":""fullscreenenter"",""trial"":1,""time"":1983}]",NA,1076,static/audio/instructions7.wav,NA,0,NA,NA,NA,NA,NA,NA,NA,NA,NA,NA,NA,NA,NA,NA,NA,NA,NA,NA,NA,NA,NA,NA,NA,NA,NA
audio-instructions,17,123165,0.0-5.0-8.0,voc_e2,11908,"[{""event"":""fullscreenenter"",""trial"":1,""time"":1983}]",NA,1060,static/audio/instructions8.wav,NA,0,NA,NA,NA,NA,NA,NA,NA,NA,NA,NA,NA,NA,NA,NA,NA,NA,NA,NA,NA,NA,NA,NA,NA,NA,NA
fcp-comprehension,18,132958,0.0-5.0-9.0,voc_e2,11908,"[{""event"":""fullscreenenter"",""trial"":1,""time"":1983}]",NA,9791,NA,NA,NA,NA,NA,NA,NA,NA,NA,NA,NA,NA,NA,NA,NA,NA,NA,NA,"true,true",0,NA,NA,NA,NA,NA,NA,NA,NA
audio-instructions,19,140379,0.0-6.0-0.0,voc_e2,11908,"[{""event"":""fullscreenenter"",""trial"":1,""time"":1983}]",NA,1869,static/audio/instructions9.wav,NA,0,NA,NA,NA,NA,NA,NA,NA,NA,NA,NA,NA,NA,NA,NA,NA,NA,NA,NA,NA,NA,NA,NA,NA,NA,NA
audio-instructions,20,154088,0.0-6.0-1.0,voc_e2,11908,"[{""event"":""fullscreenenter"",""trial"":1,""time"":1983}]",NA,1590,static/audio/instructions10.wav,NA,0,NA,NA,NA,NA,NA,NA,NA,NA,NA,NA,NA,NA,NA,NA,NA,NA,NA,NA,NA,NA,NA,NA,NA,NA,NA
fcp-trial,21,158674,0.0-6.0-2.0,voc_e2,11908,"[{""event"":""fullscreenenter"",""trial"":1,""time"":1983}]",NA,NA,NA,NA,NA,0,#EDC948,#46d3c8,10,10,1,38,1,1739,37,1,1328,10,1,practice,NA,NA,NA,NA,NA,NA,NA,NA,NA,NA
audio-instructions,22,171259,0.0-6.0-3.0,voc_e2,11908,"[{""event"":""fullscreenenter"",""trial"":1,""time"":1983}]",NA,1576,static/audio/instructions11.wav,NA,0,NA,NA,NA,NA,NA,NA,NA,NA,NA,NA,NA,NA,NA,NA,NA,NA,NA,NA,NA,NA,NA,NA,NA,NA,NA
fcp-trial,23,177067,0.0-6.0-4.0,voc_e2,11908,"[{""event"":""fullscreenenter"",""trial"":1,""time"":1983}]",NA,NA,NA,NA,NA,6,#EDC948,#46d3c8,10,10,1,40,0,1546,37,1,2749,10,1,practice,NA,NA,NA,NA,NA,NA,NA,NA,NA,NA
audio-instructions,24,196462,0.0-6.0-5.0,voc_e2,11908,"[{""event"":""fullscreenenter"",""trial"":1,""time"":1983}]",NA,703,static/audio/instructions12.wav,NA,0,NA,NA,NA,NA,NA,NA,NA,NA,NA,NA,NA,NA,NA,NA,NA,NA,NA,NA,NA,NA,NA,NA,NA,NA,NA
audio-instructions,25,204479,0.0-6.0-6.0,voc_e2,11908,"[{""event"":""fullscreenenter"",""trial"":1,""time"":1983}]",NA,422,static/audio/instructions13.wav,NA,0,NA,NA,NA,NA,NA,NA,NA,NA,NA,NA,NA,NA,NA,NA,NA,NA,NA,NA,NA,NA,NA,NA,NA,NA,NA
audio-instructions,26,214035,0.0-6.0-7.0,voc_e2,11908,"[{""event"":""fullscreenenter"",""trial"":1,""time"":1983}]",NA,1109,static/audio/instructions14.wav,NA,0,NA,NA,NA,NA,NA,NA,NA,NA,NA,NA,NA,NA,NA,NA,NA,NA,NA,NA,NA,NA,NA,NA,NA,NA,NA
audio-instructions,27,222071,0.0-7.0-0.0,voc_e2,11908,"[{""event"":""fullscreenenter"",""trial"":1,""time"":1983}]",NA,1123,static/audio/instructions15.wav,NA,0,NA,NA,NA,NA,NA,NA,NA,NA,NA,NA,NA,NA,NA,NA,NA,NA,NA,NA,NA,NA,NA,NA,NA,NA,NA
audio-instructions,28,229472,0.0-7.0-1.0,voc_e2,11908,"[{""event"":""fullscreenenter"",""trial"":1,""time"":1983}]",NA,572,static/audio/instructions16.wav,NA,0,NA,NA,NA,NA,NA,NA,NA,NA,NA,NA,NA,NA,NA,NA,NA,NA,NA,NA,NA,NA,NA,NA,NA,NA,NA
audio-instructions,29,237606,0.0-7.0-2.0,voc_e2,11908,"[{""event"":""fullscreenenter"",""trial"":1,""time"":1983}]",NA,456,static/audio/instructions17.wav,NA,0,NA,NA,NA,NA,NA,NA,NA,NA,NA,NA,NA,NA,NA,NA,NA,NA,NA,NA,NA,NA,NA,NA,NA,NA,NA
audio-instructions,30,246465,0.0-7.0-3.0,voc_e2,11908,"[{""event"":""fullscreenenter"",""trial"":1,""time"":1983}]",NA,1092,static/audio/instructions18.wav,NA,0,NA,NA,NA,NA,NA,NA,NA,NA,NA,NA,NA,NA,NA,NA,NA,NA,NA,NA,NA,NA,NA,NA,NA,NA,NA
audio-instructions,31,254313,0.0-7.0-4.0,voc_e2,11908,"[{""event"":""fullscreenenter"",""trial"":1,""time"":1983}]",NA,1104,static/audio/instructions19.wav,NA,0,NA,NA,NA,NA,NA,NA,NA,NA,NA,NA,NA,NA,NA,NA,NA,NA,NA,NA,NA,NA,NA,NA,NA,NA,NA
fcp-comprehension,32,284993,0.0-7.0-5.0,voc_e2,11908,"[{""event"":""fullscreenenter"",""trial"":1,""time"":1983}]",NA,30750,NA,NA,NA,NA,NA,NA,NA,NA,NA,NA,NA,NA,NA,NA,NA,NA,NA,NA,"false,false,false,true",0,NA,NA,NA,NA,NA,NA,NA,NA
audio-instructions,33,296137,0.0-8.0,voc_e2,11908,"[{""event"":""fullscreenenter"",""trial"":1,""time"":1983}]",NA,1840,static/audio/ready.wav,NA,0,NA,NA,NA,NA,NA,NA,NA,NA,NA,NA,NA,NA,NA,NA,NA,NA,NA,NA,NA,NA,NA,NA,NA,NA,NA
fcp-trial,34,301901,0.0-9.0-0.0,voc_e2,11908,"[{""event"":""fullscreenenter"",""trial"":1,""time"":1983}]",NA,NA,NA,NA,NA,3,#FA92F8,#1CD855,10,10,1,40,0,3033,39,0,1222,10,0,experiment,NA,NA,2,0.5,0.5,4,5,1,1,NA
fcp-trial,35,309807,0.0-10.0-0.0,voc_e2,11908,"[{""event"":""fullscreenenter"",""trial"":1,""time"":1983}]",NA,NA,NA,NA,NA,1,#741CD8,#D8271C,0,10,0,40,0,5437,39,0,954,10,1,experiment,NA,NA,0,0.1,0.9,1,0,2,1,NA
fcp-trial,36,314823,0.0-11.0-0.0,voc_e2,11908,"[{""event"":""fullscreenenter"",""trial"":1,""time"":1983}]",NA,NA,NA,NA,NA,2,#1CD855,#FA92F8,0,10,0,38,1,2711,37,1,790,0,0,experiment,NA,NA,2,0.5,0.5,5,4,3,1,NA
fcp-trial,37,319800,0.0-12.0-0.0,voc_e2,11908,"[{""event"":""fullscreenenter"",""trial"":1,""time"":1983}]",NA,NA,NA,NA,NA,3,#D8271C,#741CD8,10,0,1,38,1,2369,39,0,1093,0,0,experiment,NA,NA,0,0.9,0.1,0,1,4,1,NA
fcp-trial,38,324305,0.0-13.0-0.0,voc_e2,11908,"[{""event"":""fullscreenenter"",""trial"":1,""time"":1983}]",NA,NA,NA,NA,NA,1,#3386FF,#D89F1C,10,10,1,40,0,1572,39,0,1422,10,0,experiment,NA,NA,1,0.7,0.3,2,3,5,1,NA
fcp-trial,39,328366,0.0-14.0-0.0,voc_e2,11908,"[{""event"":""fullscreenenter"",""trial"":1,""time"":1983}]",NA,NA,NA,NA,NA,6,#D8271C,#741CD8,10,0,1,38,1,1990,37,1,556,10,1,experiment,NA,NA,0,0.9,0.1,0,1,6,1,NA
fcp-trial,40,333548,0.0-15.0-0.0,voc_e2,11908,"[{""event"":""fullscreenenter"",""trial"":1,""time"":1983}]",NA,NA,NA,NA,NA,4,#FA92F8,#1CD855,0,0,1,40,0,2881,39,0,786,0,0,experiment,NA,NA,2,0.5,0.5,4,5,7,1,NA
fcp-trial,41,337251,0.0-16.0-0.0,voc_e2,11908,"[{""event"":""fullscreenenter"",""trial"":1,""time"":1983}]",NA,NA,NA,NA,NA,2,#3386FF,#D89F1C,10,10,1,38,1,1800,39,0,392,10,0,experiment,NA,NA,1,0.7,0.3,2,3,8,1,NA
fcp-trial,42,340845,0.0-17.0-0.0,voc_e2,11908,"[{""event"":""fullscreenenter"",""trial"":1,""time"":1983}]",NA,NA,NA,NA,NA,2,#741CD8,#D8271C,0,10,0,38,1,1723,39,0,348,10,1,experiment,NA,NA,0,0.1,0.9,1,0,9,1,NA
fcp-trial,43,345443,0.0-18.0-0.0,voc_e2,11908,"[{""event"":""fullscreenenter"",""trial"":1,""time"":1983}]",NA,NA,NA,NA,NA,6,#FA92F8,#1CD855,0,10,1,38,1,1970,39,0,1112,10,0,experiment,NA,NA,2,0.5,0.5,4,5,10,1,NA
fcp-trial,44,348691,0.0-19.0-0.0,voc_e2,11908,"[{""event"":""fullscreenenter"",""trial"":1,""time"":1983}]",NA,NA,NA,NA,NA,0,#D89F1C,#3386FF,10,0,0,38,1,1277,37,1,461,10,0,experiment,NA,NA,1,0.3,0.7,3,2,11,1,NA
fcp-trial,45,352430,0.0-20.0-0.0,voc_e2,11908,"[{""event"":""fullscreenenter"",""trial"":1,""time"":1983}]",NA,NA,NA,NA,NA,4,#741CD8,#D8271C,0,10,0,38,1,1871,39,0,357,10,1,experiment,NA,NA,0,0.1,0.9,1,0,12,1,NA
fcp-trial,46,356596,0.0-21.0-0.0,voc_e2,11908,"[{""event"":""fullscreenenter"",""trial"":1,""time"":1983}]",NA,NA,NA,NA,NA,5,#D89F1C,#3386FF,0,10,0,38,1,1569,37,1,1083,0,0,experiment,NA,NA,1,0.3,0.7,3,2,13,1,NA
fcp-trial,47,359297,0.0-22.0-0.0,voc_e2,11908,"[{""event"":""fullscreenenter"",""trial"":1,""time"":1983}]",NA,NA,NA,NA,NA,6,#3386FF,#D89F1C,0,0,1,38,1,902,39,0,284,0,0,experiment,NA,NA,1,0.7,0.3,2,3,14,1,NA
fcp-trial,48,362903,0.0-23.0-0.0,voc_e2,11908,"[{""event"":""fullscreenenter"",""trial"":1,""time"":1983}]",NA,NA,NA,NA,NA,0,#1CD855,#FA92F8,0,0,0,38,1,808,37,1,1281,0,0,experiment,NA,NA,2,0.5,0.5,5,4,15,1,NA
fcp-trial,49,365549,0.0-24.0-0.0,voc_e2,11908,"[{""event"":""fullscreenenter"",""trial"":1,""time"":1983}]",NA,NA,NA,NA,NA,5,#FA92F8,#1CD855,0,0,1,38,1,848,39,0,286,0,0,experiment,NA,NA,2,0.5,0.5,4,5,16,1,NA
fcp-trial,50,368322,0.0-25.0-0.0,voc_e2,11908,"[{""event"":""fullscreenenter"",""trial"":1,""time"":1983}]",NA,NA,NA,NA,NA,0,#741CD8,#D8271C,0,10,0,38,1,987,39,0,273,10,1,experiment,NA,NA,0,0.1,0.9,1,0,17,1,NA
fcp-trial,51,371158,0.0-26.0-0.0,voc_e2,11908,"[{""event"":""fullscreenenter"",""trial"":1,""time"":1983}]",NA,NA,NA,NA,NA,3,#3386FF,#D89F1C,10,10,1,38,1,1071,39,0,252,10,0,experiment,NA,NA,1,0.7,0.3,2,3,18,1,NA
fcp-trial,52,373768,0.0-27.0-0.0,voc_e2,11908,"[{""event"":""fullscreenenter"",""trial"":1,""time"":1983}]",NA,NA,NA,NA,NA,5,#741CD8,#D8271C,0,10,0,38,1,837,39,0,258,10,1,experiment,NA,NA,0,0.1,0.9,1,0,19,1,NA
fcp-trial,53,376216,0.0-28.0-0.0,voc_e2,11908,"[{""event"":""fullscreenenter"",""trial"":1,""time"":1983}]",NA,NA,NA,NA,NA,1,#FA92F8,#1CD855,10,0,1,38,1,596,39,0,335,0,0,experiment,NA,NA,2,0.5,0.5,4,5,20,1,NA
fcp-trial,54,379218,0.0-29.0-0.0,voc_e2,11908,"[{""event"":""fullscreenenter"",""trial"":1,""time"":1983}]",NA,NA,NA,NA,NA,4,#3386FF,#D89F1C,0,0,1,38,1,611,39,0,878,0,0,experiment,NA,NA,1,0.7,0.3,2,3,21,1,NA
fcp-trial,55,381685,0.0-30.0-0.0,voc_e2,11908,"[{""event"":""fullscreenenter"",""trial"":1,""time"":1983}]",NA,NA,NA,NA,NA,0,#1CD855,#FA92F8,0,10,0,38,1,552,37,1,403,0,0,experiment,NA,NA,2,0.5,0.5,5,4,22,1,NA
fcp-trial,56,385059,0.0-31.0-0.0,voc_e2,11908,"[{""event"":""fullscreenenter"",""trial"":1,""time"":1983}]",NA,NA,NA,NA,NA,1,#1CD855,#FA92F8,10,0,0,40,0,1150,37,1,707,10,0,experiment,NA,NA,2,0.5,0.5,5,4,23,1,NA
fcp-trial,57,390075,0.0-32.0-0.0,voc_e2,11908,"[{""event"":""fullscreenenter"",""trial"":1,""time"":1983}]",NA,NA,NA,NA,NA,2,#741CD8,#D8271C,0,10,0,40,0,2356,37,1,1146,0,0,experiment,NA,NA,0,0.1,0.9,1,0,24,1,NA
fcp-trial,58,393560,0.0-33.0-0.0,voc_e2,11908,"[{""event"":""fullscreenenter"",""trial"":1,""time"":1983}]",NA,NA,NA,NA,NA,3,#741CD8,#D8271C,0,10,0,40,0,1264,39,0,707,10,1,experiment,NA,NA,0,0.1,0.9,1,0,25,1,NA
fcp-trial,59,396567,0.0-34.0-0.0,voc_e2,11908,"[{""event"":""fullscreenenter"",""trial"":1,""time"":1983}]",NA,NA,NA,NA,NA,6,#3386FF,#D89F1C,10,0,1,38,1,896,39,0,599,0,0,experiment,NA,NA,1,0.7,0.3,2,3,26,1,NA
fcp-trial,60,399165,0.0-35.0-0.0,voc_e2,11908,"[{""event"":""fullscreenenter"",""trial"":1,""time"":1983}]",NA,NA,NA,NA,NA,1,#D8271C,#741CD8,10,0,1,40,0,489,37,1,595,10,1,experiment,NA,NA,0,0.9,0.1,0,1,27,1,NA
fcp-trial,61,402540,0.0-36.0-0.0,voc_e2,11908,"[{""event"":""fullscreenenter"",""trial"":1,""time"":1983}]",NA,NA,NA,NA,NA,3,#1CD855,#FA92F8,10,10,0,40,0,850,37,1,1007,10,0,experiment,NA,NA,2,0.5,0.5,5,4,28,1,NA
fcp-trial,62,405414,0.0-37.0-0.0,voc_e2,11908,"[{""event"":""fullscreenenter"",""trial"":1,""time"":1983}]",NA,NA,NA,NA,NA,4,#D8271C,#741CD8,10,0,1,38,1,749,39,0,613,0,0,experiment,NA,NA,0,0.9,0.1,0,1,29,1,NA
fcp-trial,63,410208,0.0-38.0-0.0,voc_e2,11908,"[{""event"":""fullscreenenter"",""trial"":1,""time"":1983}]",NA,NA,NA,NA,NA,0,#3386FF,#D89F1C,0,0,1,38,1,2210,39,0,1070,0,0,experiment,NA,NA,1,0.7,0.3,2,3,30,1,NA
fcp-trial,64,412832,0.0-39.0-0.0,voc_e2,11908,"[{""event"":""fullscreenenter"",""trial"":1,""time"":1983}]",NA,NA,NA,NA,NA,3,#3386FF,#D89F1C,10,0,1,38,1,463,39,0,651,0,0,experiment,NA,NA,1,0.7,0.3,2,3,31,1,NA
fcp-trial,65,415183,0.0-40.0-0.0,voc_e2,11908,"[{""event"":""fullscreenenter"",""trial"":1,""time"":1983}]",NA,NA,NA,NA,NA,2,#3386FF,#D89F1C,0,0,1,38,1,492,37,1,344,0,1,experiment,NA,NA,1,0.7,0.3,2,3,32,1,NA
fcp-trial,66,417520,0.0-41.0-0.0,voc_e2,11908,"[{""event"":""fullscreenenter"",""trial"":1,""time"":1983}]",NA,NA,NA,NA,NA,4,#FA92F8,#1CD855,0,0,1,38,1,537,39,0,283,0,0,experiment,NA,NA,2,0.5,0.5,4,5,33,1,NA
fcp-trial,67,420818,0.0-42.0-0.0,voc_e2,11908,"[{""event"":""fullscreenenter"",""trial"":1,""time"":1983}]",NA,NA,NA,NA,NA,6,#D8271C,#741CD8,0,0,1,38,1,500,37,1,1286,0,1,experiment,NA,NA,0,0.9,0.1,0,1,34,1,NA
fcp-trial,68,423340,0.0-43.0-0.0,voc_e2,11908,"[{""event"":""fullscreenenter"",""trial"":1,""time"":1983}]",NA,NA,NA,NA,NA,1,#3386FF,#D89F1C,10,0,1,38,1,477,39,0,536,0,0,experiment,NA,NA,1,0.7,0.3,2,3,35,1,NA
fcp-trial,69,427520,0.0-44.0-0.0,voc_e2,11908,"[{""event"":""fullscreenenter"",""trial"":1,""time"":1983}]",NA,NA,NA,NA,NA,6,#FA92F8,#1CD855,10,0,1,38,1,1673,39,0,998,0,0,experiment,NA,NA,2,0.5,0.5,4,5,36,1,NA
fcp-trial,70,430057,0.0-45.0-0.0,voc_e2,11908,"[{""event"":""fullscreenenter"",""trial"":1,""time"":1983}]",NA,NA,NA,NA,NA,0,#D8271C,#741CD8,10,0,1,40,0,473,37,1,553,10,1,experiment,NA,NA,0,0.9,0.1,0,1,37,1,NA
fcp-trial,71,433147,0.0-46.0-0.0,voc_e2,11908,"[{""event"":""fullscreenenter"",""trial"":1,""time"":1983}]",NA,NA,NA,NA,NA,5,#741CD8,#D8271C,0,10,0,38,1,1302,39,0,277,10,1,experiment,NA,NA,0,0.1,0.9,1,0,38,1,NA
fcp-trial,72,437241,0.0-47.0-0.0,voc_e2,11908,"[{""event"":""fullscreenenter"",""trial"":1,""time"":1983}]",NA,NA,NA,NA,NA,4,#D89F1C,#3386FF,0,10,0,40,0,1942,39,0,638,10,1,experiment,NA,NA,1,0.3,0.7,3,2,39,1,NA
fcp-trial,73,440467,0.0-48.0-0.0,voc_e2,11908,"[{""event"":""fullscreenenter"",""trial"":1,""time"":1983}]",NA,NA,NA,NA,NA,2,#1CD855,#FA92F8,10,10,0,40,0,1108,37,1,606,10,0,experiment,NA,NA,2,0.5,0.5,5,4,40,1,NA
fcp-trial,74,445240,0.0-49.0-0.0,voc_e2,11908,"[{""event"":""fullscreenenter"",""trial"":1,""time"":1983}]",NA,NA,NA,NA,NA,5,#FA92F8,#1CD855,10,0,1,38,1,2818,37,1,446,10,1,experiment,NA,NA,2,0.5,0.5,4,5,41,1,NA
fcp-trial,75,448772,0.0-50.0-0.0,voc_e2,11908,"[{""event"":""fullscreenenter"",""trial"":1,""time"":1983}]",NA,NA,NA,NA,NA,5,#3386FF,#D89F1C,0,0,1,38,1,1441,39,0,579,0,0,experiment,NA,NA,1,0.7,0.3,2,3,42,1,NA
fcp-trial,76,452250,0.0-51.0-0.0,voc_e2,11908,"[{""event"":""fullscreenenter"",""trial"":1,""time"":1983}]",NA,NA,NA,NA,NA,3,#3386FF,#D89F1C,0,0,1,38,1,777,37,1,1188,0,1,experiment,NA,NA,1,0.7,0.3,2,3,43,1,NA
fcp-trial,77,454662,0.0-52.0-0.0,voc_e2,11908,"[{""event"":""fullscreenenter"",""trial"":1,""time"":1983}]",NA,NA,NA,NA,NA,5,#D8271C,#741CD8,10,0,1,38,1,458,37,1,445,10,1,experiment,NA,NA,0,0.9,0.1,0,1,44,1,NA
fcp-trial,78,456934,0.0-53.0-0.0,voc_e2,11908,"[{""event"":""fullscreenenter"",""trial"":1,""time"":1983}]",NA,NA,NA,NA,NA,3,#D8271C,#741CD8,10,0,1,38,1,466,39,0,290,0,0,experiment,NA,NA,0,0.9,0.1,0,1,45,1,NA
fcp-trial,79,459294,0.0-54.0-0.0,voc_e2,11908,"[{""event"":""fullscreenenter"",""trial"":1,""time"":1983}]",NA,NA,NA,NA,NA,0,#1CD855,#FA92F8,0,10,0,38,1,510,39,0,342,10,1,experiment,NA,NA,2,0.5,0.5,5,4,46,2,NA
fcp-trial,80,461673,0.0-55.0-0.0,voc_e2,11908,"[{""event"":""fullscreenenter"",""trial"":1,""time"":1983}]",NA,NA,NA,NA,NA,1,#FA92F8,#1CD855,10,10,1,38,1,396,39,0,466,10,0,experiment,NA,NA,2,0.5,0.5,4,5,47,2,NA
fcp-trial,81,464104,0.0-56.0-0.0,voc_e2,11908,"[{""event"":""fullscreenenter"",""trial"":1,""time"":1983}]",NA,NA,NA,NA,NA,5,#D89F1C,#3386FF,0,0,0,38,1,495,37,1,423,0,0,experiment,NA,NA,1,0.3,0.7,3,2,48,2,NA
fcp-trial,82,466229,0.0-57.0-0.0,voc_e2,11908,"[{""event"":""fullscreenenter"",""trial"":1,""time"":1983}]",NA,NA,NA,NA,NA,1,#741CD8,#D8271C,0,10,0,38,1,295,39,0,323,10,1,experiment,NA,NA,0,0.1,0.9,1,0,49,2,NA
fcp-trial,83,468591,0.0-58.0-0.0,voc_e2,11908,"[{""event"":""fullscreenenter"",""trial"":1,""time"":1983}]",NA,NA,NA,NA,NA,5,#1CD855,#FA92F8,10,0,0,38,1,519,37,1,330,10,0,experiment,NA,NA,2,0.5,0.5,5,4,50,2,NA
fcp-trial,84,470866,0.0-59.0-0.0,voc_e2,11908,"[{""event"":""fullscreenenter"",""trial"":1,""time"":1983}]",NA,NA,NA,NA,NA,6,#3386FF,#D89F1C,10,0,1,38,1,358,37,1,403,10,1,experiment,NA,NA,1,0.7,0.3,2,3,51,2,NA
fcp-trial,85,473010,0.0-60.0-0.0,voc_e2,11908,"[{""event"":""fullscreenenter"",""trial"":1,""time"":1983}]",NA,NA,NA,NA,NA,0,#D89F1C,#3386FF,0,10,0,38,1,356,39,0,280,10,1,experiment,NA,NA,1,0.3,0.7,3,2,52,2,NA
fcp-trial,86,476162,0.0-61.0-0.0,voc_e2,11908,"[{""event"":""fullscreenenter"",""trial"":1,""time"":1983}]",NA,NA,NA,NA,NA,2,#D8271C,#741CD8,10,0,1,38,1,443,37,1,1199,10,1,experiment,NA,NA,0,0.9,0.1,0,1,53,2,NA
fcp-trial,87,478431,0.0-62.0-0.0,voc_e2,11908,"[{""event"":""fullscreenenter"",""trial"":1,""time"":1983}]",NA,NA,NA,NA,NA,2,#FA92F8,#1CD855,10,10,1,38,1,429,39,0,322,10,0,experiment,NA,NA,2,0.5,0.5,4,5,54,2,NA
fcp-trial,88,481182,0.0-63.0-0.0,voc_e2,11908,"[{""event"":""fullscreenenter"",""trial"":1,""time"":1983}]",NA,NA,NA,NA,NA,1,#3386FF,#D89F1C,0,10,1,38,1,384,37,1,850,0,1,experiment,NA,NA,1,0.7,0.3,2,3,55,2,NA
fcp-trial,89,483541,0.0-64.0-0.0,voc_e2,11908,"[{""event"":""fullscreenenter"",""trial"":1,""time"":1983}]",NA,NA,NA,NA,NA,6,#1CD855,#FA92F8,0,0,0,38,1,590,39,0,259,0,1,experiment,NA,NA,2,0.5,0.5,5,4,56,2,NA
fcp-trial,90,485758,0.0-65.0-0.0,voc_e2,11908,"[{""event"":""fullscreenenter"",""trial"":1,""time"":1983}]",NA,NA,NA,NA,NA,4,#3386FF,#D89F1C,0,0,1,38,1,437,37,1,267,0,1,experiment,NA,NA,1,0.7,0.3,2,3,57,2,NA
fcp-trial,91,488524,0.0-66.0-0.0,voc_e2,11908,"[{""event"":""fullscreenenter"",""trial"":1,""time"":1983}]",NA,NA,NA,NA,NA,6,#D8271C,#741CD8,10,0,1,38,1,410,39,0,842,0,0,experiment,NA,NA,0,0.9,0.1,0,1,58,2,NA
fcp-trial,92,491512,0.0-67.0-0.0,voc_e2,11908,"[{""event"":""fullscreenenter"",""trial"":1,""time"":1983}]",NA,NA,NA,NA,NA,0,#D8271C,#741CD8,10,0,1,38,1,894,37,1,583,10,1,experiment,NA,NA,0,0.9,0.1,0,1,59,2,NA
fcp-trial,93,495255,0.0-68.0-0.0,voc_e2,11908,"[{""event"":""fullscreenenter"",""trial"":1,""time"":1983}]",NA,NA,NA,NA,NA,3,#FA92F8,#1CD855,10,0,1,38,1,1425,39,0,802,0,0,experiment,NA,NA,2,0.5,0.5,4,5,60,2,NA
fcp-trial,94,498124,0.0-69.0-0.0,voc_e2,11908,"[{""event"":""fullscreenenter"",""trial"":1,""time"":1983}]",NA,NA,NA,NA,NA,2,#3386FF,#D89F1C,0,0,1,38,1,1035,37,1,319,0,1,experiment,NA,NA,1,0.7,0.3,2,3,61,2,NA
fcp-trial,95,501652,0.0-70.0-0.0,voc_e2,11908,"[{""event"":""fullscreenenter"",""trial"":1,""time"":1983}]",NA,NA,NA,NA,NA,4,#FA92F8,#1CD855,0,10,1,38,1,1067,39,0,948,10,0,experiment,NA,NA,2,0.5,0.5,4,5,62,2,NA
fcp-trial,96,504021,0.0-71.0-0.0,voc_e2,11908,"[{""event"":""fullscreenenter"",""trial"":1,""time"":1983}]",NA,NA,NA,NA,NA,4,#741CD8,#D8271C,0,10,0,38,1,515,39,0,337,10,1,experiment,NA,NA,0,0.1,0.9,1,0,63,2,NA
fcp-trial,97,508052,0.0-72.0-0.0,voc_e2,11908,"[{""event"":""fullscreenenter"",""trial"":1,""time"":1983}]",NA,NA,NA,NA,NA,1,#741CD8,#D8271C,0,0,0,38,1,1273,37,1,1245,0,0,experiment,NA,NA,0,0.1,0.9,1,0,64,2,NA
fcp-trial,98,511100,0.0-73.0-0.0,voc_e2,11908,"[{""event"":""fullscreenenter"",""trial"":1,""time"":1983}]",NA,NA,NA,NA,NA,0,#D89F1C,#3386FF,10,0,0,40,0,719,39,0,813,0,1,experiment,NA,NA,1,0.3,0.7,3,2,65,2,NA
fcp-trial,99,514546,0.0-74.0-0.0,voc_e2,11908,"[{""event"":""fullscreenenter"",""trial"":1,""time"":1983}]",NA,NA,NA,NA,NA,0,#FA92F8,#1CD855,10,0,1,40,0,1182,37,1,749,10,1,experiment,NA,NA,2,0.5,0.5,4,5,66,2,NA
fcp-trial,100,518253,0.0-75.0-0.0,voc_e2,11908,"[{""event"":""fullscreenenter"",""trial"":1,""time"":1983}]",NA,NA,NA,NA,NA,3,#1CD855,#FA92F8,0,10,0,38,1,1580,39,0,609,10,1,experiment,NA,NA,2,0.5,0.5,5,4,67,2,NA
fcp-trial,101,520995,0.0-76.0-0.0,voc_e2,11908,"[{""event"":""fullscreenenter"",""trial"":1,""time"":1983}]",NA,NA,NA,NA,NA,5,#FA92F8,#1CD855,10,10,1,38,1,732,37,1,497,10,1,experiment,NA,NA,2,0.5,0.5,4,5,68,2,NA
fcp-trial,102,523769,0.0-77.0-0.0,voc_e2,11908,"[{""event"":""fullscreenenter"",""trial"":1,""time"":1983}]",NA,NA,NA,NA,NA,3,#D8271C,#741CD8,10,10,1,38,1,908,39,0,311,10,0,experiment,NA,NA,0,0.9,0.1,0,1,69,2,NA
fcp-trial,103,526588,0.0-78.0-0.0,voc_e2,11908,"[{""event"":""fullscreenenter"",""trial"":1,""time"":1983}]",NA,NA,NA,NA,NA,2,#3386FF,#D89F1C,10,10,1,40,0,648,39,0,660,10,0,experiment,NA,NA,1,0.7,0.3,2,3,70,2,NA
fcp-trial,104,529951,0.0-79.0-0.0,voc_e2,11908,"[{""event"":""fullscreenenter"",""trial"":1,""time"":1983}]",NA,NA,NA,NA,NA,0,#D8271C,#741CD8,10,0,1,40,0,840,39,0,1009,0,0,experiment,NA,NA,0,0.9,0.1,0,1,71,2,NA
fcp-trial,105,533042,0.0-80.0-0.0,voc_e2,11908,"[{""event"":""fullscreenenter"",""trial"":1,""time"":1983}]",NA,NA,NA,NA,NA,4,#FA92F8,#1CD855,0,0,1,40,0,938,39,0,642,0,0,experiment,NA,NA,2,0.5,0.5,4,5,72,2,NA
fcp-trial,106,535975,0.0-81.0-0.0,voc_e2,11908,"[{""event"":""fullscreenenter"",""trial"":1,""time"":1983}]",NA,NA,NA,NA,NA,6,#741CD8,#D8271C,0,10,0,40,0,667,39,0,753,10,1,experiment,NA,NA,0,0.1,0.9,1,0,73,2,NA
fcp-trial,107,538568,0.0-82.0-0.0,voc_e2,11908,"[{""event"":""fullscreenenter"",""trial"":1,""time"":1983}]",NA,NA,NA,NA,NA,5,#3386FF,#D89F1C,0,0,1,38,1,672,39,0,407,0,0,experiment,NA,NA,1,0.7,0.3,2,3,74,2,NA
fcp-trial,108,541882,0.0-83.0-0.0,voc_e2,11908,"[{""event"":""fullscreenenter"",""trial"":1,""time"":1983}]",NA,NA,NA,NA,NA,5,#D8271C,#741CD8,10,0,1,40,0,1268,39,0,530,0,0,experiment,NA,NA,0,0.9,0.1,0,1,75,2,NA
fcp-trial,109,545305,0.0-84.0-0.0,voc_e2,11908,"[{""event"":""fullscreenenter"",""trial"":1,""time"":1983}]",NA,NA,NA,NA,NA,1,#1CD855,#FA92F8,0,10,0,40,0,1386,39,0,526,10,1,experiment,NA,NA,2,0.5,0.5,5,4,76,2,NA
fcp-trial,110,548407,0.0-85.0-0.0,voc_e2,11908,"[{""event"":""fullscreenenter"",""trial"":1,""time"":1983}]",NA,NA,NA,NA,NA,4,#3386FF,#D89F1C,10,10,1,40,0,792,39,0,798,10,0,experiment,NA,NA,1,0.7,0.3,2,3,77,2,NA
fcp-trial,111,551491,0.0-86.0-0.0,voc_e2,11908,"[{""event"":""fullscreenenter"",""trial"":1,""time"":1983}]",NA,NA,NA,NA,NA,6,#1CD855,#FA92F8,0,10,0,40,0,837,39,0,734,10,1,experiment,NA,NA,2,0.5,0.5,5,4,78,2,NA
fcp-trial,112,555069,0.0-87.0-0.0,voc_e2,11908,"[{""event"":""fullscreenenter"",""trial"":1,""time"":1983}]",NA,NA,NA,NA,NA,4,#D8271C,#741CD8,10,0,1,38,1,1386,37,1,681,10,1,experiment,NA,NA,0,0.9,0.1,0,1,79,2,NA
fcp-trial,113,557441,0.0-88.0-0.0,voc_e2,11908,"[{""event"":""fullscreenenter"",""trial"":1,""time"":1983}]",NA,NA,NA,NA,NA,3,#D89F1C,#3386FF,0,10,0,38,1,444,39,0,417,10,1,experiment,NA,NA,1,0.3,0.7,3,2,80,2,NA
fcp-trial,114,560941,0.0-89.0-0.0,voc_e2,11908,"[{""event"":""fullscreenenter"",""trial"":1,""time"":1983}]",NA,NA,NA,NA,NA,2,#D8271C,#741CD8,10,0,1,38,1,521,39,0,1467,0,0,experiment,NA,NA,0,0.9,0.1,0,1,81,2,NA
fcp-trial,115,563707,0.0-90.0-0.0,voc_e2,11908,"[{""event"":""fullscreenenter"",""trial"":1,""time"":1983}]",NA,NA,NA,NA,NA,2,#1CD855,#FA92F8,0,10,0,38,1,523,37,1,727,0,0,experiment,NA,NA,2,0.5,0.5,5,4,82,2,NA
fcp-trial,116,566589,0.0-91.0-0.0,voc_e2,11908,"[{""event"":""fullscreenenter"",""trial"":1,""time"":1983}]",NA,NA,NA,NA,NA,6,#3386FF,#D89F1C,10,10,1,40,0,526,37,1,843,10,1,experiment,NA,NA,1,0.7,0.3,2,3,83,2,NA
fcp-trial,117,569164,0.0-92.0-0.0,voc_e2,11908,"[{""event"":""fullscreenenter"",""trial"":1,""time"":1983}]",NA,NA,NA,NA,NA,1,#D89F1C,#3386FF,0,10,0,40,0,577,39,0,481,10,1,experiment,NA,NA,1,0.3,0.7,3,2,84,2,NA
fcp-trial,118,575556,0.0-93.0-0.0,voc_e2,11908,"[{""event"":""fullscreenenter"",""trial"":1,""time"":1983}]",NA,NA,NA,NA,NA,2,#741CD8,#D8271C,0,10,0,40,0,2748,39,0,2130,10,1,experiment,NA,NA,0,0.1,0.9,1,0,85,2,NA
fcp-trial,119,578136,0.0-94.0-0.0,voc_e2,11908,"[{""event"":""fullscreenenter"",""trial"":1,""time"":1983}]",NA,NA,NA,NA,NA,4,#741CD8,#D8271C,0,0,0,38,1,577,37,1,492,0,0,experiment,NA,NA,0,0.1,0.9,1,0,86,2,NA
fcp-trial,120,580657,0.0-95.0-0.0,voc_e2,11908,"[{""event"":""fullscreenenter"",""trial"":1,""time"":1983}]",NA,NA,NA,NA,NA,4,#3386FF,#D89F1C,10,0,1,38,1,699,39,0,312,0,0,experiment,NA,NA,1,0.7,0.3,2,3,87,2,NA
fcp-trial,121,584433,0.0-96.0-0.0,voc_e2,11908,"[{""event"":""fullscreenenter"",""trial"":1,""time"":1983}]",NA,NA,NA,NA,NA,6,#FA92F8,#1CD855,0,0,1,38,1,1076,37,1,1183,0,1,experiment,NA,NA,2,0.5,0.5,4,5,88,2,NA
fcp-trial,122,588092,0.0-97.0-0.0,voc_e2,11908,"[{""event"":""fullscreenenter"",""trial"":1,""time"":1983}]",NA,NA,NA,NA,NA,3,#D8271C,#741CD8,10,0,1,38,1,583,39,0,1563,0,0,experiment,NA,NA,0,0.9,0.1,0,1,89,2,NA
fcp-trial,123,590645,0.0-98.0-0.0,voc_e2,11908,"[{""event"":""fullscreenenter"",""trial"":1,""time"":1983}]",NA,NA,NA,NA,NA,2,#FA92F8,#1CD855,10,0,1,38,1,365,37,1,675,10,1,experiment,NA,NA,2,0.5,0.5,4,5,90,2,NA
fcp-trial,124,594022,0.0-99.0-0.0,voc_e2,11908,"[{""event"":""fullscreenenter"",""trial"":1,""time"":1983}]",NA,NA,NA,NA,NA,5,#3386FF,#D89F1C,0,0,1,40,0,1224,39,0,639,0,0,experiment,NA,NA,1,0.7,0.3,2,3,91,3,NA
fcp-trial,125,597510,0.0-100.0-0.0,voc_e2,11908,"[{""event"":""fullscreenenter"",""trial"":1,""time"":1983}]",NA,NA,NA,NA,NA,1,#D8271C,#741CD8,10,0,1,40,0,1258,37,1,717,10,1,experiment,NA,NA,0,0.9,0.1,0,1,92,3,NA
fcp-trial,126,600132,0.0-101.0-0.0,voc_e2,11908,"[{""event"":""fullscreenenter"",""trial"":1,""time"":1983}]",NA,NA,NA,NA,NA,6,#D8271C,#741CD8,10,0,1,38,1,652,39,0,428,0,0,experiment,NA,NA,0,0.9,0.1,0,1,93,3,NA
fcp-trial,127,602849,0.0-102.0-0.0,voc_e2,11908,"[{""event"":""fullscreenenter"",""trial"":1,""time"":1983}]",NA,NA,NA,NA,NA,4,#1CD855,#FA92F8,0,10,0,40,0,664,39,0,541,10,1,experiment,NA,NA,2,0.5,0.5,5,4,94,3,NA
fcp-trial,128,606060,0.0-103.0-0.0,voc_e2,11908,"[{""event"":""fullscreenenter"",""trial"":1,""time"":1983}]",NA,NA,NA,NA,NA,2,#D89F1C,#3386FF,0,10,0,40,0,657,37,1,1043,0,0,experiment,NA,NA,1,0.3,0.7,3,2,95,3,NA
fcp-trial,129,608801,0.0-104.0-0.0,voc_e2,11908,"[{""event"":""fullscreenenter"",""trial"":1,""time"":1983}]",NA,NA,NA,NA,NA,1,#D89F1C,#3386FF,0,0,0,40,0,439,39,0,784,0,1,experiment,NA,NA,1,0.3,0.7,3,2,96,3,NA
fcp-trial,130,610987,0.0-105.0-0.0,voc_e2,11908,"[{""event"":""fullscreenenter"",""trial"":1,""time"":1983}]",NA,NA,NA,NA,NA,0,#D8271C,#741CD8,10,10,1,40,0,380,39,0,295,10,0,experiment,NA,NA,0,0.9,0.1,0,1,97,3,NA
fcp-trial,131,613337,0.0-106.0-0.0,voc_e2,11908,"[{""event"":""fullscreenenter"",""trial"":1,""time"":1983}]",NA,NA,NA,NA,NA,1,#FA92F8,#1CD855,10,10,1,40,0,524,39,0,316,10,0,experiment,NA,NA,2,0.5,0.5,4,5,98,3,NA
fcp-trial,132,615568,0.0-107.0-0.0,voc_e2,11908,"[{""event"":""fullscreenenter"",""trial"":1,""time"":1983}]",NA,NA,NA,NA,NA,6,#3386FF,#D89F1C,10,0,1,40,0,456,39,0,261,0,0,experiment,NA,NA,1,0.7,0.3,2,3,99,3,NA
fcp-trial,133,618336,0.0-108.0-0.0,voc_e2,11908,"[{""event"":""fullscreenenter"",""trial"":1,""time"":1983}]",NA,NA,NA,NA,NA,0,#D89F1C,#3386FF,0,0,0,40,0,347,37,1,909,0,0,experiment,NA,NA,1,0.3,0.7,3,2,100,3,NA
fcp-trial,134,623205,0.0-109.0-0.0,voc_e2,11908,"[{""event"":""fullscreenenter"",""trial"":1,""time"":1983}]",NA,NA,NA,NA,NA,5,#D8271C,#741CD8,10,0,1,40,0,990,39,0,2366,0,0,experiment,NA,NA,0,0.9,0.1,0,1,101,3,NA
fcp-trial,135,626911,0.0-110.0-0.0,voc_e2,11908,"[{""event"":""fullscreenenter"",""trial"":1,""time"":1983}]",NA,NA,NA,NA,NA,3,#FA92F8,#1CD855,0,10,1,40,0,1225,37,1,966,0,1,experiment,NA,NA,2,0.5,0.5,4,5,102,3,NA
fcp-trial,136,629607,0.0-111.0-0.0,voc_e2,11908,"[{""event"":""fullscreenenter"",""trial"":1,""time"":1983}]",NA,NA,NA,NA,NA,0,#1CD855,#FA92F8,0,0,0,38,1,737,39,0,442,0,1,experiment,NA,NA,2,0.5,0.5,5,4,103,3,NA
fcp-trial,137,632356,0.0-112.0-0.0,voc_e2,11908,"[{""event"":""fullscreenenter"",""trial"":1,""time"":1983}]",NA,NA,NA,NA,NA,5,#FA92F8,#1CD855,0,0,1,40,0,623,37,1,613,0,1,experiment,NA,NA,2,0.5,0.5,4,5,104,3,NA
fcp-trial,138,637767,0.0-113.0-0.0,voc_e2,11908,"[{""event"":""fullscreenenter"",""trial"":1,""time"":1983}]",NA,NA,NA,NA,NA,3,#3386FF,#D89F1C,10,0,1,38,1,1525,39,0,2369,0,0,experiment,NA,NA,1,0.7,0.3,2,3,105,3,NA
audio-instructions,139,643131,0.0-114.0,voc_e2,11908,"[{""event"":""fullscreenenter"",""trial"":1,""time"":1983}]",NA,838,static/audio/pause.wav,NA,0,NA,NA,NA,NA,NA,NA,NA,NA,NA,NA,NA,NA,NA,NA,NA,NA,NA,NA,NA,NA,NA,NA,NA,NA,NA
fcp-trial,140,647014,0.0-115.0-0.0,voc_e2,11908,"[{""event"":""fullscreenenter"",""trial"":1,""time"":1983}]",NA,NA,NA,NA,NA,6,#FA92F8,#1CD855,10,10,1,40,0,1867,39,0,498,10,0,experiment,NA,NA,2,0.5,0.5,4,5,106,3,NA
fcp-trial,141,650720,0.0-116.0-0.0,voc_e2,11908,"[{""event"":""fullscreenenter"",""trial"":1,""time"":1983}]",NA,NA,NA,NA,NA,2,#741CD8,#D8271C,0,10,0,40,0,1537,39,0,657,10,1,experiment,NA,NA,0,0.1,0.9,1,0,107,3,NA
fcp-trial,142,653857,0.0-117.0-0.0,voc_e2,11908,"[{""event"":""fullscreenenter"",""trial"":1,""time"":1983}]",NA,NA,NA,NA,NA,1,#FA92F8,#1CD855,0,10,1,40,0,463,37,1,1162,0,1,experiment,NA,NA,2,0.5,0.5,4,5,108,3,NA
fcp-trial,143,656826,0.0-118.0-0.0,voc_e2,11908,"[{""event"":""fullscreenenter"",""trial"":1,""time"":1983}]",NA,NA,NA,NA,NA,4,#D89F1C,#3386FF,10,10,0,40,0,546,37,1,907,10,0,experiment,NA,NA,1,0.3,0.7,3,2,109,3,NA
fcp-trial,144,662783,0.0-119.0-0.0,voc_e2,11908,"[{""event"":""fullscreenenter"",""trial"":1,""time"":1983}]",NA,NA,NA,NA,NA,1,#D8271C,#741CD8,10,10,1,40,0,1220,37,1,3223,10,1,experiment,NA,NA,0,0.9,0.1,0,1,110,3,NA
fcp-trial,145,666621,0.0-120.0-0.0,voc_e2,11908,"[{""event"":""fullscreenenter"",""trial"":1,""time"":1983}]",NA,NA,NA,NA,NA,5,#FA92F8,#1CD855,0,10,1,40,0,1927,39,0,401,10,0,experiment,NA,NA,2,0.5,0.5,4,5,111,3,NA
fcp-trial,146,671240,0.0-121.0-0.0,voc_e2,11908,"[{""event"":""fullscreenenter"",""trial"":1,""time"":1983}]",NA,NA,NA,NA,NA,1,#3386FF,#D89F1C,10,0,1,40,0,2147,37,1,958,10,1,experiment,NA,NA,1,0.7,0.3,2,3,112,3,NA
fcp-trial,147,674035,0.0-122.0-0.0,voc_e2,11908,"[{""event"":""fullscreenenter"",""trial"":1,""time"":1983}]",NA,NA,NA,NA,NA,5,#D8271C,#741CD8,10,0,1,40,0,532,37,1,744,10,1,experiment,NA,NA,0,0.9,0.1,0,1,113,3,NA
fcp-trial,148,677979,0.0-123.0-0.0,voc_e2,11908,"[{""event"":""fullscreenenter"",""trial"":1,""time"":1983}]",NA,NA,NA,NA,NA,2,#FA92F8,#1CD855,0,0,1,40,0,1396,39,0,1036,0,0,experiment,NA,NA,2,0.5,0.5,4,5,114,3,NA
fcp-trial,149,682411,0.0-124.0-0.0,voc_e2,11908,"[{""event"":""fullscreenenter"",""trial"":1,""time"":1983}]",NA,NA,NA,NA,NA,4,#D8271C,#741CD8,10,0,1,40,0,2185,37,1,736,10,1,experiment,NA,NA,0,0.9,0.1,0,1,115,3,NA
fcp-trial,150,684964,0.0-125.0-0.0,voc_e2,11908,"[{""event"":""fullscreenenter"",""trial"":1,""time"":1983}]",NA,NA,NA,NA,NA,0,#D89F1C,#3386FF,10,10,0,40,0,124,39,0,915,10,1,experiment,NA,NA,1,0.3,0.7,3,2,116,3,NA
fcp-trial,151,687549,0.0-126.0-0.0,voc_e2,11908,"[{""event"":""fullscreenenter"",""trial"":1,""time"":1983}]",NA,NA,NA,NA,NA,6,#D8271C,#741CD8,10,0,1,38,1,496,39,0,574,0,0,experiment,NA,NA,0,0.9,0.1,0,1,117,3,NA
fcp-trial,152,690298,0.0-127.0-0.0,voc_e2,11908,"[{""event"":""fullscreenenter"",""trial"":1,""time"":1983}]",NA,NA,NA,NA,NA,0,#741CD8,#D8271C,0,10,0,40,0,459,37,1,773,0,0,experiment,NA,NA,0,0.1,0.9,1,0,118,3,NA
fcp-trial,153,694468,0.0-128.0-0.0,voc_e2,11908,"[{""event"":""fullscreenenter"",""trial"":1,""time"":1983}]",NA,NA,NA,NA,NA,4,#FA92F8,#1CD855,10,0,1,38,1,1975,39,0,682,0,0,experiment,NA,NA,2,0.5,0.5,4,5,119,3,NA
fcp-trial,154,697108,0.0-129.0-0.0,voc_e2,11908,"[{""event"":""fullscreenenter"",""trial"":1,""time"":1983}]",NA,NA,NA,NA,NA,2,#3386FF,#D89F1C,10,0,1,40,0,557,39,0,572,0,0,experiment,NA,NA,1,0.7,0.3,2,3,120,3,NA
fcp-trial,155,699607,0.0-130.0-0.0,voc_e2,11908,"[{""event"":""fullscreenenter"",""trial"":1,""time"":1983}]",NA,NA,NA,NA,NA,3,#1CD855,#FA92F8,0,0,0,40,0,644,37,1,343,0,0,experiment,NA,NA,2,0.5,0.5,5,4,121,3,NA
fcp-trial,156,701779,0.0-131.0-0.0,voc_e2,11908,"[{""event"":""fullscreenenter"",""trial"":1,""time"":1983}]",NA,NA,NA,NA,NA,3,#D8271C,#741CD8,10,0,1,40,0,313,39,0,349,0,0,experiment,NA,NA,0,0.9,0.1,0,1,122,3,NA
fcp-trial,157,704675,0.0-132.0-0.0,voc_e2,11908,"[{""event"":""fullscreenenter"",""trial"":1,""time"":1983}]",NA,NA,NA,NA,NA,5,#D89F1C,#3386FF,0,10,0,40,0,878,37,1,505,0,0,experiment,NA,NA,1,0.3,0.7,3,2,123,3,NA
fcp-trial,158,707629,0.0-133.0-0.0,voc_e2,11908,"[{""event"":""fullscreenenter"",""trial"":1,""time"":1983}]",NA,NA,NA,NA,NA,3,#3386FF,#D89F1C,10,0,1,40,0,423,37,1,1016,10,1,experiment,NA,NA,1,0.7,0.3,2,3,124,3,NA
fcp-trial,159,710686,0.0-134.0-0.0,voc_e2,11908,"[{""event"":""fullscreenenter"",""trial"":1,""time"":1983}]",NA,NA,NA,NA,NA,6,#3386FF,#D89F1C,0,0,1,40,0,832,37,1,710,0,1,experiment,NA,NA,1,0.7,0.3,2,3,125,3,NA
fcp-trial,160,713802,0.0-135.0-0.0,voc_e2,11908,"[{""event"":""fullscreenenter"",""trial"":1,""time"":1983}]",NA,NA,NA,NA,NA,0,#1CD855,#FA92F8,10,0,0,40,0,1061,39,0,547,0,1,experiment,NA,NA,2,0.5,0.5,5,4,126,3,NA
fcp-trial,161,716053,0.0-136.0-0.0,voc_e2,11908,"[{""event"":""fullscreenenter"",""trial"":1,""time"":1983}]",NA,NA,NA,NA,NA,4,#FA92F8,#1CD855,10,0,1,40,0,106,37,1,632,10,1,experiment,NA,NA,2,0.5,0.5,4,5,127,3,NA
fcp-trial,162,718861,0.0-137.0-0.0,voc_e2,11908,"[{""event"":""fullscreenenter"",""trial"":1,""time"":1983}]",NA,NA,NA,NA,NA,5,#3386FF,#D89F1C,0,0,1,40,0,463,39,0,835,0,0,experiment,NA,NA,1,0.7,0.3,2,3,128,3,NA
fcp-trial,163,721022,0.0-138.0-0.0,voc_e2,11908,"[{""event"":""fullscreenenter"",""trial"":1,""time"":1983}]",NA,NA,NA,NA,NA,1,#1CD855,#FA92F8,0,10,0,40,0,304,37,1,342,0,0,experiment,NA,NA,2,0.5,0.5,5,4,129,3,NA
fcp-trial,164,723867,0.0-139.0-0.0,voc_e2,11908,"[{""event"":""fullscreenenter"",""trial"":1,""time"":1983}]",NA,NA,NA,NA,NA,4,#741CD8,#D8271C,0,10,0,40,0,1077,39,0,251,10,1,experiment,NA,NA,0,0.1,0.9,1,0,130,3,NA
fcp-trial,165,726334,0.0-140.0-0.0,voc_e2,11908,"[{""event"":""fullscreenenter"",""trial"":1,""time"":1983}]",NA,NA,NA,NA,NA,4,#D89F1C,#3386FF,10,10,0,38,1,643,37,1,312,10,0,experiment,NA,NA,1,0.3,0.7,3,2,131,3,NA
fcp-trial,166,730462,0.0-141.0-0.0,voc_e2,11908,"[{""event"":""fullscreenenter"",""trial"":1,""time"":1983}]",NA,NA,NA,NA,NA,3,#D8271C,#741CD8,0,0,1,40,0,2033,39,0,579,0,0,experiment,NA,NA,0,0.9,0.1,0,1,132,3,NA
fcp-trial,167,733129,0.0-142.0-0.0,voc_e2,11908,"[{""event"":""fullscreenenter"",""trial"":1,""time"":1983}]",NA,NA,NA,NA,NA,6,#1CD855,#FA92F8,10,0,0,38,1,767,37,1,384,10,0,experiment,NA,NA,2,0.5,0.5,5,4,133,3,NA
fcp-trial,168,736193,0.0-143.0-0.0,voc_e2,11908,"[{""event"":""fullscreenenter"",""trial"":1,""time"":1983}]",NA,NA,NA,NA,NA,1,#741CD8,#D8271C,0,0,0,38,1,1046,39,0,503,0,1,experiment,NA,NA,0,0.1,0.9,1,0,134,3,NA
fcp-trial,169,738906,0.0-144.0-0.0,voc_e2,11908,"[{""event"":""fullscreenenter"",""trial"":1,""time"":1983}]",NA,NA,NA,NA,NA,3,#1CD855,#FA92F8,10,0,0,40,0,826,37,1,377,10,0,experiment,NA,NA,2,0.5,0.5,5,4,135,3,NA
fcp-trial,170,742296,0.0-145.0-0.0,voc_e2,11908,"[{""event"":""fullscreenenter"",""trial"":1,""time"":1983}]",NA,NA,NA,NA,NA,2,#D89F1C,#3386FF,0,0,0,40,0,1113,39,0,768,0,1,experiment,NA,NA,1,0.3,0.7,3,2,136,4,NA
fcp-trial,171,745219,0.0-146.0-0.0,voc_e2,11908,"[{""event"":""fullscreenenter"",""trial"":1,""time"":1983}]",NA,NA,NA,NA,NA,0,#D89F1C,#3386FF,0,10,0,38,1,667,37,1,739,0,0,experiment,NA,NA,1,0.3,0.7,3,2,137,4,NA
fcp-trial,172,748050,0.0-147.0-0.0,voc_e2,11908,"[{""event"":""fullscreenenter"",""trial"":1,""time"":1983}]",NA,NA,NA,NA,NA,0,#1CD855,#FA92F8,0,0,0,40,0,521,37,1,794,0,0,experiment,NA,NA,2,0.5,0.5,5,4,138,4,NA
fcp-trial,173,750563,0.0-148.0-0.0,voc_e2,11908,"[{""event"":""fullscreenenter"",""trial"":1,""time"":1983}]",NA,NA,NA,NA,NA,5,#D8271C,#741CD8,10,0,1,38,1,671,39,0,322,0,0,experiment,NA,NA,0,0.9,0.1,0,1,139,4,NA
fcp-trial,174,752834,0.0-149.0-0.0,voc_e2,11908,"[{""event"":""fullscreenenter"",""trial"":1,""time"":1983}]",NA,NA,NA,NA,NA,1,#D89F1C,#3386FF,10,10,0,40,0,371,37,1,388,10,0,experiment,NA,NA,1,0.3,0.7,3,2,140,4,NA
fcp-trial,175,756001,0.0-150.0-0.0,voc_e2,11908,"[{""event"":""fullscreenenter"",""trial"":1,""time"":1983}]",NA,NA,NA,NA,NA,6,#D8271C,#741CD8,10,0,1,38,1,1026,37,1,628,10,1,experiment,NA,NA,0,0.9,0.1,0,1,141,4,NA
fcp-trial,176,759021,0.0-151.0-0.0,voc_e2,11908,"[{""event"":""fullscreenenter"",""trial"":1,""time"":1983}]",NA,NA,NA,NA,NA,2,#1CD855,#FA92F8,10,10,0,40,0,532,37,1,977,10,0,experiment,NA,NA,2,0.5,0.5,5,4,142,4,NA
fcp-trial,177,761937,0.0-152.0-0.0,voc_e2,11908,"[{""event"":""fullscreenenter"",""trial"":1,""time"":1983}]",NA,NA,NA,NA,NA,5,#1CD855,#FA92F8,10,10,0,38,1,1000,39,0,400,10,1,experiment,NA,NA,2,0.5,0.5,5,4,143,4,NA
fcp-trial,178,764701,0.0-153.0-0.0,voc_e2,11908,"[{""event"":""fullscreenenter"",""trial"":1,""time"":1983}]",NA,NA,NA,NA,NA,2,#D8271C,#741CD8,10,0,1,40,0,811,37,1,440,10,1,experiment,NA,NA,0,0.9,0.1,0,1,144,4,NA
fcp-trial,179,768551,0.0-154.0-0.0,voc_e2,11908,"[{""event"":""fullscreenenter"",""trial"":1,""time"":1983}]",NA,NA,NA,NA,NA,3,#D89F1C,#3386FF,0,10,0,38,1,1057,37,1,1277,0,0,experiment,NA,NA,1,0.3,0.7,3,2,145,4,NA
fcp-trial,180,771613,0.0-155.0-0.0,voc_e2,11908,"[{""event"":""fullscreenenter"",""trial"":1,""time"":1983}]",NA,NA,NA,NA,NA,6,#D89F1C,#3386FF,0,10,0,40,0,770,37,1,779,0,0,experiment,NA,NA,1,0.3,0.7,3,2,146,4,NA
fcp-trial,181,774872,0.0-156.0-0.0,voc_e2,11908,"[{""event"":""fullscreenenter"",""trial"":1,""time"":1983}]",NA,NA,NA,NA,NA,0,#D8271C,#741CD8,10,0,1,38,1,1361,39,0,385,0,0,experiment,NA,NA,0,0.9,0.1,0,1,147,4,NA
fcp-trial,182,777121,0.0-157.0-0.0,voc_e2,11908,"[{""event"":""fullscreenenter"",""trial"":1,""time"":1983}]",NA,NA,NA,NA,NA,4,#D8271C,#741CD8,10,0,1,40,0,298,37,1,438,10,1,experiment,NA,NA,0,0.9,0.1,0,1,148,4,NA
fcp-trial,183,781529,0.0-158.0-0.0,voc_e2,11908,"[{""event"":""fullscreenenter"",""trial"":1,""time"":1983}]",NA,NA,NA,NA,NA,1,#D89F1C,#3386FF,10,0,0,38,1,2610,39,0,285,0,1,experiment,NA,NA,1,0.3,0.7,3,2,149,4,NA
fcp-trial,184,784685,0.0-159.0-0.0,voc_e2,11908,"[{""event"":""fullscreenenter"",""trial"":1,""time"":1983}]",NA,NA,NA,NA,NA,3,#1CD855,#FA92F8,10,0,0,40,0,696,39,0,949,0,1,experiment,NA,NA,2,0.5,0.5,5,4,150,4,NA
fcp-trial,185,787700,0.0-160.0-0.0,voc_e2,11908,"[{""event"":""fullscreenenter"",""trial"":1,""time"":1983}]",NA,NA,NA,NA,NA,4,#D89F1C,#3386FF,0,10,0,40,0,638,39,0,861,10,1,experiment,NA,NA,1,0.3,0.7,3,2,151,4,NA
fcp-trial,186,789917,0.0-161.0-0.0,voc_e2,11908,"[{""event"":""fullscreenenter"",""trial"":1,""time"":1983}]",NA,NA,NA,NA,NA,5,#D8271C,#741CD8,10,0,1,38,1,360,37,1,348,10,1,experiment,NA,NA,0,0.9,0.1,0,1,152,4,NA
fcp-trial,187,792922,0.0-162.0-0.0,voc_e2,11908,"[{""event"":""fullscreenenter"",""trial"":1,""time"":1983}]",NA,NA,NA,NA,NA,0,#FA92F8,#1CD855,0,0,1,40,0,811,37,1,681,0,1,experiment,NA,NA,2,0.5,0.5,4,5,153,4,NA
fcp-trial,188,795488,0.0-163.0-0.0,voc_e2,11908,"[{""event"":""fullscreenenter"",""trial"":1,""time"":1983}]",NA,NA,NA,NA,NA,2,#1CD855,#FA92F8,10,0,0,38,1,778,39,0,275,0,1,experiment,NA,NA,2,0.5,0.5,5,4,154,4,NA
fcp-trial,189,798314,0.0-164.0-0.0,voc_e2,11908,"[{""event"":""fullscreenenter"",""trial"":1,""time"":1983}]",NA,NA,NA,NA,NA,2,#741CD8,#D8271C,0,10,0,38,1,1052,37,1,259,0,0,experiment,NA,NA,0,0.1,0.9,1,0,155,4,NA
fcp-trial,190,801153,0.0-165.0-0.0,voc_e2,11908,"[{""event"":""fullscreenenter"",""trial"":1,""time"":1983}]",NA,NA,NA,NA,NA,6,#D89F1C,#3386FF,0,0,0,40,0,612,37,1,715,0,0,experiment,NA,NA,1,0.3,0.7,3,2,156,4,NA
fcp-trial,191,804326,0.0-166.0-0.0,voc_e2,11908,"[{""event"":""fullscreenenter"",""trial"":1,""time"":1983}]",NA,NA,NA,NA,NA,0,#3386FF,#D89F1C,0,0,1,40,0,834,39,0,823,0,0,experiment,NA,NA,1,0.7,0.3,2,3,157,4,NA
fcp-trial,192,807339,0.0-167.0-0.0,voc_e2,11908,"[{""event"":""fullscreenenter"",""trial"":1,""time"":1983}]",NA,NA,NA,NA,NA,4,#1CD855,#FA92F8,10,0,0,40,0,833,39,0,669,0,1,experiment,NA,NA,2,0.5,0.5,5,4,158,4,NA
fcp-trial,193,810103,0.0-168.0-0.0,voc_e2,11908,"[{""event"":""fullscreenenter"",""trial"":1,""time"":1983}]",NA,NA,NA,NA,NA,6,#741CD8,#D8271C,0,10,0,40,0,499,39,0,749,10,1,experiment,NA,NA,0,0.1,0.9,1,0,159,4,NA
fcp-trial,194,813031,0.0-169.0-0.0,voc_e2,11908,"[{""event"":""fullscreenenter"",""trial"":1,""time"":1983}]",NA,NA,NA,NA,NA,5,#D89F1C,#3386FF,0,10,0,40,0,146,37,1,1269,0,0,experiment,NA,NA,1,0.3,0.7,3,2,160,4,NA
fcp-trial,195,815903,0.0-170.0-0.0,voc_e2,11908,"[{""event"":""fullscreenenter"",""trial"":1,""time"":1983}]",NA,NA,NA,NA,NA,3,#D8271C,#741CD8,10,0,1,40,0,792,39,0,566,0,0,experiment,NA,NA,0,0.9,0.1,0,1,161,4,NA
fcp-trial,196,818262,0.0-171.0-0.0,voc_e2,11908,"[{""event"":""fullscreenenter"",""trial"":1,""time"":1983}]",NA,NA,NA,NA,NA,3,#D89F1C,#3386FF,10,0,0,40,0,458,37,1,384,10,0,experiment,NA,NA,1,0.3,0.7,3,2,162,4,NA
fcp-trial,197,820441,0.0-172.0-0.0,voc_e2,11908,"[{""event"":""fullscreenenter"",""trial"":1,""time"":1983}]",NA,NA,NA,NA,NA,6,#FA92F8,#1CD855,0,10,1,40,0,339,39,0,327,10,0,experiment,NA,NA,2,0.5,0.5,4,5,163,4,NA
fcp-trial,198,822685,0.0-173.0-0.0,voc_e2,11908,"[{""event"":""fullscreenenter"",""trial"":1,""time"":1983}]",NA,NA,NA,NA,NA,0,#741CD8,#D8271C,0,10,0,40,0,4,39,0,724,10,1,experiment,NA,NA,0,0.1,0.9,1,0,164,4,NA
fcp-trial,199,824960,0.0-174.0-0.0,voc_e2,11908,"[{""event"":""fullscreenenter"",""trial"":1,""time"":1983}]",NA,NA,NA,NA,NA,1,#D8271C,#741CD8,10,0,1,40,0,26,37,1,736,10,1,experiment,NA,NA,0,0.9,0.1,0,1,165,4,NA
fcp-trial,200,827231,0.0-175.0-0.0,voc_e2,11908,"[{""event"":""fullscreenenter"",""trial"":1,""time"":1983}]",NA,NA,NA,NA,NA,1,#1CD855,#FA92F8,0,10,0,40,0,271,39,0,495,10,1,experiment,NA,NA,2,0.5,0.5,5,4,166,4,NA
fcp-trial,201,829321,0.0-176.0-0.0,voc_e2,11908,"[{""event"":""fullscreenenter"",""trial"":1,""time"":1983}]",NA,NA,NA,NA,NA,2,#3386FF,#D89F1C,10,10,1,40,0,195,37,1,382,10,1,experiment,NA,NA,1,0.7,0.3,2,3,167,4,NA
fcp-trial,202,831872,0.0-177.0-0.0,voc_e2,11908,"[{""event"":""fullscreenenter"",""trial"":1,""time"":1983}]",NA,NA,NA,NA,NA,5,#FA92F8,#1CD855,10,0,1,40,0,297,37,1,746,10,1,experiment,NA,NA,2,0.5,0.5,4,5,168,4,NA
fcp-trial,203,834674,0.0-178.0-0.0,voc_e2,11908,"[{""event"":""fullscreenenter"",""trial"":1,""time"":1983}]",NA,NA,NA,NA,NA,0,#3386FF,#D89F1C,10,0,1,40,0,540,37,1,750,10,1,experiment,NA,NA,1,0.7,0.3,2,3,169,4,NA
fcp-trial,204,837456,0.0-179.0-0.0,voc_e2,11908,"[{""event"":""fullscreenenter"",""trial"":1,""time"":1983}]",NA,NA,NA,NA,NA,3,#1CD855,#FA92F8,10,10,0,40,0,757,37,1,515,10,0,experiment,NA,NA,2,0.5,0.5,5,4,170,4,NA
fcp-trial,205,839713,0.0-180.0-0.0,voc_e2,11908,"[{""event"":""fullscreenenter"",""trial"":1,""time"":1983}]",NA,NA,NA,NA,NA,3,#D89F1C,#3386FF,0,0,0,40,0,208,39,0,533,0,1,experiment,NA,NA,1,0.3,0.7,3,2,171,4,NA
fcp-trial,206,841808,0.0-181.0-0.0,voc_e2,11908,"[{""event"":""fullscreenenter"",""trial"":1,""time"":1983}]",NA,NA,NA,NA,NA,4,#FA92F8,#1CD855,10,10,1,40,0,132,37,1,450,10,1,experiment,NA,NA,2,0.5,0.5,4,5,172,4,NA
fcp-trial,207,844328,0.0-182.0-0.0,voc_e2,11908,"[{""event"":""fullscreenenter"",""trial"":1,""time"":1983}]",NA,NA,NA,NA,NA,0,#741CD8,#D8271C,0,10,0,40,0,321,37,1,685,0,0,experiment,NA,NA,0,0.1,0.9,1,0,173,4,NA
fcp-trial,208,847814,0.0-183.0-0.0,voc_e2,11908,"[{""event"":""fullscreenenter"",""trial"":1,""time"":1983}]",NA,NA,NA,NA,NA,2,#741CD8,#D8271C,0,10,0,40,0,1406,37,1,569,0,0,experiment,NA,NA,0,0.1,0.9,1,0,174,4,NA
fcp-trial,209,850249,0.0-184.0-0.0,voc_e2,11908,"[{""event"":""fullscreenenter"",""trial"":1,""time"":1983}]",NA,NA,NA,NA,NA,5,#741CD8,#D8271C,0,10,0,40,0,372,39,0,552,10,1,experiment,NA,NA,0,0.1,0.9,1,0,175,4,NA
fcp-trial,210,854826,0.0-185.0-0.0,voc_e2,11908,"[{""event"":""fullscreenenter"",""trial"":1,""time"":1983}]",NA,NA,NA,NA,NA,5,#3386FF,#D89F1C,0,0,1,40,0,2530,37,1,538,0,1,experiment,NA,NA,1,0.7,0.3,2,3,176,4,NA
fcp-trial,211,857616,0.0-186.0-0.0,voc_e2,11908,"[{""event"":""fullscreenenter"",""trial"":1,""time"":1983}]",NA,NA,NA,NA,NA,1,#FA92F8,#1CD855,0,0,1,40,0,668,37,1,612,0,1,experiment,NA,NA,2,0.5,0.5,4,5,177,4,NA
fcp-trial,212,860251,0.0-187.0-0.0,voc_e2,11908,"[{""event"":""fullscreenenter"",""trial"":1,""time"":1983}]",NA,NA,NA,NA,NA,6,#3386FF,#D89F1C,10,0,1,40,0,537,39,0,583,0,0,experiment,NA,NA,1,0.7,0.3,2,3,178,4,NA
fcp-trial,213,862613,0.0-188.0-0.0,voc_e2,11908,"[{""event"":""fullscreenenter"",""trial"":1,""time"":1983}]",NA,NA,NA,NA,NA,4,#D8271C,#741CD8,10,0,1,40,0,310,39,0,538,0,0,experiment,NA,NA,0,0.9,0.1,0,1,179,4,NA
fcp-trial,214,864935,0.0-189.0-0.0,voc_e2,11908,"[{""event"":""fullscreenenter"",""trial"":1,""time"":1983}]",NA,NA,NA,NA,NA,2,#1CD855,#FA92F8,0,0,0,40,0,141,39,0,667,0,1,experiment,NA,NA,2,0.5,0.5,5,4,180,4,NA
fcp-trial,215,867482,0.0-190.0-0.0,voc_e2,11908,"[{""event"":""fullscreenenter"",""trial"":1,""time"":1983}]",NA,NA,NA,NA,NA,6,#D8271C,#741CD8,10,0,1,40,0,618,39,0,417,0,0,experiment,NA,NA,0,0.9,0.1,0,1,181,5,NA
fcp-trial,216,869679,0.0-191.0-0.0,voc_e2,11908,"[{""event"":""fullscreenenter"",""trial"":1,""time"":1983}]",NA,NA,NA,NA,NA,3,#D8271C,#741CD8,0,0,1,40,0,111,39,0,576,0,0,experiment,NA,NA,0,0.9,0.1,0,1,182,5,NA
fcp-trial,217,872330,0.0-192.0-0.0,voc_e2,11908,"[{""event"":""fullscreenenter"",""trial"":1,""time"":1983}]",NA,NA,NA,NA,NA,2,#3386FF,#D89F1C,10,0,1,40,0,500,39,0,641,0,0,experiment,NA,NA,1,0.7,0.3,2,3,183,5,NA
fcp-trial,218,875126,0.0-193.0-0.0,voc_e2,11908,"[{""event"":""fullscreenenter"",""trial"":1,""time"":1983}]",NA,NA,NA,NA,NA,1,#3386FF,#D89F1C,0,10,1,40,0,517,37,1,766,0,1,experiment,NA,NA,1,0.7,0.3,2,3,184,5,NA
fcp-trial,219,877999,0.0-194.0-0.0,voc_e2,11908,"[{""event"":""fullscreenenter"",""trial"":1,""time"":1983}]",NA,NA,NA,NA,NA,6,#FA92F8,#1CD855,0,10,1,40,0,581,37,1,785,0,1,experiment,NA,NA,2,0.5,0.5,4,5,185,5,NA
fcp-trial,220,880614,0.0-195.0-0.0,voc_e2,11908,"[{""event"":""fullscreenenter"",""trial"":1,""time"":1983}]",NA,NA,NA,NA,NA,5,#FA92F8,#1CD855,0,10,1,40,0,536,37,1,565,0,1,experiment,NA,NA,2,0.5,0.5,4,5,186,5,NA
fcp-trial,221,883100,0.0-196.0-0.0,voc_e2,11908,"[{""event"":""fullscreenenter"",""trial"":1,""time"":1983}]",NA,NA,NA,NA,NA,1,#D8271C,#741CD8,10,0,1,40,0,362,37,1,612,10,1,experiment,NA,NA,0,0.9,0.1,0,1,187,5,NA
fcp-trial,222,885626,0.0-197.0-0.0,voc_e2,11908,"[{""event"":""fullscreenenter"",""trial"":1,""time"":1983}]",NA,NA,NA,NA,NA,4,#3386FF,#D89F1C,10,0,1,40,0,486,39,0,522,0,0,experiment,NA,NA,1,0.7,0.3,2,3,188,5,NA
fcp-trial,223,888183,0.0-198.0-0.0,voc_e2,11908,"[{""event"":""fullscreenenter"",""trial"":1,""time"":1983}]",NA,NA,NA,NA,NA,0,#FA92F8,#1CD855,10,0,1,40,0,502,37,1,547,10,1,experiment,NA,NA,2,0.5,0.5,4,5,189,5,NA
fcp-trial,224,891402,0.0-199.0-0.0,voc_e2,11908,"[{""event"":""fullscreenenter"",""trial"":1,""time"":1983}]",NA,NA,NA,NA,NA,6,#D89F1C,#3386FF,0,10,0,40,0,1254,37,1,452,0,0,experiment,NA,NA,1,0.3,0.7,3,2,190,5,NA
fcp-trial,225,893666,0.0-200.0-0.0,voc_e2,11908,"[{""event"":""fullscreenenter"",""trial"":1,""time"":1983}]",NA,NA,NA,NA,NA,3,#1CD855,#FA92F8,10,10,0,40,0,115,39,0,632,10,1,experiment,NA,NA,2,0.5,0.5,5,4,191,5,NA
fcp-trial,226,896722,0.0-201.0-0.0,voc_e2,11908,"[{""event"":""fullscreenenter"",""trial"":1,""time"":1983}]",NA,NA,NA,NA,NA,0,#1CD855,#FA92F8,0,0,0,40,0,986,39,0,553,0,1,experiment,NA,NA,2,0.5,0.5,5,4,192,5,NA
fcp-trial,227,899833,0.0-202.0-0.0,voc_e2,11908,"[{""event"":""fullscreenenter"",""trial"":1,""time"":1983}]",NA,NA,NA,NA,NA,6,#FA92F8,#1CD855,0,0,1,40,0,1091,37,1,508,0,1,experiment,NA,NA,2,0.5,0.5,4,5,193,5,NA
fcp-trial,228,903289,0.0-203.0-0.0,voc_e2,11908,"[{""event"":""fullscreenenter"",""trial"":1,""time"":1983}]",NA,NA,NA,NA,NA,1,#741CD8,#D8271C,0,10,0,38,1,1359,39,0,585,10,1,experiment,NA,NA,0,0.1,0.9,1,0,194,5,NA
fcp-trial,229,905986,0.0-204.0-0.0,voc_e2,11908,"[{""event"":""fullscreenenter"",""trial"":1,""time"":1983}]",NA,NA,NA,NA,NA,1,#D89F1C,#3386FF,10,10,0,40,0,650,39,0,532,10,1,experiment,NA,NA,1,0.3,0.7,3,2,195,5,NA
fcp-trial,230,910696,0.0-205.0-0.0,voc_e2,11908,"[{""event"":""fullscreenenter"",""trial"":1,""time"":1983}]",NA,NA,NA,NA,NA,5,#741CD8,#D8271C,0,10,0,38,1,681,37,1,2520,0,0,experiment,NA,NA,0,0.1,0.9,1,0,196,5,NA
fcp-trial,231,913167,0.0-206.0-0.0,voc_e2,11908,"[{""event"":""fullscreenenter"",""trial"":1,""time"":1983}]",NA,NA,NA,NA,NA,2,#FA92F8,#1CD855,0,10,1,40,0,434,39,0,519,10,0,experiment,NA,NA,2,0.5,0.5,4,5,197,5,NA
fcp-trial,232,916846,0.0-207.0-0.0,voc_e2,11908,"[{""event"":""fullscreenenter"",""trial"":1,""time"":1983}]",NA,NA,NA,NA,NA,4,#D8271C,#741CD8,10,0,1,40,0,1743,39,0,426,0,0,experiment,NA,NA,0,0.9,0.1,0,1,198,5,NA
fcp-trial,233,919371,0.0-208.0-0.0,voc_e2,11908,"[{""event"":""fullscreenenter"",""trial"":1,""time"":1983}]",NA,NA,NA,NA,NA,4,#FA92F8,#1CD855,0,0,1,40,0,413,37,1,597,0,1,experiment,NA,NA,2,0.5,0.5,4,5,199,5,NA
fcp-trial,234,923139,0.0-209.0-0.0,voc_e2,11908,"[{""event"":""fullscreenenter"",""trial"":1,""time"":1983}]",NA,NA,NA,NA,NA,5,#3386FF,#D89F1C,0,10,1,40,0,1582,37,1,675,0,1,experiment,NA,NA,1,0.7,0.3,2,3,200,5,NA
fcp-trial,235,925213,0.0-210.0-0.0,voc_e2,11908,"[{""event"":""fullscreenenter"",""trial"":1,""time"":1983}]",NA,NA,NA,NA,NA,0,#D8271C,#741CD8,10,0,1,40,0,9,39,0,554,0,0,experiment,NA,NA,0,0.9,0.1,0,1,201,5,NA
fcp-trial,236,927346,0.0-211.0-0.0,voc_e2,11908,"[{""event"":""fullscreenenter"",""trial"":1,""time"":1983}]",NA,NA,NA,NA,NA,4,#3386FF,#D89F1C,10,0,1,40,0,35,39,0,583,0,0,experiment,NA,NA,1,0.7,0.3,2,3,202,5,NA
fcp-trial,237,929591,0.0-212.0-0.0,voc_e2,11908,"[{""event"":""fullscreenenter"",""trial"":1,""time"":1983}]",NA,NA,NA,NA,NA,5,#FA92F8,#1CD855,10,10,1,40,0,248,39,0,486,10,0,experiment,NA,NA,2,0.5,0.5,4,5,203,5,NA
fcp-trial,238,933081,0.0-213.0-0.0,voc_e2,11908,"[{""event"":""fullscreenenter"",""trial"":1,""time"":1983}]",NA,NA,NA,NA,NA,3,#741CD8,#D8271C,0,0,0,40,0,1507,37,1,473,0,0,experiment,NA,NA,0,0.1,0.9,1,0,204,5,NA
fcp-trial,239,936102,0.0-214.0-0.0,voc_e2,11908,"[{""event"":""fullscreenenter"",""trial"":1,""time"":1983}]",NA,NA,NA,NA,NA,6,#D8271C,#741CD8,10,0,1,40,0,1050,39,0,460,0,0,experiment,NA,NA,0,0.9,0.1,0,1,205,5,NA
fcp-trial,240,939468,0.0-215.0-0.0,voc_e2,11908,"[{""event"":""fullscreenenter"",""trial"":1,""time"":1983}]",NA,NA,NA,NA,NA,1,#FA92F8,#1CD855,10,10,1,40,0,1055,39,0,795,10,0,experiment,NA,NA,2,0.5,0.5,4,5,206,5,NA
fcp-trial,241,942215,0.0-216.0-0.0,voc_e2,11908,"[{""event"":""fullscreenenter"",""trial"":1,""time"":1983}]",NA,NA,NA,NA,NA,0,#3386FF,#D89F1C,10,0,1,40,0,441,37,1,792,10,1,experiment,NA,NA,1,0.7,0.3,2,3,207,5,NA
fcp-trial,242,944965,0.0-217.0-0.0,voc_e2,11908,"[{""event"":""fullscreenenter"",""trial"":1,""time"":1983}]",NA,NA,NA,NA,NA,2,#D89F1C,#3386FF,10,0,0,40,0,478,39,0,760,0,1,experiment,NA,NA,1,0.3,0.7,3,2,208,5,NA
fcp-trial,243,947759,0.0-218.0-0.0,voc_e2,11908,"[{""event"":""fullscreenenter"",""trial"":1,""time"":1983}]",NA,NA,NA,NA,NA,3,#D89F1C,#3386FF,10,0,0,40,0,607,39,0,673,0,1,experiment,NA,NA,1,0.3,0.7,3,2,209,5,NA
fcp-trial,244,950733,0.0-219.0-0.0,voc_e2,11908,"[{""event"":""fullscreenenter"",""trial"":1,""time"":1983}]",NA,NA,NA,NA,NA,2,#741CD8,#D8271C,0,10,0,40,0,664,39,0,798,10,1,experiment,NA,NA,0,0.1,0.9,1,0,210,5,NA
audio-instructions,245,956313,0.0-220.0,voc_e2,11908,"[{""event"":""fullscreenenter"",""trial"":1,""time"":1983}]",NA,1053,static/audio/pause.wav,NA,0,NA,NA,NA,NA,NA,NA,NA,NA,NA,NA,NA,NA,NA,NA,NA,NA,NA,NA,NA,NA,NA,NA,NA,NA,NA
fcp-trial,246,960020,0.0-221.0-0.0,voc_e2,11908,"[{""event"":""fullscreenenter"",""trial"":1,""time"":1983}]",NA,NA,NA,NA,NA,5,#741CD8,#D8271C,0,10,0,40,0,1656,37,1,533,0,0,experiment,NA,NA,0,0.1,0.9,1,0,211,5,NA
fcp-trial,247,962484,0.0-222.0-0.0,voc_e2,11908,"[{""event"":""fullscreenenter"",""trial"":1,""time"":1983}]",NA,NA,NA,NA,NA,3,#3386FF,#D89F1C,10,0,1,40,0,365,37,1,586,10,1,experiment,NA,NA,1,0.7,0.3,2,3,212,5,NA
fcp-trial,248,965020,0.0-223.0-0.0,voc_e2,11908,"[{""event"":""fullscreenenter"",""trial"":1,""time"":1983}]",NA,NA,NA,NA,NA,0,#1CD855,#FA92F8,10,0,0,40,0,369,39,0,651,0,1,experiment,NA,NA,2,0.5,0.5,5,4,213,5,NA
fcp-trial,249,967563,0.0-224.0-0.0,voc_e2,11908,"[{""event"":""fullscreenenter"",""trial"":1,""time"":1983}]",NA,NA,NA,NA,NA,5,#1CD855,#FA92F8,0,0,0,40,0,531,37,1,501,0,0,experiment,NA,NA,2,0.5,0.5,5,4,214,5,NA
fcp-trial,250,969851,0.0-225.0-0.0,voc_e2,11908,"[{""event"":""fullscreenenter"",""trial"":1,""time"":1983}]",NA,NA,NA,NA,NA,0,#D89F1C,#3386FF,0,10,0,40,0,328,39,0,444,10,1,experiment,NA,NA,1,0.3,0.7,3,2,215,5,NA
fcp-trial,251,972523,0.0-226.0-0.0,voc_e2,11908,"[{""event"":""fullscreenenter"",""trial"":1,""time"":1983}]",NA,NA,NA,NA,NA,3,#741CD8,#D8271C,0,10,0,40,0,581,37,1,578,0,0,experiment,NA,NA,0,0.1,0.9,1,0,216,5,NA
fcp-trial,252,975013,0.0-227.0-0.0,voc_e2,11908,"[{""event"":""fullscreenenter"",""trial"":1,""time"":1983}]",NA,NA,NA,NA,NA,6,#741CD8,#D8271C,10,0,0,40,0,462,37,1,507,10,0,experiment,NA,NA,0,0.1,0.9,1,0,217,5,NA
fcp-trial,253,978094,0.0-228.0-0.0,voc_e2,11908,"[{""event"":""fullscreenenter"",""trial"":1,""time"":1983}]",NA,NA,NA,NA,NA,2,#3386FF,#D89F1C,0,10,1,40,0,945,39,0,623,10,0,experiment,NA,NA,1,0.7,0.3,2,3,218,5,NA
fcp-trial,254,980980,0.0-229.0-0.0,voc_e2,11908,"[{""event"":""fullscreenenter"",""trial"":1,""time"":1983}]",NA,NA,NA,NA,NA,3,#1CD855,#FA92F8,0,10,0,40,0,844,39,0,523,10,1,experiment,NA,NA,2,0.5,0.5,5,4,219,5,NA
fcp-trial,255,984182,0.0-230.0-0.0,voc_e2,11908,"[{""event"":""fullscreenenter"",""trial"":1,""time"":1983}]",NA,NA,NA,NA,NA,4,#741CD8,#D8271C,0,10,0,40,0,732,37,1,948,0,0,experiment,NA,NA,0,0.1,0.9,1,0,220,5,NA
fcp-trial,256,989905,0.0-231.0-0.0,voc_e2,11908,"[{""event"":""fullscreenenter"",""trial"":1,""time"":1983}]",NA,NA,NA,NA,NA,1,#1CD855,#FA92F8,10,10,0,40,0,383,39,0,3826,10,1,experiment,NA,NA,2,0.5,0.5,5,4,221,5,NA
fcp-trial,257,993517,0.0-232.0-0.0,voc_e2,11908,"[{""event"":""fullscreenenter"",""trial"":1,""time"":1983}]",NA,NA,NA,NA,NA,6,#D89F1C,#3386FF,0,10,0,40,0,1532,39,0,572,10,1,experiment,NA,NA,1,0.3,0.7,3,2,222,5,NA
fcp-trial,258,997275,0.0-233.0-0.0,voc_e2,11908,"[{""event"":""fullscreenenter"",""trial"":1,""time"":1983}]",NA,NA,NA,NA,NA,2,#1CD855,#FA92F8,0,0,0,40,0,1716,39,0,531,0,1,experiment,NA,NA,2,0.5,0.5,5,4,223,5,NA
fcp-trial,259,1001569,0.0-234.0-0.0,voc_e2,11908,"[{""event"":""fullscreenenter"",""trial"":1,""time"":1983}]",NA,NA,NA,NA,NA,5,#D89F1C,#3386FF,0,0,0,38,1,1548,39,0,1231,0,1,experiment,NA,NA,1,0.3,0.7,3,2,224,5,NA
fcp-trial,260,1004801,0.0-235.0-0.0,voc_e2,11908,"[{""event"":""fullscreenenter"",""trial"":1,""time"":1983}]",NA,NA,NA,NA,NA,1,#D8271C,#741CD8,0,0,1,40,0,1118,37,1,604,0,1,experiment,NA,NA,0,0.9,0.1,0,1,225,5,NA
fcp-trial,261,1008345,0.0-236.0-0.0,voc_e2,11908,"[{""event"":""fullscreenenter"",""trial"":1,""time"":1983}]",NA,NA,NA,NA,NA,4,#D89F1C,#3386FF,0,10,0,40,0,1548,37,1,483,0,0,experiment,NA,NA,1,0.3,0.7,3,2,226,6,NA
fcp-trial,262,1012321,0.0-237.0-0.0,voc_e2,11908,"[{""event"":""fullscreenenter"",""trial"":1,""time"":1983}]",NA,NA,NA,NA,NA,4,#FA92F8,#1CD855,10,0,1,40,0,2022,39,0,443,0,0,experiment,NA,NA,2,0.5,0.5,4,5,227,6,NA
fcp-trial,263,1014848,0.0-238.0-0.0,voc_e2,11908,"[{""event"":""fullscreenenter"",""trial"":1,""time"":1983}]",NA,NA,NA,NA,NA,6,#FA92F8,#1CD855,10,10,1,40,0,170,39,0,843,10,0,experiment,NA,NA,2,0.5,0.5,4,5,228,6,NA
fcp-trial,264,1017938,0.0-239.0-0.0,voc_e2,11908,"[{""event"":""fullscreenenter"",""trial"":1,""time"":1983}]",NA,NA,NA,NA,NA,1,#D89F1C,#3386FF,10,10,0,40,0,671,37,1,904,10,0,experiment,NA,NA,1,0.3,0.7,3,2,229,6,NA
fcp-trial,265,1021375,0.0-240.0-0.0,voc_e2,11908,"[{""event"":""fullscreenenter"",""trial"":1,""time"":1983}]",NA,NA,NA,NA,NA,0,#741CD8,#D8271C,0,10,0,40,0,1192,39,0,734,10,1,experiment,NA,NA,0,0.1,0.9,1,0,230,6,NA
fcp-trial,266,1024453,0.0-241.0-0.0,voc_e2,11908,"[{""event"":""fullscreenenter"",""trial"":1,""time"":1983}]",NA,NA,NA,NA,NA,2,#D8271C,#741CD8,10,0,1,40,0,980,39,0,584,0,0,experiment,NA,NA,0,0.9,0.1,0,1,231,6,NA
fcp-trial,267,1027293,0.0-242.0-0.0,voc_e2,11908,"[{""event"":""fullscreenenter"",""trial"":1,""time"":1983}]",NA,NA,NA,NA,NA,6,#741CD8,#D8271C,0,10,0,40,0,719,37,1,609,0,0,experiment,NA,NA,0,0.1,0.9,1,0,232,6,NA
fcp-trial,268,1031475,0.0-243.0-0.0,voc_e2,11908,"[{""event"":""fullscreenenter"",""trial"":1,""time"":1983}]",NA,NA,NA,NA,NA,5,#3386FF,#D89F1C,10,0,1,40,0,461,37,1,2211,10,1,experiment,NA,NA,1,0.7,0.3,2,3,233,6,NA
fcp-trial,269,1034696,0.0-244.0-0.0,voc_e2,11908,"[{""event"":""fullscreenenter"",""trial"":1,""time"":1983}]",NA,NA,NA,NA,NA,0,#FA92F8,#1CD855,10,0,1,40,0,1158,39,0,552,0,0,experiment,NA,NA,2,0.5,0.5,4,5,234,6,NA
fcp-trial,270,1037392,0.0-245.0-0.0,voc_e2,11908,"[{""event"":""fullscreenenter"",""trial"":1,""time"":1983}]",NA,NA,NA,NA,NA,5,#1CD855,#FA92F8,0,10,0,40,0,586,39,0,597,10,1,experiment,NA,NA,2,0.5,0.5,5,4,235,6,NA
fcp-trial,271,1040010,0.0-246.0-0.0,voc_e2,11908,"[{""event"":""fullscreenenter"",""trial"":1,""time"":1983}]",NA,NA,NA,NA,NA,2,#1CD855,#FA92F8,0,0,0,40,0,565,37,1,539,0,0,experiment,NA,NA,2,0.5,0.5,5,4,236,6,NA
fcp-trial,272,1042827,0.0-247.0-0.0,voc_e2,11908,"[{""event"":""fullscreenenter"",""trial"":1,""time"":1983}]",NA,NA,NA,NA,NA,5,#D8271C,#741CD8,10,0,1,40,0,785,37,1,525,10,1,experiment,NA,NA,0,0.9,0.1,0,1,237,6,NA
fcp-trial,273,1046589,0.0-248.0-0.0,voc_e2,11908,"[{""event"":""fullscreenenter"",""trial"":1,""time"":1983}]",NA,NA,NA,NA,NA,2,#3386FF,#D89F1C,10,0,1,38,1,1808,37,1,442,10,1,experiment,NA,NA,1,0.7,0.3,2,3,238,6,NA
fcp-trial,274,1051511,0.0-249.0-0.0,voc_e2,11908,"[{""event"":""fullscreenenter"",""trial"":1,""time"":1983}]",NA,NA,NA,NA,NA,0,#3386FF,#D89F1C,10,10,1,38,1,2766,39,0,643,10,0,experiment,NA,NA,1,0.7,0.3,2,3,239,6,NA
fcp-trial,275,1054409,0.0-250.0-0.0,voc_e2,11908,"[{""event"":""fullscreenenter"",""trial"":1,""time"":1983}]",NA,NA,NA,NA,NA,1,#741CD8,#D8271C,0,10,0,40,0,744,37,1,642,0,0,experiment,NA,NA,0,0.1,0.9,1,0,240,6,NA
fcp-trial,276,1057668,0.0-251.0-0.0,voc_e2,11908,"[{""event"":""fullscreenenter"",""trial"":1,""time"":1983}]",NA,NA,NA,NA,NA,1,#1CD855,#FA92F8,10,0,0,38,1,1239,39,0,503,0,1,experiment,NA,NA,2,0.5,0.5,5,4,241,6,NA
fcp-trial,277,1060319,0.0-252.0-0.0,voc_e2,11908,"[{""event"":""fullscreenenter"",""trial"":1,""time"":1983}]",NA,NA,NA,NA,NA,4,#741CD8,#D8271C,0,10,0,40,0,568,37,1,569,0,0,experiment,NA,NA,0,0.1,0.9,1,0,242,6,NA
fcp-trial,278,1063234,0.0-253.0-0.0,voc_e2,11908,"[{""event"":""fullscreenenter"",""trial"":1,""time"":1983}]",NA,NA,NA,NA,NA,3,#D89F1C,#3386FF,0,10,0,40,0,948,39,0,452,10,1,experiment,NA,NA,1,0.3,0.7,3,2,243,6,NA
fcp-trial,279,1066198,0.0-254.0-0.0,voc_e2,11908,"[{""event"":""fullscreenenter"",""trial"":1,""time"":1983}]",NA,NA,NA,NA,NA,3,#741CD8,#D8271C,10,0,0,40,0,989,37,1,448,10,0,experiment,NA,NA,0,0.1,0.9,1,0,244,6,NA
fcp-trial,280,1070527,0.0-255.0-0.0,voc_e2,11908,"[{""event"":""fullscreenenter"",""trial"":1,""time"":1983}]",NA,NA,NA,NA,NA,4,#D89F1C,#3386FF,10,10,0,40,0,2119,37,1,697,10,0,experiment,NA,NA,1,0.3,0.7,3,2,245,6,NA
fcp-trial,281,1073979,0.0-256.0-0.0,voc_e2,11908,"[{""event"":""fullscreenenter"",""trial"":1,""time"":1983}]",NA,NA,NA,NA,NA,6,#1CD855,#FA92F8,10,0,0,40,0,1527,39,0,413,0,1,experiment,NA,NA,2,0.5,0.5,5,4,246,6,NA
fcp-trial,282,1076961,0.0-257.0-0.0,voc_e2,11908,"[{""event"":""fullscreenenter"",""trial"":1,""time"":1983}]",NA,NA,NA,NA,NA,2,#D8271C,#741CD8,10,0,1,40,0,899,39,0,568,0,0,experiment,NA,NA,0,0.9,0.1,0,1,247,6,NA
fcp-trial,283,1080352,0.0-258.0-0.0,voc_e2,11908,"[{""event"":""fullscreenenter"",""trial"":1,""time"":1983}]",NA,NA,NA,NA,NA,0,#D8271C,#741CD8,10,10,1,38,1,1518,37,1,359,10,1,experiment,NA,NA,0,0.9,0.1,0,1,248,6,NA
fcp-trial,284,1084569,0.0-259.0-0.0,voc_e2,11908,"[{""event"":""fullscreenenter"",""trial"":1,""time"":1983}]",NA,NA,NA,NA,NA,4,#1CD855,#FA92F8,0,10,0,40,0,2203,39,0,504,10,1,experiment,NA,NA,2,0.5,0.5,5,4,249,6,NA
fcp-trial,285,1088017,0.0-260.0-0.0,voc_e2,11908,"[{""event"":""fullscreenenter"",""trial"":1,""time"":1983}]",NA,NA,NA,NA,NA,6,#D89F1C,#3386FF,0,0,0,40,0,1433,37,1,504,0,0,experiment,NA,NA,1,0.3,0.7,3,2,250,6,NA
fcp-trial,286,1091388,0.0-261.0-0.0,voc_e2,11908,"[{""event"":""fullscreenenter"",""trial"":1,""time"":1983}]",NA,NA,NA,NA,NA,3,#FA92F8,#1CD855,10,10,1,40,0,1171,39,0,681,10,0,experiment,NA,NA,2,0.5,0.5,4,5,251,6,NA
fcp-trial,287,1094856,0.0-262.0-0.0,voc_e2,11908,"[{""event"":""fullscreenenter"",""trial"":1,""time"":1983}]",NA,NA,NA,NA,NA,1,#D89F1C,#3386FF,0,10,0,40,0,1294,39,0,663,10,1,experiment,NA,NA,1,0.3,0.7,3,2,252,6,NA
fcp-trial,288,1099889,0.0-263.0-0.0,voc_e2,11908,"[{""event"":""fullscreenenter"",""trial"":1,""time"":1983}]",NA,NA,NA,NA,NA,0,#FA92F8,#1CD855,10,0,1,38,1,1481,39,0,2038,0,0,experiment,NA,NA,2,0.5,0.5,4,5,253,6,NA
fcp-trial,289,1103866,0.0-264.0-0.0,voc_e2,11908,"[{""event"":""fullscreenenter"",""trial"":1,""time"":1983}]",NA,NA,NA,NA,NA,2,#D89F1C,#3386FF,0,10,0,38,1,1584,37,1,883,0,0,experiment,NA,NA,1,0.3,0.7,3,2,254,6,NA
fcp-trial,290,1106741,0.0-265.0-0.0,voc_e2,11908,"[{""event"":""fullscreenenter"",""trial"":1,""time"":1983}]",NA,NA,NA,NA,NA,4,#741CD8,#D8271C,0,10,0,40,0,610,37,1,752,0,0,experiment,NA,NA,0,0.1,0.9,1,0,255,6,NA
fcp-trial,291,1109538,0.0-266.0-0.0,voc_e2,11908,"[{""event"":""fullscreenenter"",""trial"":1,""time"":1983}]",NA,NA,NA,NA,NA,2,#741CD8,#D8271C,0,10,0,40,0,865,39,0,419,10,1,experiment,NA,NA,0,0.1,0.9,1,0,256,6,NA
fcp-trial,292,1112282,0.0-267.0-0.0,voc_e2,11908,"[{""event"":""fullscreenenter"",""trial"":1,""time"":1983}]",NA,NA,NA,NA,NA,6,#1CD855,#FA92F8,0,10,0,38,1,556,39,0,674,10,1,experiment,NA,NA,2,0.5,0.5,5,4,257,6,NA
fcp-trial,293,1114854,0.0-268.0-0.0,voc_e2,11908,"[{""event"":""fullscreenenter"",""trial"":1,""time"":1983}]",NA,NA,NA,NA,NA,6,#D8271C,#741CD8,10,0,1,40,0,476,37,1,582,10,1,experiment,NA,NA,0,0.9,0.1,0,1,258,6,NA
fcp-trial,294,1117812,0.0-269.0-0.0,voc_e2,11908,"[{""event"":""fullscreenenter"",""trial"":1,""time"":1983}]",NA,NA,NA,NA,NA,4,#D89F1C,#3386FF,0,10,0,40,0,897,37,1,552,0,0,experiment,NA,NA,1,0.3,0.7,3,2,259,6,NA
fcp-trial,295,1121822,0.0-270.0-0.0,voc_e2,11908,"[{""event"":""fullscreenenter"",""trial"":1,""time"":1983}]",NA,NA,NA,NA,NA,0,#741CD8,#D8271C,0,10,0,38,1,1058,37,1,1439,0,0,experiment,NA,NA,0,0.1,0.9,1,0,260,6,NA
fcp-trial,296,1125593,0.0-271.0-0.0,voc_e2,11908,"[{""event"":""fullscreenenter"",""trial"":1,""time"":1983}]",NA,NA,NA,NA,NA,5,#FA92F8,#1CD855,10,10,1,38,1,1778,37,1,479,10,1,experiment,NA,NA,2,0.5,0.5,4,5,261,6,NA
fcp-trial,297,1128898,0.0-272.0-0.0,voc_e2,11908,"[{""event"":""fullscreenenter"",""trial"":1,""time"":1983}]",NA,NA,NA,NA,NA,5,#741CD8,#D8271C,0,10,0,40,0,1314,39,0,476,10,1,experiment,NA,NA,0,0.1,0.9,1,0,262,6,NA
fcp-trial,298,1131827,0.0-273.0-0.0,voc_e2,11908,"[{""event"":""fullscreenenter"",""trial"":1,""time"":1983}]",NA,NA,NA,NA,NA,6,#D89F1C,#3386FF,10,10,0,40,0,951,39,0,460,10,1,experiment,NA,NA,1,0.3,0.7,3,2,263,6,NA
fcp-trial,299,1136083,0.0-274.0-0.0,voc_e2,11908,"[{""event"":""fullscreenenter"",""trial"":1,""time"":1983}]",NA,NA,NA,NA,NA,1,#D89F1C,#3386FF,0,0,0,38,1,1404,37,1,1337,0,0,experiment,NA,NA,1,0.3,0.7,3,2,264,6,NA
fcp-trial,300,1141176,0.0-275.0-0.0,voc_e2,11908,"[{""event"":""fullscreenenter"",""trial"":1,""time"":1983}]",NA,NA,NA,NA,NA,1,#FA92F8,#1CD855,10,10,1,38,1,2653,37,1,930,10,1,experiment,NA,NA,2,0.5,0.5,4,5,265,6,NA
fcp-trial,301,1145019,0.0-276.0-0.0,voc_e2,11908,"[{""event"":""fullscreenenter"",""trial"":1,""time"":1983}]",NA,NA,NA,NA,NA,1,#D8271C,#741CD8,10,0,1,38,1,1883,39,0,446,0,0,experiment,NA,NA,0,0.9,0.1,0,1,266,6,NA
fcp-trial,302,1148754,0.0-277.0-0.0,voc_e2,11908,"[{""event"":""fullscreenenter"",""trial"":1,""time"":1983}]",NA,NA,NA,NA,NA,3,#FA92F8,#1CD855,0,0,1,38,1,1763,37,1,461,0,1,experiment,NA,NA,2,0.5,0.5,4,5,267,6,NA
fcp-trial,303,1152505,0.0-278.0-0.0,voc_e2,11908,"[{""event"":""fullscreenenter"",""trial"":1,""time"":1983}]",NA,NA,NA,NA,NA,3,#3386FF,#D89F1C,10,0,1,38,1,1977,37,1,259,10,1,experiment,NA,NA,1,0.7,0.3,2,3,268,6,NA
fcp-trial,304,1155737,0.0-279.0-0.0,voc_e2,11908,"[{""event"":""fullscreenenter"",""trial"":1,""time"":1983}]",NA,NA,NA,NA,NA,2,#1CD855,#FA92F8,0,0,0,38,1,1329,39,0,388,0,1,experiment,NA,NA,2,0.5,0.5,5,4,269,6,NA
fcp-trial,305,1159029,0.0-280.0-0.0,voc_e2,11908,"[{""event"":""fullscreenenter"",""trial"":1,""time"":1983}]",NA,NA,NA,NA,NA,3,#D8271C,#741CD8,10,0,1,38,1,1359,37,1,420,10,1,experiment,NA,NA,0,0.9,0.1,0,1,270,6,NA
fcp-trial,306,1162690,0.0-281.0-0.0,voc_e2,11908,"[{""event"":""fullscreenenter"",""trial"":1,""time"":1983}]",NA,NA,NA,NA,NA,0,#D89F1C,#3386FF,0,10,0,38,1,1057,39,0,1092,10,1,experiment,NA,NA,1,0.3,0.7,3,2,271,7,NA
fcp-trial,307,1166216,0.0-282.0-0.0,voc_e2,11908,"[{""event"":""fullscreenenter"",""trial"":1,""time"":1983}]",NA,NA,NA,NA,NA,5,#D89F1C,#3386FF,0,10,0,40,0,1379,39,0,632,10,1,experiment,NA,NA,1,0.3,0.7,3,2,272,7,NA
fcp-trial,308,1169318,0.0-283.0-0.0,voc_e2,11908,"[{""event"":""fullscreenenter"",""trial"":1,""time"":1983}]",NA,NA,NA,NA,NA,4,#1CD855,#FA92F8,0,10,0,40,0,863,37,1,723,0,0,experiment,NA,NA,2,0.5,0.5,5,4,273,7,NA
fcp-trial,309,1171950,0.0-284.0-0.0,voc_e2,11908,"[{""event"":""fullscreenenter"",""trial"":1,""time"":1983}]",NA,NA,NA,NA,NA,2,#D8271C,#741CD8,10,0,1,40,0,129,37,1,989,10,1,experiment,NA,NA,0,0.9,0.1,0,1,274,7,NA
fcp-trial,310,1175111,0.0-285.0-0.0,voc_e2,11908,"[{""event"":""fullscreenenter"",""trial"":1,""time"":1983}]",NA,NA,NA,NA,NA,0,#D89F1C,#3386FF,10,10,0,38,1,1105,39,0,545,10,1,experiment,NA,NA,1,0.3,0.7,3,2,275,7,NA
fcp-trial,311,1179345,0.0-286.0-0.0,voc_e2,11908,"[{""event"":""fullscreenenter"",""trial"":1,""time"":1983}]",NA,NA,NA,NA,NA,1,#1CD855,#FA92F8,0,0,0,38,1,2139,39,0,582,0,1,experiment,NA,NA,2,0.5,0.5,5,4,276,7,NA
fcp-trial,312,1183479,0.0-287.0-0.0,voc_e2,11908,"[{""event"":""fullscreenenter"",""trial"":1,""time"":1983}]",NA,NA,NA,NA,NA,0,#D8271C,#741CD8,0,0,1,38,1,2153,39,0,467,0,0,experiment,NA,NA,0,0.9,0.1,0,1,277,7,NA
fcp-trial,313,1186511,0.0-288.0-0.0,voc_e2,11908,"[{""event"":""fullscreenenter"",""trial"":1,""time"":1983}]",NA,NA,NA,NA,NA,2,#3386FF,#D89F1C,10,0,1,38,1,1110,39,0,406,0,0,experiment,NA,NA,1,0.7,0.3,2,3,278,7,NA
fcp-trial,314,1189984,0.0-289.0-0.0,voc_e2,11908,"[{""event"":""fullscreenenter"",""trial"":1,""time"":1983}]",NA,NA,NA,NA,NA,2,#FA92F8,#1CD855,0,0,1,38,1,1394,37,1,567,0,1,experiment,NA,NA,2,0.5,0.5,4,5,279,7,NA
fcp-trial,315,1193152,0.0-290.0-0.0,voc_e2,11908,"[{""event"":""fullscreenenter"",""trial"":1,""time"":1983}]",NA,NA,NA,NA,NA,1,#D8271C,#741CD8,10,0,1,38,1,1147,39,0,511,0,0,experiment,NA,NA,0,0.9,0.1,0,1,280,7,NA
fcp-trial,316,1200003,0.0-291.0-0.0,voc_e2,11908,"[{""event"":""fullscreenenter"",""trial"":1,""time"":1983}]",NA,NA,NA,NA,NA,3,#D89F1C,#3386FF,0,10,0,38,1,4656,39,0,677,10,1,experiment,NA,NA,1,0.3,0.7,3,2,281,7,NA
fcp-trial,317,1203225,0.0-292.0-0.0,voc_e2,11908,"[{""event"":""fullscreenenter"",""trial"":1,""time"":1983}]",NA,NA,NA,NA,NA,0,#FA92F8,#1CD855,0,10,1,38,1,1071,37,1,641,0,1,experiment,NA,NA,2,0.5,0.5,4,5,282,7,NA
fcp-trial,318,1206464,0.0-293.0-0.0,voc_e2,11908,"[{""event"":""fullscreenenter"",""trial"":1,""time"":1983}]",NA,NA,NA,NA,NA,6,#1CD855,#FA92F8,10,0,0,38,1,911,37,1,818,10,0,experiment,NA,NA,2,0.5,0.5,5,4,283,7,NA
fcp-trial,319,1209415,0.0-294.0-0.0,voc_e2,11908,"[{""event"":""fullscreenenter"",""trial"":1,""time"":1983}]",NA,NA,NA,NA,NA,6,#3386FF,#D89F1C,10,0,1,40,0,765,37,1,674,10,1,experiment,NA,NA,1,0.7,0.3,2,3,284,7,NA
fcp-trial,320,1212442,0.0-295.0-0.0,voc_e2,11908,"[{""event"":""fullscreenenter"",""trial"":1,""time"":1983}]",NA,NA,NA,NA,NA,4,#D8271C,#741CD8,10,0,1,40,0,887,37,1,625,10,1,experiment,NA,NA,0,0.9,0.1,0,1,285,7,NA
fcp-trial,321,1215733,0.0-296.0-0.0,voc_e2,11908,"[{""event"":""fullscreenenter"",""trial"":1,""time"":1983}]",NA,NA,NA,NA,NA,4,#D89F1C,#3386FF,10,10,0,40,0,1376,39,0,404,10,1,experiment,NA,NA,1,0.3,0.7,3,2,286,7,NA
fcp-trial,322,1219299,0.0-297.0-0.0,voc_e2,11908,"[{""event"":""fullscreenenter"",""trial"":1,""time"":1983}]",NA,NA,NA,NA,NA,1,#3386FF,#D89F1C,10,0,1,38,1,1659,37,1,399,10,1,experiment,NA,NA,1,0.7,0.3,2,3,287,7,NA
fcp-trial,323,1222154,0.0-298.0-0.0,voc_e2,11908,"[{""event"":""fullscreenenter"",""trial"":1,""time"":1983}]",NA,NA,NA,NA,NA,5,#1CD855,#FA92F8,0,10,0,40,0,934,39,0,409,10,1,experiment,NA,NA,2,0.5,0.5,5,4,288,7,NA
fcp-trial,324,1225835,0.0-299.0-0.0,voc_e2,11908,"[{""event"":""fullscreenenter"",""trial"":1,""time"":1983}]",NA,NA,NA,NA,NA,5,#741CD8,#D8271C,0,10,0,40,0,1451,39,0,716,10,1,experiment,NA,NA,0,0.1,0.9,1,0,289,7,NA
fcp-trial,325,1229601,0.0-300.0-0.0,voc_e2,11908,"[{""event"":""fullscreenenter"",""trial"":1,""time"":1983}]",NA,NA,NA,NA,NA,3,#1CD855,#FA92F8,0,10,0,40,0,1666,39,0,587,10,1,experiment,NA,NA,2,0.5,0.5,5,4,290,7,NA
fcp-trial,326,1232622,0.0-301.0-0.0,voc_e2,11908,"[{""event"":""fullscreenenter"",""trial"":1,""time"":1983}]",NA,NA,NA,NA,NA,5,#D89F1C,#3386FF,0,10,0,40,0,1022,39,0,483,10,1,experiment,NA,NA,1,0.3,0.7,3,2,291,7,NA
fcp-trial,327,1236486,0.0-302.0-0.0,voc_e2,11908,"[{""event"":""fullscreenenter"",""trial"":1,""time"":1983}]",NA,NA,NA,NA,NA,3,#D8271C,#741CD8,10,0,1,40,0,1804,39,0,549,0,0,experiment,NA,NA,0,0.9,0.1,0,1,292,7,NA
fcp-trial,328,1239724,0.0-303.0-0.0,voc_e2,11908,"[{""event"":""fullscreenenter"",""trial"":1,""time"":1983}]",NA,NA,NA,NA,NA,4,#FA92F8,#1CD855,0,10,1,40,0,973,39,0,752,10,0,experiment,NA,NA,2,0.5,0.5,4,5,293,7,NA
fcp-trial,329,1243559,0.0-304.0-0.0,voc_e2,11908,"[{""event"":""fullscreenenter"",""trial"":1,""time"":1983}]",NA,NA,NA,NA,NA,6,#741CD8,#D8271C,0,10,0,40,0,1851,39,0,473,10,1,experiment,NA,NA,0,0.1,0.9,1,0,294,7,NA
fcp-trial,330,1246628,0.0-305.0-0.0,voc_e2,11908,"[{""event"":""fullscreenenter"",""trial"":1,""time"":1983}]",NA,NA,NA,NA,NA,2,#FA92F8,#1CD855,0,0,1,40,0,1140,39,0,419,0,0,experiment,NA,NA,2,0.5,0.5,4,5,295,7,NA
fcp-trial,331,1248981,0.0-306.0-0.0,voc_e2,11908,"[{""event"":""fullscreenenter"",""trial"":1,""time"":1983}]",NA,NA,NA,NA,NA,2,#D8271C,#741CD8,10,0,1,40,0,190,37,1,653,10,1,experiment,NA,NA,0,0.9,0.1,0,1,296,7,NA
fcp-trial,332,1251881,0.0-307.0-0.0,voc_e2,11908,"[{""event"":""fullscreenenter"",""trial"":1,""time"":1983}]",NA,NA,NA,NA,NA,6,#D89F1C,#3386FF,0,10,0,40,0,1123,39,0,263,10,1,experiment,NA,NA,1,0.3,0.7,3,2,297,7,NA
fcp-trial,333,1254928,0.0-308.0-0.0,voc_e2,11908,"[{""event"":""fullscreenenter"",""trial"":1,""time"":1983}]",NA,NA,NA,NA,NA,3,#741CD8,#D8271C,0,10,0,38,1,1102,37,1,433,0,0,experiment,NA,NA,0,0.1,0.9,1,0,298,7,NA
fcp-trial,334,1257793,0.0-309.0-0.0,voc_e2,11908,"[{""event"":""fullscreenenter"",""trial"":1,""time"":1983}]",NA,NA,NA,NA,NA,3,#1CD855,#FA92F8,0,0,0,40,0,414,39,0,938,0,1,experiment,NA,NA,2,0.5,0.5,5,4,299,7,NA
fcp-trial,335,1259950,0.0-310.0-0.0,voc_e2,11908,"[{""event"":""fullscreenenter"",""trial"":1,""time"":1983}]",NA,NA,NA,NA,NA,4,#D89F1C,#3386FF,0,10,0,40,0,277,39,0,369,10,1,experiment,NA,NA,1,0.3,0.7,3,2,300,7,NA
fcp-trial,336,1262432,0.0-311.0-0.0,voc_e2,11908,"[{""event"":""fullscreenenter"",""trial"":1,""time"":1983}]",NA,NA,NA,NA,NA,2,#D89F1C,#3386FF,0,10,0,40,0,688,39,0,283,10,1,experiment,NA,NA,1,0.3,0.7,3,2,301,7,NA
fcp-trial,337,1266005,0.0-312.0-0.0,voc_e2,11908,"[{""event"":""fullscreenenter"",""trial"":1,""time"":1983}]",NA,NA,NA,NA,NA,4,#1CD855,#FA92F8,10,0,0,38,1,1706,39,0,354,0,1,experiment,NA,NA,2,0.5,0.5,5,4,302,7,NA
fcp-trial,338,1269041,0.0-313.0-0.0,voc_e2,11908,"[{""event"":""fullscreenenter"",""trial"":1,""time"":1983}]",NA,NA,NA,NA,NA,4,#D8271C,#741CD8,10,0,1,40,0,1090,37,1,435,10,1,experiment,NA,NA,0,0.9,0.1,0,1,303,7,NA
fcp-trial,339,1272410,0.0-314.0-0.0,voc_e2,11908,"[{""event"":""fullscreenenter"",""trial"":1,""time"":1983}]",NA,NA,NA,NA,NA,0,#D8271C,#741CD8,10,0,1,40,0,904,37,1,953,10,1,experiment,NA,NA,0,0.9,0.1,0,1,304,7,NA
fcp-trial,340,1275413,0.0-315.0-0.0,voc_e2,11908,"[{""event"":""fullscreenenter"",""trial"":1,""time"":1983}]",NA,NA,NA,NA,NA,3,#D89F1C,#3386FF,0,10,0,40,0,998,37,1,493,0,0,experiment,NA,NA,1,0.3,0.7,3,2,305,7,NA
fcp-trial,341,1278586,0.0-316.0-0.0,voc_e2,11908,"[{""event"":""fullscreenenter"",""trial"":1,""time"":1983}]",NA,NA,NA,NA,NA,0,#3386FF,#D89F1C,10,0,1,40,0,880,39,0,783,0,0,experiment,NA,NA,1,0.7,0.3,2,3,306,7,NA
fcp-trial,342,1281564,0.0-317.0-0.0,voc_e2,11908,"[{""event"":""fullscreenenter"",""trial"":1,""time"":1983}]",NA,NA,NA,NA,NA,5,#1CD855,#FA92F8,10,10,0,40,0,845,39,0,617,10,1,experiment,NA,NA,2,0.5,0.5,5,4,307,7,NA
fcp-trial,343,1284873,0.0-318.0-0.0,voc_e2,11908,"[{""event"":""fullscreenenter"",""trial"":1,""time"":1983}]",NA,NA,NA,NA,NA,0,#FA92F8,#1CD855,0,0,1,40,0,1100,37,1,697,0,1,experiment,NA,NA,2,0.5,0.5,4,5,308,7,NA
fcp-trial,344,1287770,0.0-319.0-0.0,voc_e2,11908,"[{""event"":""fullscreenenter"",""trial"":1,""time"":1983}]",NA,NA,NA,NA,NA,6,#D8271C,#741CD8,10,0,1,40,0,500,39,0,886,0,0,experiment,NA,NA,0,0.9,0.1,0,1,309,7,NA
fcp-trial,345,1290860,0.0-320.0-0.0,voc_e2,11908,"[{""event"":""fullscreenenter"",""trial"":1,""time"":1983}]",NA,NA,NA,NA,NA,1,#FA92F8,#1CD855,10,0,1,38,1,1199,37,1,376,10,1,experiment,NA,NA,2,0.5,0.5,4,5,310,7,NA
fcp-trial,346,1293671,0.0-321.0-0.0,voc_e2,11908,"[{""event"":""fullscreenenter"",""trial"":1,""time"":1983}]",NA,NA,NA,NA,NA,5,#3386FF,#D89F1C,10,0,1,40,0,1032,39,0,265,0,0,experiment,NA,NA,1,0.7,0.3,2,3,311,7,NA
fcp-trial,347,1296681,0.0-322.0-0.0,voc_e2,11908,"[{""event"":""fullscreenenter"",""trial"":1,""time"":1983}]",NA,NA,NA,NA,NA,6,#FA92F8,#1CD855,0,0,1,40,0,831,39,0,664,0,0,experiment,NA,NA,2,0.5,0.5,4,5,312,7,NA
fcp-trial,348,1299756,0.0-323.0-0.0,voc_e2,11908,"[{""event"":""fullscreenenter"",""trial"":1,""time"":1983}]",NA,NA,NA,NA,NA,1,#D89F1C,#3386FF,0,10,0,38,1,1266,37,1,299,0,0,experiment,NA,NA,1,0.3,0.7,3,2,313,7,NA
fcp-trial,349,1302661,0.0-324.0-0.0,voc_e2,11908,"[{""event"":""fullscreenenter"",""trial"":1,""time"":1983}]",NA,NA,NA,NA,NA,5,#D8271C,#741CD8,10,0,1,40,0,1023,39,0,368,0,0,experiment,NA,NA,0,0.9,0.1,0,1,314,7,NA
fcp-trial,350,1305057,0.0-325.0-0.0,voc_e2,11908,"[{""event"":""fullscreenenter"",""trial"":1,""time"":1983}]",NA,NA,NA,NA,NA,1,#741CD8,#D8271C,0,0,0,40,0,407,37,1,479,0,0,experiment,NA,NA,0,0.1,0.9,1,0,315,7,NA
audio-instructions,351,1311775,0.0-326.0,voc_e2,11908,"[{""event"":""fullscreenenter"",""trial"":1,""time"":1983}]",NA,1002,static/audio/finished.wav,NA,0,NA,NA,NA,NA,NA,NA,NA,NA,NA,NA,NA,NA,NA,NA,NA,NA,NA,NA,NA,NA,NA,NA,NA,NA,NA
audio-instructions,352,1323306,0.0-327.0-0.0,voc_e2,11908,"[{""event"":""fullscreenenter"",""trial"":1,""time"":1983}]",NA,692,static/audio/explicit1.wav,NA,0,NA,NA,NA,NA,NA,NA,NA,NA,NA,NA,NA,NA,NA,NA,NA,NA,NA,NA,NA,NA,NA,NA,NA,NA,NA
audio-instructions,353,1331595,0.0-327.0-1.0,voc_e2,11908,"[{""event"":""fullscreenenter"",""trial"":1,""time"":1983}]",NA,694,static/audio/explicit2.wav,NA,0,NA,NA,NA,NA,NA,NA,NA,NA,NA,NA,NA,NA,NA,NA,NA,NA,NA,NA,NA,NA,NA,NA,NA,NA,NA
image-slider-response,354,1337357,0.0-328.0,voc_e2,11908,"[{""event"":""fullscreenenter"",""trial"":1,""time"":1983}]",NA,5758,static/img/machines/machine4.png,NA,NA,NA,NA,NA,NA,NA,NA,NA,NA,NA,NA,NA,NA,NA,NA,explicit,NA,NA,NA,NA,NA,NA,NA,NA,NA,5
image-slider-response,355,1344833,0.0-329.0,voc_e2,11908,"[{""event"":""fullscreenenter"",""trial"":1,""time"":1983}]",NA,7473,static/img/machines/machine6.png,NA,NA,NA,NA,NA,NA,NA,NA,NA,NA,NA,NA,NA,NA,NA,NA,explicit,NA,NA,NA,NA,NA,NA,NA,NA,NA,4
image-slider-response,356,1350459,0.0-330.0,voc_e2,11908,"[{""event"":""fullscreenenter"",""trial"":1,""time"":1983}]",NA,5620,static/img/machines/machine2.png,NA,NA,NA,NA,NA,NA,NA,NA,NA,NA,NA,NA,NA,NA,NA,NA,explicit,NA,NA,NA,NA,NA,NA,NA,NA,NA,8
image-slider-response,357,1354312,0.0-331.0,voc_e2,11908,"[{""event"":""fullscreenenter"",""trial"":1,""time"":1983}]",NA,3850,static/img/machines/machine1.png,NA,NA,NA,NA,NA,NA,NA,NA,NA,NA,NA,NA,NA,NA,NA,NA,explicit,NA,NA,NA,NA,NA,NA,NA,NA,NA,6
image-slider-response,358,1358844,0.0-332.0,voc_e2,11908,"[{""event"":""fullscreenenter"",""trial"":1,""time"":1983}]",NA,4529,static/img/machines/machine5.png,NA,NA,NA,NA,NA,NA,NA,NA,NA,NA,NA,NA,NA,NA,NA,NA,explicit,NA,NA,NA,NA,NA,NA,NA,NA,NA,9
image-slider-response,359,1362131,0.0-333.0,voc_e2,11908,"[{""event"":""fullscreenenter"",""trial"":1,""time"":1983}]",NA,3282,static/img/machines/machine3.png,NA,NA,NA,NA,NA,NA,NA,NA,NA,NA,NA,NA,NA,NA,NA,NA,explicit,NA,NA,NA,NA,NA,NA,NA,NA,NA,8
