trial_type,trial_index,time_elapsed,internal_node_id,task_version,subject_id,interactions,success,rt,stimulus,key_press,button_pressed,offer,arcade_color_L,arcade_color_R,arcade_outcome_L,arcade_outcome_R,correct,stage_1_key,stage_1_choice,stage_1_rt,stage_2_key,stage_2_choice,stage_2_rt,stage_3_outcome,accuracy,phase,responses,num_errors,context,reward_prob_L,reward_prob_R,arcade_id_L,arcade_id_R,trial,block,response
pavlovia,0,9,0.0-0.0,voc_e2,12189,[],NA,NA,NA,NA,NA,NA,NA,NA,NA,NA,NA,NA,NA,NA,NA,NA,NA,NA,NA,NA,NA,NA,NA,NA,NA,NA,NA,NA,NA,NA
fullscreen,1,2895,0.0-1.0,voc_e2,12189,"[{""event"":""fullscreenenter"",""trial"":1,""time"":1912}]",TRUE,NA,NA,NA,NA,NA,NA,NA,NA,NA,NA,NA,NA,NA,NA,NA,NA,NA,NA,NA,NA,NA,NA,NA,NA,NA,NA,NA,NA,NA
audio-keyboard-response,2,5530,0.0-2.0,voc_e2,12189,"[{""event"":""fullscreenenter"",""trial"":1,""time"":1912}]",NA,2589,static/audio/beep_loop.wav,32,NA,NA,NA,NA,NA,NA,NA,NA,NA,NA,NA,NA,NA,NA,NA,NA,NA,NA,NA,NA,NA,NA,NA,NA,NA,NA
audio-test,3,7552,0.0-3.0,voc_e2,12189,"[{""event"":""fullscreenenter"",""trial"":1,""time"":1912}]",NA,NA,static/audio/turtle.wav,NA,3,NA,NA,NA,NA,NA,NA,NA,NA,NA,NA,NA,NA,NA,NA,NA,NA,NA,NA,NA,NA,NA,NA,NA,NA,NA
audio-test,4,10398,0.0-4.0,voc_e2,12189,"[{""event"":""fullscreenenter"",""trial"":1,""time"":1912}]",NA,NA,static/audio/shark.wav,NA,2,NA,NA,NA,NA,NA,NA,NA,NA,NA,NA,NA,NA,NA,NA,NA,NA,NA,NA,NA,NA,NA,NA,NA,NA,NA
audio-instructions,5,17589,0.0-5.0-0.0,voc_e2,12189,"[{""event"":""fullscreenenter"",""trial"":1,""time"":1912}]",NA,1409,static/audio/instructions1.wav,NA,0,NA,NA,NA,NA,NA,NA,NA,NA,NA,NA,NA,NA,NA,NA,NA,NA,NA,NA,NA,NA,NA,NA,NA,NA,NA
audio-instructions,6,25526,0.0-5.0-1.0,voc_e2,12189,"[{""event"":""fullscreenenter"",""trial"":1,""time"":1912}]",NA,1185,static/audio/instructions2.wav,NA,0,NA,NA,NA,NA,NA,NA,NA,NA,NA,NA,NA,NA,NA,NA,NA,NA,NA,NA,NA,NA,NA,NA,NA,NA,NA
audio-instructions,7,32462,0.0-5.0-2.0,voc_e2,12189,"[{""event"":""fullscreenenter"",""trial"":1,""time"":1912}]",NA,1131.2000000000698,static/audio/instructions3.wav,NA,0,NA,NA,NA,NA,NA,NA,NA,NA,NA,NA,NA,NA,NA,NA,NA,NA,NA,NA,NA,NA,NA,NA,NA,NA,NA
audio-instructions,8,46751,0.0-5.0-3.0,voc_e2,12189,"[{""event"":""fullscreenenter"",""trial"":1,""time"":1912}]",NA,1060,static/audio/instructions4.wav,NA,0,NA,NA,NA,NA,NA,NA,NA,NA,NA,NA,NA,NA,NA,NA,NA,NA,NA,NA,NA,NA,NA,NA,NA,NA,NA
audio-instructions,9,58222,0.0-5.0-4.0,voc_e2,12189,"[{""event"":""fullscreenenter"",""trial"":1,""time"":1912}]",NA,2080,static/audio/instructions5.wav,NA,0,NA,NA,NA,NA,NA,NA,NA,NA,NA,NA,NA,NA,NA,NA,NA,NA,NA,NA,NA,NA,NA,NA,NA,NA,NA
fcp-practice,10,60165,0.0-5.0-5.0-0.0,voc_e2,12189,"[{""event"":""fullscreenenter"",""trial"":1,""time"":1912}]",NA,NA,NA,NA,NA,NA,#EDC948,#46d3c8,10,0,1,null,null,null,37,1,428.19999999995343,10,1,practice,NA,NA,NA,NA,NA,NA,NA,NA,NA,NA
fcp-practice,11,62209,0.0-5.0-5.0-1.0,voc_e2,12189,"[{""event"":""fullscreenenter"",""trial"":1,""time"":1912}]",NA,NA,NA,NA,NA,NA,#EDC948,#46d3c8,10,0,1,null,null,null,37,1,533.7999999999302,10,1,practice,NA,NA,NA,NA,NA,NA,NA,NA,NA,NA
fcp-practice,12,64049,0.0-5.0-5.0-2.0,voc_e2,12189,"[{""event"":""fullscreenenter"",""trial"":1,""time"":1912}]",NA,NA,NA,NA,NA,NA,#EDC948,#46d3c8,0,10,1,null,null,null,37,1,328.70000000006985,0,1,practice,NA,NA,NA,NA,NA,NA,NA,NA,NA,NA
fcp-practice,13,65798,0.0-5.0-5.0-3.0,voc_e2,12189,"[{""event"":""fullscreenenter"",""trial"":1,""time"":1912}]",NA,NA,NA,NA,NA,NA,#EDC948,#46d3c8,10,0,1,null,null,null,37,1,234.60000000009313,10,1,practice,NA,NA,NA,NA,NA,NA,NA,NA,NA,NA
fcp-practice,14,67549,0.0-5.0-5.0-4.0,voc_e2,12189,"[{""event"":""fullscreenenter"",""trial"":1,""time"":1912}]",NA,NA,NA,NA,NA,NA,#EDC948,#46d3c8,10,0,1,null,null,null,37,1,233.09999999997672,10,1,practice,NA,NA,NA,NA,NA,NA,NA,NA,NA,NA
audio-instructions,15,88637,0.0-5.0-6.0,voc_e2,12189,"[{""event"":""fullscreenenter"",""trial"":1,""time"":1912}]",NA,3084.8000000000466,static/audio/instructions6.wav,NA,0,NA,NA,NA,NA,NA,NA,NA,NA,NA,NA,NA,NA,NA,NA,NA,NA,NA,NA,NA,NA,NA,NA,NA,NA,NA
audio-instructions,16,119454,0.0-5.0-7.0,voc_e2,12189,"[{""event"":""fullscreenenter"",""trial"":1,""time"":1912}]",NA,11621.400000000023,static/audio/instructions7.wav,NA,0,NA,NA,NA,NA,NA,NA,NA,NA,NA,NA,NA,NA,NA,NA,NA,NA,NA,NA,NA,NA,NA,NA,NA,NA,NA
audio-instructions,17,129639,0.0-5.0-8.0,voc_e2,12189,"[{""event"":""fullscreenenter"",""trial"":1,""time"":1912}]",NA,714.7000000000698,static/audio/instructions8.wav,NA,0,NA,NA,NA,NA,NA,NA,NA,NA,NA,NA,NA,NA,NA,NA,NA,NA,NA,NA,NA,NA,NA,NA,NA,NA,NA
fcp-comprehension,18,140295,0.0-5.0-9.0,voc_e2,12189,"[{""event"":""fullscreenenter"",""trial"":1,""time"":1912}]",NA,10654.300000000048,NA,NA,NA,NA,NA,NA,NA,NA,NA,NA,NA,NA,NA,NA,NA,NA,NA,NA,"true,true",0,NA,NA,NA,NA,NA,NA,NA,NA
audio-instructions,19,147386,0.0-6.0-0.0,voc_e2,12189,"[{""event"":""fullscreenenter"",""trial"":1,""time"":1912}]",NA,1541.0999999999767,static/audio/instructions9.wav,NA,0,NA,NA,NA,NA,NA,NA,NA,NA,NA,NA,NA,NA,NA,NA,NA,NA,NA,NA,NA,NA,NA,NA,NA,NA,NA
audio-instructions,20,160613,0.0-6.0-1.0,voc_e2,12189,"[{""event"":""fullscreenenter"",""trial"":1,""time"":1912}]",NA,1108.5,static/audio/instructions10.wav,NA,0,NA,NA,NA,NA,NA,NA,NA,NA,NA,NA,NA,NA,NA,NA,NA,NA,NA,NA,NA,NA,NA,NA,NA,NA,NA
fcp-trial,21,167468,0.0-6.0-2.0,voc_e2,12189,"[{""event"":""fullscreenenter"",""trial"":1,""time"":1912}]",NA,NA,NA,NA,NA,0,#EDC948,#46d3c8,10,10,1,38,1,1991.3000000000466,37,1,3335.4000000000233,10,1,practice,NA,NA,NA,NA,NA,NA,NA,NA,NA,NA
audio-instructions,22,179881,0.0-6.0-3.0,voc_e2,12189,"[{""event"":""fullscreenenter"",""trial"":1,""time"":1912}]",NA,1405.4000000000233,static/audio/instructions11.wav,NA,0,NA,NA,NA,NA,NA,NA,NA,NA,NA,NA,NA,NA,NA,NA,NA,NA,NA,NA,NA,NA,NA,NA,NA,NA,NA
fcp-trial,23,185588,0.0-6.0-4.0,voc_e2,12189,"[{""event"":""fullscreenenter"",""trial"":1,""time"":1912}]",NA,NA,NA,NA,NA,6,#EDC948,#46d3c8,10,10,1,40,0,3021.5,39,0,1175.0999999999767,10,0,practice,NA,NA,NA,NA,NA,NA,NA,NA,NA,NA
audio-instructions,24,208936,0.0-6.0-5.0,voc_e2,12189,"[{""event"":""fullscreenenter"",""trial"":1,""time"":1912}]",NA,4659.699999999953,static/audio/instructions12.wav,NA,0,NA,NA,NA,NA,NA,NA,NA,NA,NA,NA,NA,NA,NA,NA,NA,NA,NA,NA,NA,NA,NA,NA,NA,NA,NA
audio-instructions,25,218019,0.0-6.0-6.0,voc_e2,12189,"[{""event"":""fullscreenenter"",""trial"":1,""time"":1912}]",NA,1482.5,static/audio/instructions13.wav,NA,0,NA,NA,NA,NA,NA,NA,NA,NA,NA,NA,NA,NA,NA,NA,NA,NA,NA,NA,NA,NA,NA,NA,NA,NA,NA
audio-instructions,26,227411,0.0-6.0-7.0,voc_e2,12189,"[{""event"":""fullscreenenter"",""trial"":1,""time"":1912}]",NA,943.8000000000466,static/audio/instructions14.wav,NA,0,NA,NA,NA,NA,NA,NA,NA,NA,NA,NA,NA,NA,NA,NA,NA,NA,NA,NA,NA,NA,NA,NA,NA,NA,NA
audio-instructions,27,235355,0.0-7.0-0.0,voc_e2,12189,"[{""event"":""fullscreenenter"",""trial"":1,""time"":1912}]",NA,1033,static/audio/instructions15.wav,NA,0,NA,NA,NA,NA,NA,NA,NA,NA,NA,NA,NA,NA,NA,NA,NA,NA,NA,NA,NA,NA,NA,NA,NA,NA,NA
audio-instructions,28,242928,0.0-7.0-1.0,voc_e2,12189,"[{""event"":""fullscreenenter"",""trial"":1,""time"":1912}]",NA,744.9000000000233,static/audio/instructions16.wav,NA,0,NA,NA,NA,NA,NA,NA,NA,NA,NA,NA,NA,NA,NA,NA,NA,NA,NA,NA,NA,NA,NA,NA,NA,NA,NA
audio-instructions,29,251520,0.0-7.0-2.0,voc_e2,12189,"[{""event"":""fullscreenenter"",""trial"":1,""time"":1912}]",NA,916.8000000000466,static/audio/instructions17.wav,NA,0,NA,NA,NA,NA,NA,NA,NA,NA,NA,NA,NA,NA,NA,NA,NA,NA,NA,NA,NA,NA,NA,NA,NA,NA,NA
audio-instructions,30,259991,0.0-7.0-3.0,voc_e2,12189,"[{""event"":""fullscreenenter"",""trial"":1,""time"":1912}]",NA,706.7999999999302,static/audio/instructions18.wav,NA,0,NA,NA,NA,NA,NA,NA,NA,NA,NA,NA,NA,NA,NA,NA,NA,NA,NA,NA,NA,NA,NA,NA,NA,NA,NA
audio-instructions,31,267471,0.0-7.0-4.0,voc_e2,12189,"[{""event"":""fullscreenenter"",""trial"":1,""time"":1912}]",NA,747.5999999999767,static/audio/instructions19.wav,NA,0,NA,NA,NA,NA,NA,NA,NA,NA,NA,NA,NA,NA,NA,NA,NA,NA,NA,NA,NA,NA,NA,NA,NA,NA,NA
fcp-comprehension,32,283555,0.0-7.0-5.0,voc_e2,12189,"[{""event"":""fullscreenenter"",""trial"":1,""time"":1912}]",NA,16081.900000000023,NA,NA,NA,NA,NA,NA,NA,NA,NA,NA,NA,NA,NA,NA,NA,NA,NA,NA,"false,false,false,true",0,NA,NA,NA,NA,NA,NA,NA,NA
audio-instructions,33,294338,0.0-8.0,voc_e2,12189,"[{""event"":""fullscreenenter"",""trial"":1,""time"":1912}]",NA,1564.9000000000233,static/audio/ready.wav,NA,0,NA,NA,NA,NA,NA,NA,NA,NA,NA,NA,NA,NA,NA,NA,NA,NA,NA,NA,NA,NA,NA,NA,NA,NA,NA
fcp-trial,34,299437,0.0-9.0-0.0,voc_e2,12189,"[{""event"":""fullscreenenter"",""trial"":1,""time"":1912}]",NA,NA,NA,NA,NA,2,#FA92F8,#1CD855,0,0,1,38,1,2789.5999999999767,37,1,791.6999999999534,0,1,experiment,NA,NA,0,0.9,0.1,0,1,1,1,NA
fcp-trial,35,303288,0.0-10.0-0.0,voc_e2,12189,"[{""event"":""fullscreenenter"",""trial"":1,""time"":1912}]",NA,NA,NA,NA,NA,0,#1CD855,#FA92F8,0,10,0,38,1,1619.7000000000698,39,0,713.7999999999302,10,1,experiment,NA,NA,0,0.1,0.9,1,0,2,1,NA
fcp-trial,36,308172,0.0-11.0-0.0,voc_e2,12189,"[{""event"":""fullscreenenter"",""trial"":1,""time"":1912}]",NA,NA,NA,NA,NA,2,#3386FF,#D89F1C,10,10,1,38,1,2593.100000000093,39,0,770.5,10,0,experiment,NA,NA,1,0.7,0.3,2,3,3,1,NA
fcp-trial,37,313422,0.0-12.0-0.0,voc_e2,12189,"[{""event"":""fullscreenenter"",""trial"":1,""time"":1912}]",NA,NA,NA,NA,NA,2,#D8271C,#741CD8,0,0,0,38,1,2344.8000000000466,39,0,1391.3000000000466,0,1,experiment,NA,NA,2,0.5,0.5,5,4,4,1,NA
fcp-trial,38,316464,0.0-13.0-0.0,voc_e2,12189,"[{""event"":""fullscreenenter"",""trial"":1,""time"":1912}]",NA,NA,NA,NA,NA,0,#D8271C,#741CD8,10,10,0,38,1,1053.2999999999302,39,0,477.5,10,1,experiment,NA,NA,2,0.5,0.5,5,4,5,1,NA
fcp-trial,39,319521,0.0-14.0-0.0,voc_e2,12189,"[{""event"":""fullscreenenter"",""trial"":1,""time"":1912}]",NA,NA,NA,NA,NA,6,#3386FF,#D89F1C,10,0,1,38,1,888,39,0,652.2999999999302,0,0,experiment,NA,NA,1,0.7,0.3,2,3,6,1,NA
fcp-trial,40,322689,0.0-15.0-0.0,voc_e2,12189,"[{""event"":""fullscreenenter"",""trial"":1,""time"":1912}]",NA,NA,NA,NA,NA,3,#1CD855,#FA92F8,0,10,0,38,1,84.30000000004657,39,0,1569,10,1,experiment,NA,NA,0,0.1,0.9,1,0,7,1,NA
fcp-trial,41,325998,0.0-16.0-0.0,voc_e2,12189,"[{""event"":""fullscreenenter"",""trial"":1,""time"":1912}]",NA,NA,NA,NA,NA,1,#D89F1C,#3386FF,0,0,0,38,1,614.5,37,1,1184.0999999998603,0,0,experiment,NA,NA,1,0.3,0.7,3,2,8,1,NA
fcp-trial,42,328931,0.0-17.0-0.0,voc_e2,12189,"[{""event"":""fullscreenenter"",""trial"":1,""time"":1912}]",NA,NA,NA,NA,NA,4,#FA92F8,#1CD855,10,0,1,38,1,665.7999999998137,37,1,755.6000000000931,10,1,experiment,NA,NA,0,0.9,0.1,0,1,9,1,NA
fcp-trial,43,333538,0.0-18.0-0.0,voc_e2,12189,"[{""event"":""fullscreenenter"",""trial"":1,""time"":1912}]",NA,NA,NA,NA,NA,1,#741CD8,#D8271C,0,10,1,38,1,1308.8000000000466,37,1,1787.8000000000466,0,1,experiment,NA,NA,2,0.5,0.5,4,5,10,1,NA
fcp-trial,44,336960,0.0-19.0-0.0,voc_e2,12189,"[{""event"":""fullscreenenter"",""trial"":1,""time"":1912}]",NA,NA,NA,NA,NA,6,#1CD855,#FA92F8,0,10,0,38,1,1328.6999999999534,39,0,582.4000000001397,10,1,experiment,NA,NA,0,0.1,0.9,1,0,11,1,NA
fcp-trial,45,341371,0.0-20.0-0.0,voc_e2,12189,"[{""event"":""fullscreenenter"",""trial"":1,""time"":1912}]",NA,NA,NA,NA,NA,3,#3386FF,#D89F1C,0,0,1,38,1,806,37,1,2097,0,1,experiment,NA,NA,1,0.7,0.3,2,3,12,1,NA
fcp-trial,46,344734,0.0-21.0-0.0,voc_e2,12189,"[{""event"":""fullscreenenter"",""trial"":1,""time"":1912}]",NA,NA,NA,NA,NA,4,#741CD8,#D8271C,10,0,1,38,1,589.8999999999069,39,0,1262.7000000001865,0,0,experiment,NA,NA,2,0.5,0.5,4,5,13,1,NA
fcp-trial,47,347288,0.0-22.0-0.0,voc_e2,12189,"[{""event"":""fullscreenenter"",""trial"":1,""time"":1912}]",NA,NA,NA,NA,NA,5,#1CD855,#FA92F8,0,10,0,38,1,641.5999999998603,39,0,402.69999999995343,10,1,experiment,NA,NA,0,0.1,0.9,1,0,14,1,NA
fcp-trial,48,352275,0.0-23.0-0.0,voc_e2,12189,"[{""event"":""fullscreenenter"",""trial"":1,""time"":1912}]",NA,NA,NA,NA,NA,3,#741CD8,#D8271C,10,10,1,38,1,848.1000000000931,39,0,2626.2000000001863,10,0,experiment,NA,NA,2,0.5,0.5,4,5,15,1,NA
fcp-trial,49,355482,0.0-24.0-0.0,voc_e2,12189,"[{""event"":""fullscreenenter"",""trial"":1,""time"":1912}]",NA,NA,NA,NA,NA,0,#3386FF,#D89F1C,0,0,1,38,1,509.4000000001397,39,0,1187.6999999999534,0,0,experiment,NA,NA,1,0.7,0.3,2,3,16,1,NA
fcp-trial,50,358461,0.0-25.0-0.0,voc_e2,12189,"[{""event"":""fullscreenenter"",""trial"":1,""time"":1912}]",NA,NA,NA,NA,NA,4,#D89F1C,#3386FF,0,0,0,38,1,761.8000000000466,39,0,709,0,1,experiment,NA,NA,1,0.3,0.7,3,2,17,1,NA
fcp-trial,51,361170,0.0-26.0-0.0,voc_e2,12189,"[{""event"":""fullscreenenter"",""trial"":1,""time"":1912}]",NA,NA,NA,NA,NA,5,#D89F1C,#3386FF,10,10,0,38,1,687.5,39,0,512.5999999998603,10,1,experiment,NA,NA,1,0.3,0.7,3,2,18,1,NA
fcp-trial,52,363718,0.0-27.0-0.0,voc_e2,12189,"[{""event"":""fullscreenenter"",""trial"":1,""time"":1912}]",NA,NA,NA,NA,NA,1,#FA92F8,#1CD855,10,0,1,38,1,662.1999999999534,37,1,374.10000000009313,10,1,experiment,NA,NA,0,0.9,0.1,0,1,19,1,NA
fcp-trial,53,366615,0.0-28.0-0.0,voc_e2,12189,"[{""event"":""fullscreenenter"",""trial"":1,""time"":1912}]",NA,NA,NA,NA,NA,6,#741CD8,#D8271C,10,10,1,38,1,711,39,0,675.3000000000466,10,0,experiment,NA,NA,2,0.5,0.5,4,5,20,1,NA
fcp-trial,54,370619,0.0-29.0-0.0,voc_e2,12189,"[{""event"":""fullscreenenter"",""trial"":1,""time"":1912}]",NA,NA,NA,NA,NA,5,#D8271C,#741CD8,10,10,0,40,0,1061.5,37,1,1429,10,0,experiment,NA,NA,2,0.5,0.5,5,4,21,1,NA
fcp-trial,55,376461,0.0-30.0-0.0,voc_e2,12189,"[{""event"":""fullscreenenter"",""trial"":1,""time"":1912}]",NA,NA,NA,NA,NA,2,#D89F1C,#3386FF,0,10,0,38,1,1166,39,0,3165,10,1,experiment,NA,NA,1,0.3,0.7,3,2,22,1,NA
fcp-trial,56,378954,0.0-31.0-0.0,voc_e2,12189,"[{""event"":""fullscreenenter"",""trial"":1,""time"":1912}]",NA,NA,NA,NA,NA,5,#FA92F8,#1CD855,10,0,1,38,1,662,37,1,321.69999999995343,10,1,experiment,NA,NA,0,0.9,0.1,0,1,23,1,NA
fcp-trial,57,382266,0.0-32.0-0.0,voc_e2,12189,"[{""event"":""fullscreenenter"",""trial"":1,""time"":1912}]",NA,NA,NA,NA,NA,3,#D89F1C,#3386FF,0,10,0,38,1,520.6999999999534,39,0,1282.9000000001397,10,1,experiment,NA,NA,1,0.3,0.7,3,2,24,1,NA
fcp-trial,58,384878,0.0-33.0-0.0,voc_e2,12189,"[{""event"":""fullscreenenter"",""trial"":1,""time"":1912}]",NA,NA,NA,NA,NA,3,#FA92F8,#1CD855,10,0,1,38,1,566.1999999999534,37,1,532.6999999999534,10,1,experiment,NA,NA,0,0.9,0.1,0,1,25,1,NA
fcp-trial,59,387733,0.0-34.0-0.0,voc_e2,12189,"[{""event"":""fullscreenenter"",""trial"":1,""time"":1912}]",NA,NA,NA,NA,NA,4,#FA92F8,#1CD855,10,0,1,38,1,1078.4000000001397,37,1,266.39999999990687,10,1,experiment,NA,NA,0,0.9,0.1,0,1,26,1,NA
fcp-trial,60,391563,0.0-35.0-0.0,voc_e2,12189,"[{""event"":""fullscreenenter"",""trial"":1,""time"":1912}]",NA,NA,NA,NA,NA,2,#D8271C,#741CD8,10,10,0,38,1,574.0999999998603,37,1,1745.4000000001397,10,0,experiment,NA,NA,2,0.5,0.5,5,4,27,1,NA
fcp-trial,61,394113,0.0-36.0-0.0,voc_e2,12189,"[{""event"":""fullscreenenter"",""trial"":1,""time"":1912}]",NA,NA,NA,NA,NA,5,#741CD8,#D8271C,10,0,1,38,1,636.8999999999069,39,0,402.30000000004657,0,0,experiment,NA,NA,2,0.5,0.5,4,5,28,1,NA
fcp-trial,62,397184,0.0-37.0-0.0,voc_e2,12189,"[{""event"":""fullscreenenter"",""trial"":1,""time"":1912}]",NA,NA,NA,NA,NA,6,#3386FF,#D89F1C,10,0,1,38,1,454.5,37,1,1106.8999999999069,10,1,experiment,NA,NA,1,0.7,0.3,2,3,29,1,NA
fcp-trial,63,399765,0.0-38.0-0.0,voc_e2,12189,"[{""event"":""fullscreenenter"",""trial"":1,""time"":1912}]",NA,NA,NA,NA,NA,2,#FA92F8,#1CD855,10,0,1,38,1,595.0999999998603,37,1,476.5999999998603,10,1,experiment,NA,NA,0,0.9,0.1,0,1,30,1,NA
fcp-trial,64,405680,0.0-39.0-0.0,voc_e2,12189,"[{""event"":""fullscreenenter"",""trial"":1,""time"":1912}]",NA,NA,NA,NA,NA,4,#741CD8,#D8271C,10,10,1,38,1,662.8000000000466,37,1,3740.5,10,1,experiment,NA,NA,2,0.5,0.5,4,5,31,1,NA
fcp-trial,65,408552,0.0-40.0-0.0,voc_e2,12189,"[{""event"":""fullscreenenter"",""trial"":1,""time"":1912}]",NA,NA,NA,NA,NA,4,#3386FF,#D89F1C,10,0,1,38,1,447.30000000004657,37,1,914.6999999999534,10,1,experiment,NA,NA,1,0.7,0.3,2,3,32,1,NA
fcp-trial,66,411377,0.0-41.0-0.0,voc_e2,12189,"[{""event"":""fullscreenenter"",""trial"":1,""time"":1912}]",NA,NA,NA,NA,NA,0,#D8271C,#741CD8,10,0,0,38,1,417.5,37,1,897.5,10,0,experiment,NA,NA,2,0.5,0.5,5,4,33,1,NA
fcp-trial,67,413620,0.0-42.0-0.0,voc_e2,12189,"[{""event"":""fullscreenenter"",""trial"":1,""time"":1912}]",NA,NA,NA,NA,NA,0,#FA92F8,#1CD855,10,0,1,38,1,352.69999999995343,37,1,374.80000000004657,10,1,experiment,NA,NA,0,0.9,0.1,0,1,34,1,NA
fcp-trial,68,416337,0.0-43.0-0.0,voc_e2,12189,"[{""event"":""fullscreenenter"",""trial"":1,""time"":1912}]",NA,NA,NA,NA,NA,0,#3386FF,#D89F1C,0,0,1,38,1,503.60000000009313,37,1,705.5,0,1,experiment,NA,NA,1,0.7,0.3,2,3,35,1,NA
fcp-trial,69,419003,0.0-44.0-0.0,voc_e2,12189,"[{""event"":""fullscreenenter"",""trial"":1,""time"":1912}]",NA,NA,NA,NA,NA,3,#741CD8,#D8271C,0,10,1,38,1,646.3000000000466,37,1,511.20000000018626,0,1,experiment,NA,NA,2,0.5,0.5,4,5,36,1,NA
fcp-trial,70,421205,0.0-45.0-0.0,voc_e2,12189,"[{""event"":""fullscreenenter"",""trial"":1,""time"":1912}]",NA,NA,NA,NA,NA,1,#FA92F8,#1CD855,10,0,1,38,1,364.19999999995343,37,1,328.69999999995343,10,1,experiment,NA,NA,0,0.9,0.1,0,1,37,1,NA
fcp-trial,71,423545,0.0-46.0-0.0,voc_e2,12189,"[{""event"":""fullscreenenter"",""trial"":1,""time"":1912}]",NA,NA,NA,NA,NA,1,#D89F1C,#3386FF,10,10,0,38,1,549.1000000000931,39,0,281.69999999995343,10,1,experiment,NA,NA,1,0.3,0.7,3,2,38,1,NA
fcp-trial,72,427770,0.0-47.0-0.0,voc_e2,12189,"[{""event"":""fullscreenenter"",""trial"":1,""time"":1912}]",NA,NA,NA,NA,NA,1,#D8271C,#741CD8,0,0,0,38,1,483.9000000001397,39,0,2229.3000000000466,0,1,experiment,NA,NA,2,0.5,0.5,5,4,39,1,NA
fcp-trial,73,429991,0.0-48.0-0.0,voc_e2,12189,"[{""event"":""fullscreenenter"",""trial"":1,""time"":1912}]",NA,NA,NA,NA,NA,6,#FA92F8,#1CD855,0,0,1,38,1,447.79999999981374,37,1,261.5,0,1,experiment,NA,NA,0,0.9,0.1,0,1,40,1,NA
fcp-trial,74,434671,0.0-49.0-0.0,voc_e2,12189,"[{""event"":""fullscreenenter"",""trial"":1,""time"":1912}]",NA,NA,NA,NA,NA,6,#741CD8,#D8271C,0,10,1,38,1,402.79999999981374,37,1,2765.100000000093,0,1,experiment,NA,NA,2,0.5,0.5,4,5,41,1,NA
fcp-trial,75,436942,0.0-50.0-0.0,voc_e2,12189,"[{""event"":""fullscreenenter"",""trial"":1,""time"":1912}]",NA,NA,NA,NA,NA,5,#3386FF,#D89F1C,10,0,1,38,1,303.70000000018626,37,1,456.19999999995343,10,1,experiment,NA,NA,1,0.7,0.3,2,3,42,1,NA
fcp-trial,76,439758,0.0-51.0-0.0,voc_e2,12189,"[{""event"":""fullscreenenter"",""trial"":1,""time"":1912}]",NA,NA,NA,NA,NA,2,#3386FF,#D89F1C,10,0,1,38,1,728.8000000000466,37,1,577.1999999999534,10,1,experiment,NA,NA,1,0.7,0.3,2,3,43,1,NA
fcp-trial,77,444437,0.0-52.0-0.0,voc_e2,12189,"[{""event"":""fullscreenenter"",""trial"":1,""time"":1912}]",NA,NA,NA,NA,NA,1,#FA92F8,#1CD855,0,0,1,38,1,1964.5,37,1,1201.1000000000931,0,1,experiment,NA,NA,0,0.9,0.1,0,1,44,1,NA
fcp-trial,78,446836,0.0-53.0-0.0,voc_e2,12189,"[{""event"":""fullscreenenter"",""trial"":1,""time"":1912}]",NA,NA,NA,NA,NA,0,#D89F1C,#3386FF,10,10,0,38,1,483.89999999990687,39,0,405.39999999990687,10,1,experiment,NA,NA,1,0.3,0.7,3,2,45,1,NA
fcp-trial,79,450016,0.0-54.0-0.0,voc_e2,12189,"[{""event"":""fullscreenenter"",""trial"":1,""time"":1912}]",NA,NA,NA,NA,NA,3,#1CD855,#FA92F8,0,10,0,38,1,563.8000000000466,39,0,1106.5999999998603,10,1,experiment,NA,NA,0,0.1,0.9,1,0,46,2,NA
fcp-trial,80,453187,0.0-55.0-0.0,voc_e2,12189,"[{""event"":""fullscreenenter"",""trial"":1,""time"":1912}]",NA,NA,NA,NA,NA,5,#D8271C,#741CD8,0,0,0,38,1,607.4000000001397,37,1,1051.1999999999534,0,0,experiment,NA,NA,2,0.5,0.5,5,4,47,2,NA
fcp-trial,81,456221,0.0-56.0-0.0,voc_e2,12189,"[{""event"":""fullscreenenter"",""trial"":1,""time"":1912}]",NA,NA,NA,NA,NA,6,#741CD8,#D8271C,10,10,1,38,1,494.69999999995343,39,0,1028.6999999999534,10,0,experiment,NA,NA,2,0.5,0.5,4,5,48,2,NA
fcp-trial,82,458972,0.0-57.0-0.0,voc_e2,12189,"[{""event"":""fullscreenenter"",""trial"":1,""time"":1912}]",NA,NA,NA,NA,NA,3,#D89F1C,#3386FF,10,10,0,38,1,516.3000000000466,39,0,724,10,1,experiment,NA,NA,1,0.3,0.7,3,2,49,2,NA
fcp-trial,83,462113,0.0-58.0-0.0,voc_e2,12189,"[{""event"":""fullscreenenter"",""trial"":1,""time"":1912}]",NA,NA,NA,NA,NA,2,#FA92F8,#1CD855,10,0,1,38,1,777.5,37,1,853.6999999999534,10,1,experiment,NA,NA,0,0.9,0.1,0,1,50,2,NA
fcp-trial,84,465883,0.0-59.0-0.0,voc_e2,12189,"[{""event"":""fullscreenenter"",""trial"":1,""time"":1912}]",NA,NA,NA,NA,NA,3,#741CD8,#D8271C,0,10,1,38,1,603.8000000000466,39,0,1657.5999999998603,10,0,experiment,NA,NA,2,0.5,0.5,4,5,51,2,NA
fcp-trial,85,468283,0.0-60.0-0.0,voc_e2,12189,"[{""event"":""fullscreenenter"",""trial"":1,""time"":1912}]",NA,NA,NA,NA,NA,6,#D89F1C,#3386FF,0,10,0,38,1,495.39999999990687,39,0,392.5,10,1,experiment,NA,NA,1,0.3,0.7,3,2,52,2,NA
fcp-trial,86,471567,0.0-61.0-0.0,voc_e2,12189,"[{""event"":""fullscreenenter"",""trial"":1,""time"":1912}]",NA,NA,NA,NA,NA,5,#FA92F8,#1CD855,10,0,1,38,1,1207.8000000000466,37,1,565.1999999999534,10,1,experiment,NA,NA,0,0.9,0.1,0,1,53,2,NA
fcp-trial,87,474221,0.0-62.0-0.0,voc_e2,12189,"[{""event"":""fullscreenenter"",""trial"":1,""time"":1912}]",NA,NA,NA,NA,NA,6,#1CD855,#FA92F8,0,10,0,38,1,612.6999999999534,39,0,528.3000000000466,10,1,experiment,NA,NA,0,0.1,0.9,1,0,54,2,NA
fcp-trial,88,477031,0.0-63.0-0.0,voc_e2,12189,"[{""event"":""fullscreenenter"",""trial"":1,""time"":1912}]",NA,NA,NA,NA,NA,5,#D89F1C,#3386FF,0,0,0,38,1,891.3999999999069,39,0,407,0,1,experiment,NA,NA,1,0.3,0.7,3,2,55,2,NA
fcp-trial,89,483974,0.0-64.0-0.0,voc_e2,12189,"[{""event"":""fullscreenenter"",""trial"":1,""time"":1912}]",NA,NA,NA,NA,NA,1,#D8271C,#741CD8,0,10,0,38,1,691.1999999999534,39,0,4740.90000000014,10,1,experiment,NA,NA,2,0.5,0.5,5,4,56,2,NA
fcp-trial,90,486517,0.0-65.0-0.0,voc_e2,12189,"[{""event"":""fullscreenenter"",""trial"":1,""time"":1912}]",NA,NA,NA,NA,NA,2,#D8271C,#741CD8,0,10,0,38,1,537.3000000000466,39,0,495.10000000009313,10,1,experiment,NA,NA,2,0.5,0.5,5,4,57,2,NA
fcp-trial,91,489081,0.0-66.0-0.0,voc_e2,12189,"[{""event"":""fullscreenenter"",""trial"":1,""time"":1912}]",NA,NA,NA,NA,NA,0,#FA92F8,#1CD855,10,0,1,38,1,524.7999999998137,37,1,528,10,1,experiment,NA,NA,0,0.9,0.1,0,1,58,2,NA
fcp-trial,92,491621,0.0-67.0-0.0,voc_e2,12189,"[{""event"":""fullscreenenter"",""trial"":1,""time"":1912}]",NA,NA,NA,NA,NA,4,#741CD8,#D8271C,10,0,1,38,1,468.5999999998603,37,1,562,10,1,experiment,NA,NA,2,0.5,0.5,4,5,59,2,NA
fcp-trial,93,494161,0.0-68.0-0.0,voc_e2,12189,"[{""event"":""fullscreenenter"",""trial"":1,""time"":1912}]",NA,NA,NA,NA,NA,1,#3386FF,#D89F1C,10,0,1,38,1,532.7999999998137,37,1,491.0999999998603,10,1,experiment,NA,NA,1,0.7,0.3,2,3,60,2,NA
fcp-trial,94,496983,0.0-69.0-0.0,voc_e2,12189,"[{""event"":""fullscreenenter"",""trial"":1,""time"":1912}]",NA,NA,NA,NA,NA,0,#D8271C,#741CD8,0,10,0,38,1,776.3999999999069,39,0,536,10,1,experiment,NA,NA,2,0.5,0.5,5,4,61,2,NA
fcp-trial,95,499539,0.0-70.0-0.0,voc_e2,12189,"[{""event"":""fullscreenenter"",""trial"":1,""time"":1912}]",NA,NA,NA,NA,NA,4,#FA92F8,#1CD855,10,0,1,38,1,746,37,1,297.4000000001397,10,1,experiment,NA,NA,0,0.9,0.1,0,1,62,2,NA
fcp-trial,96,502126,0.0-71.0-0.0,voc_e2,12189,"[{""event"":""fullscreenenter"",""trial"":1,""time"":1912}]",NA,NA,NA,NA,NA,4,#D89F1C,#3386FF,0,10,0,38,1,661.6000000000931,39,0,416.30000000004657,10,1,experiment,NA,NA,1,0.3,0.7,3,2,63,2,NA
fcp-trial,97,505768,0.0-72.0-0.0,voc_e2,12189,"[{""event"":""fullscreenenter"",""trial"":1,""time"":1912}]",NA,NA,NA,NA,NA,6,#FA92F8,#1CD855,10,0,1,40,0,1001.0999999998603,37,1,1127.5,10,1,experiment,NA,NA,0,0.9,0.1,0,1,64,2,NA
fcp-trial,98,508560,0.0-73.0-0.0,voc_e2,12189,"[{""event"":""fullscreenenter"",""trial"":1,""time"":1912}]",NA,NA,NA,NA,NA,3,#D8271C,#741CD8,10,0,0,38,1,567.8000000000466,39,0,714.0999999998603,0,1,experiment,NA,NA,2,0.5,0.5,5,4,65,2,NA
fcp-trial,99,512313,0.0-74.0-0.0,voc_e2,12189,"[{""event"":""fullscreenenter"",""trial"":1,""time"":1912}]",NA,NA,NA,NA,NA,5,#D8271C,#741CD8,10,0,0,40,0,1584.1000000000931,39,0,656.8999999999069,0,1,experiment,NA,NA,2,0.5,0.5,5,4,66,2,NA
fcp-trial,100,515407,0.0-75.0-0.0,voc_e2,12189,"[{""event"":""fullscreenenter"",""trial"":1,""time"":1912}]",NA,NA,NA,NA,NA,6,#3386FF,#D89F1C,10,0,1,38,1,1296.5,37,1,288.30000000004657,10,1,experiment,NA,NA,1,0.7,0.3,2,3,67,2,NA
fcp-trial,101,518360,0.0-76.0-0.0,voc_e2,12189,"[{""event"":""fullscreenenter"",""trial"":1,""time"":1912}]",NA,NA,NA,NA,NA,3,#3386FF,#D89F1C,10,10,1,38,1,881.3999999999069,37,1,560.8000000000466,10,1,experiment,NA,NA,1,0.7,0.3,2,3,68,2,NA
fcp-trial,102,521120,0.0-77.0-0.0,voc_e2,12189,"[{""event"":""fullscreenenter"",""trial"":1,""time"":1912}]",NA,NA,NA,NA,NA,2,#FA92F8,#1CD855,10,0,1,38,1,882.1999999999534,37,1,366.5,10,1,experiment,NA,NA,0,0.9,0.1,0,1,69,2,NA
fcp-trial,103,525462,0.0-78.0-0.0,voc_e2,12189,"[{""event"":""fullscreenenter"",""trial"":1,""time"":1912}]",NA,NA,NA,NA,NA,6,#741CD8,#D8271C,0,0,1,40,0,2041,37,1,792.4000000001397,0,1,experiment,NA,NA,2,0.5,0.5,4,5,70,2,NA
fcp-trial,104,528438,0.0-79.0-0.0,voc_e2,12189,"[{""event"":""fullscreenenter"",""trial"":1,""time"":1912}]",NA,NA,NA,NA,NA,2,#D89F1C,#3386FF,0,10,0,38,1,1156.3000000000466,39,0,308.89999999990687,10,1,experiment,NA,NA,1,0.3,0.7,3,2,71,2,NA
fcp-trial,105,531684,0.0-80.0-0.0,voc_e2,12189,"[{""event"":""fullscreenenter"",""trial"":1,""time"":1912}]",NA,NA,NA,NA,NA,5,#D89F1C,#3386FF,10,0,0,38,1,1473.5999999998603,39,0,262.69999999995343,0,1,experiment,NA,NA,1,0.3,0.7,3,2,72,2,NA
fcp-trial,106,535526,0.0-81.0-0.0,voc_e2,12189,"[{""event"":""fullscreenenter"",""trial"":1,""time"":1912}]",NA,NA,NA,NA,NA,0,#1CD855,#FA92F8,0,10,0,38,1,1294.3000000000466,39,0,1036.9000000001397,10,1,experiment,NA,NA,0,0.1,0.9,1,0,73,2,NA
fcp-trial,107,539158,0.0-82.0-0.0,voc_e2,12189,"[{""event"":""fullscreenenter"",""trial"":1,""time"":1912}]",NA,NA,NA,NA,NA,4,#741CD8,#D8271C,10,0,1,40,0,1323.3000000000466,39,0,798.2999999998137,0,0,experiment,NA,NA,2,0.5,0.5,4,5,74,2,NA
fcp-trial,108,543000,0.0-83.0-0.0,voc_e2,12189,"[{""event"":""fullscreenenter"",""trial"":1,""time"":1912}]",NA,NA,NA,NA,NA,2,#741CD8,#D8271C,10,0,1,38,1,1623.1999999999534,37,1,708.2999999998137,10,1,experiment,NA,NA,2,0.5,0.5,4,5,75,2,NA
fcp-trial,109,545425,0.0-84.0-0.0,voc_e2,12189,"[{""event"":""fullscreenenter"",""trial"":1,""time"":1912}]",NA,NA,NA,NA,NA,5,#FA92F8,#1CD855,10,0,1,38,1,584.1999999999534,37,1,331.30000000004657,10,1,experiment,NA,NA,0,0.9,0.1,0,1,76,2,NA
fcp-trial,110,548423,0.0-85.0-0.0,voc_e2,12189,"[{""event"":""fullscreenenter"",""trial"":1,""time"":1912}]",NA,NA,NA,NA,NA,0,#D89F1C,#3386FF,0,10,0,38,1,844.6000000000931,39,0,644.0999999998603,10,1,experiment,NA,NA,1,0.3,0.7,3,2,77,2,NA
fcp-trial,111,550768,0.0-86.0-0.0,voc_e2,12189,"[{""event"":""fullscreenenter"",""trial"":1,""time"":1912}]",NA,NA,NA,NA,NA,1,#1CD855,#FA92F8,0,10,0,38,1,549,39,0,286.10000000009313,10,1,experiment,NA,NA,0,0.1,0.9,1,0,78,2,NA
fcp-trial,112,554366,0.0-87.0-0.0,voc_e2,12189,"[{""event"":""fullscreenenter"",""trial"":1,""time"":1912}]",NA,NA,NA,NA,NA,1,#D8271C,#741CD8,0,10,0,38,1,905.6000000000931,39,0,1180.6999999999534,10,1,experiment,NA,NA,2,0.5,0.5,5,4,79,2,NA
fcp-trial,113,557791,0.0-88.0-0.0,voc_e2,12189,"[{""event"":""fullscreenenter"",""trial"":1,""time"":1912}]",NA,NA,NA,NA,NA,4,#FA92F8,#1CD855,10,0,1,38,1,1369.9000000001397,37,1,546.1000000000931,10,1,experiment,NA,NA,0,0.9,0.1,0,1,80,2,NA
fcp-trial,114,560211,0.0-89.0-0.0,voc_e2,12189,"[{""event"":""fullscreenenter"",""trial"":1,""time"":1912}]",NA,NA,NA,NA,NA,1,#D89F1C,#3386FF,0,10,0,38,1,645.6999999999534,39,0,263.10000000009313,10,1,experiment,NA,NA,1,0.3,0.7,3,2,81,2,NA
fcp-trial,115,563699,0.0-90.0-0.0,voc_e2,12189,"[{""event"":""fullscreenenter"",""trial"":1,""time"":1912}]",NA,NA,NA,NA,NA,3,#1CD855,#FA92F8,10,0,0,38,1,1636.8999999999069,39,0,340,0,1,experiment,NA,NA,0,0.1,0.9,1,0,82,2,NA
fcp-trial,116,567516,0.0-91.0-0.0,voc_e2,12189,"[{""event"":""fullscreenenter"",""trial"":1,""time"":1912}]",NA,NA,NA,NA,NA,0,#D8271C,#741CD8,10,10,0,38,1,1738.6999999999534,39,0,570,10,1,experiment,NA,NA,2,0.5,0.5,5,4,83,2,NA
fcp-trial,117,570031,0.0-92.0-0.0,voc_e2,12189,"[{""event"":""fullscreenenter"",""trial"":1,""time"":1912}]",NA,NA,NA,NA,NA,4,#3386FF,#D89F1C,10,0,1,38,1,573.2999999998137,37,1,432.60000000009313,10,1,experiment,NA,NA,1,0.7,0.3,2,3,84,2,NA
fcp-trial,118,572351,0.0-93.0-0.0,voc_e2,12189,"[{""event"":""fullscreenenter"",""trial"":1,""time"":1912}]",NA,NA,NA,NA,NA,2,#1CD855,#FA92F8,0,10,0,38,1,526.8999999999069,39,0,284.19999999995343,10,1,experiment,NA,NA,0,0.1,0.9,1,0,85,2,NA
fcp-trial,119,575020,0.0-94.0-0.0,voc_e2,12189,"[{""event"":""fullscreenenter"",""trial"":1,""time"":1912}]",NA,NA,NA,NA,NA,1,#3386FF,#D89F1C,10,0,1,38,1,586.3999999999069,37,1,572.1999999999534,10,1,experiment,NA,NA,1,0.7,0.3,2,3,86,2,NA
fcp-trial,120,578250,0.0-95.0-0.0,voc_e2,12189,"[{""event"":""fullscreenenter"",""trial"":1,""time"":1912}]",NA,NA,NA,NA,NA,0,#741CD8,#D8271C,0,10,1,38,1,560.5,39,0,1158.3000000000466,10,0,experiment,NA,NA,2,0.5,0.5,4,5,87,2,NA
fcp-trial,121,580975,0.0-96.0-0.0,voc_e2,12189,"[{""event"":""fullscreenenter"",""trial"":1,""time"":1912}]",NA,NA,NA,NA,NA,6,#741CD8,#D8271C,10,10,1,38,1,585.3000000000466,37,1,630,10,1,experiment,NA,NA,2,0.5,0.5,4,5,88,2,NA
fcp-trial,122,584174,0.0-97.0-0.0,voc_e2,12189,"[{""event"":""fullscreenenter"",""trial"":1,""time"":1912}]",NA,NA,NA,NA,NA,1,#1CD855,#FA92F8,10,10,0,38,1,1273.5999999998603,39,0,413.60000000009313,10,1,experiment,NA,NA,0,0.1,0.9,1,0,89,2,NA
fcp-trial,123,586440,0.0-98.0-0.0,voc_e2,12189,"[{""event"":""fullscreenenter"",""trial"":1,""time"":1912}]",NA,NA,NA,NA,NA,6,#D89F1C,#3386FF,0,0,0,38,1,438.19999999995343,39,0,317.9000000001397,0,1,experiment,NA,NA,1,0.3,0.7,3,2,90,2,NA
fcp-trial,124,588880,0.0-99.0-0.0,voc_e2,12189,"[{""event"":""fullscreenenter"",""trial"":1,""time"":1912}]",NA,NA,NA,NA,NA,1,#741CD8,#D8271C,0,0,1,38,1,517.6000000000931,39,0,410.69999999995343,0,0,experiment,NA,NA,2,0.5,0.5,4,5,91,3,NA
fcp-trial,125,591114,0.0-100.0-0.0,voc_e2,12189,"[{""event"":""fullscreenenter"",""trial"":1,""time"":1912}]",NA,NA,NA,NA,NA,3,#3386FF,#D89F1C,10,10,1,38,1,342.4000000001397,37,1,381.69999999995343,10,1,experiment,NA,NA,1,0.7,0.3,2,3,92,3,NA
fcp-trial,126,593509,0.0-101.0-0.0,voc_e2,12189,"[{""event"":""fullscreenenter"",""trial"":1,""time"":1912}]",NA,NA,NA,NA,NA,4,#1CD855,#FA92F8,0,0,0,38,1,545.6999999999534,39,0,339.10000000009313,0,1,experiment,NA,NA,0,0.1,0.9,1,0,93,3,NA
fcp-trial,127,595843,0.0-102.0-0.0,voc_e2,12189,"[{""event"":""fullscreenenter"",""trial"":1,""time"":1912}]",NA,NA,NA,NA,NA,4,#3386FF,#D89F1C,10,0,1,38,1,347.30000000004657,37,1,474.0999999998603,10,1,experiment,NA,NA,1,0.7,0.3,2,3,94,3,NA
fcp-trial,128,598013,0.0-103.0-0.0,voc_e2,12189,"[{""event"":""fullscreenenter"",""trial"":1,""time"":1912}]",NA,NA,NA,NA,NA,3,#1CD855,#FA92F8,0,10,0,38,1,393.30000000004657,39,0,267.5,10,1,experiment,NA,NA,0,0.1,0.9,1,0,95,3,NA
fcp-trial,129,600942,0.0-104.0-0.0,voc_e2,12189,"[{""event"":""fullscreenenter"",""trial"":1,""time"":1912}]",NA,NA,NA,NA,NA,3,#D8271C,#741CD8,0,0,0,38,1,354.9000000001397,39,0,1062.9000000001397,0,1,experiment,NA,NA,2,0.5,0.5,5,4,96,3,NA
fcp-trial,130,603274,0.0-105.0-0.0,voc_e2,12189,"[{""event"":""fullscreenenter"",""trial"":1,""time"":1912}]",NA,NA,NA,NA,NA,0,#FA92F8,#1CD855,10,0,1,38,1,556.3000000000466,37,1,264.5999999998603,10,1,experiment,NA,NA,0,0.9,0.1,0,1,97,3,NA
fcp-trial,131,605661,0.0-106.0-0.0,voc_e2,12189,"[{""event"":""fullscreenenter"",""trial"":1,""time"":1912}]",NA,NA,NA,NA,NA,2,#D89F1C,#3386FF,0,0,0,38,1,551.5999999998603,39,0,326.0999999998603,0,1,experiment,NA,NA,1,0.3,0.7,3,2,98,3,NA
fcp-trial,132,609066,0.0-107.0-0.0,voc_e2,12189,"[{""event"":""fullscreenenter"",""trial"":1,""time"":1912}]",NA,NA,NA,NA,NA,4,#D8271C,#741CD8,10,10,0,40,0,1512.8999999999069,39,0,378.30000000004657,10,1,experiment,NA,NA,2,0.5,0.5,5,4,99,3,NA
fcp-trial,133,611601,0.0-108.0-0.0,voc_e2,12189,"[{""event"":""fullscreenenter"",""trial"":1,""time"":1912}]",NA,NA,NA,NA,NA,5,#D89F1C,#3386FF,0,0,0,38,1,618.6999999999534,39,0,403.89999999990687,0,1,experiment,NA,NA,1,0.3,0.7,3,2,100,3,NA
fcp-trial,134,614208,0.0-109.0-0.0,voc_e2,12189,"[{""event"":""fullscreenenter"",""trial"":1,""time"":1912}]",NA,NA,NA,NA,NA,2,#741CD8,#D8271C,10,0,1,38,1,510.69999999995343,37,1,584.1999999999534,10,1,experiment,NA,NA,2,0.5,0.5,4,5,101,3,NA
fcp-trial,135,618088,0.0-110.0-0.0,voc_e2,12189,"[{""event"":""fullscreenenter"",""trial"":1,""time"":1912}]",NA,NA,NA,NA,NA,5,#FA92F8,#1CD855,10,10,1,38,1,1922,37,1,449.5,10,1,experiment,NA,NA,0,0.9,0.1,0,1,102,3,NA
fcp-trial,136,620561,0.0-111.0-0.0,voc_e2,12189,"[{""event"":""fullscreenenter"",""trial"":1,""time"":1912}]",NA,NA,NA,NA,NA,0,#3386FF,#D89F1C,10,0,1,38,1,519.8000000000466,37,1,442.30000000004657,10,1,experiment,NA,NA,1,0.7,0.3,2,3,103,3,NA
fcp-trial,137,623342,0.0-112.0-0.0,voc_e2,12189,"[{""event"":""fullscreenenter"",""trial"":1,""time"":1912}]",NA,NA,NA,NA,NA,5,#D8271C,#741CD8,10,10,0,38,1,911.8000000000466,39,0,356.5,10,1,experiment,NA,NA,2,0.5,0.5,5,4,104,3,NA
fcp-trial,138,625911,0.0-113.0-0.0,voc_e2,12189,"[{""event"":""fullscreenenter"",""trial"":1,""time"":1912}]",NA,NA,NA,NA,NA,6,#FA92F8,#1CD855,10,0,1,38,1,486.80000000004657,37,1,570.8000000000466,10,1,experiment,NA,NA,0,0.9,0.1,0,1,105,3,NA
audio-instructions,139,631545,0.0-114.0,voc_e2,12189,"[{""event"":""fullscreenenter"",""trial"":1,""time"":1912}]",NA,946.8000000000466,static/audio/pause.wav,NA,0,NA,NA,NA,NA,NA,NA,NA,NA,NA,NA,NA,NA,NA,NA,NA,NA,NA,NA,NA,NA,NA,NA,NA,NA,NA
fcp-trial,140,634482,0.0-115.0-0.0,voc_e2,12189,"[{""event"":""fullscreenenter"",""trial"":1,""time"":1912}]",NA,NA,NA,NA,NA,0,#D89F1C,#3386FF,0,10,0,38,1,1154.8000000000466,39,0,260.89999999990687,10,1,experiment,NA,NA,1,0.3,0.7,3,2,106,3,NA
fcp-trial,141,637999,0.0-116.0-0.0,voc_e2,12189,"[{""event"":""fullscreenenter"",""trial"":1,""time"":1912}]",NA,NA,NA,NA,NA,5,#D8271C,#741CD8,10,10,0,38,1,552.5,39,0,1451.6999999999534,10,1,experiment,NA,NA,2,0.5,0.5,5,4,107,3,NA
fcp-trial,142,640599,0.0-117.0-0.0,voc_e2,12189,"[{""event"":""fullscreenenter"",""trial"":1,""time"":1912}]",NA,NA,NA,NA,NA,2,#3386FF,#D89F1C,10,0,1,38,1,516.6000000000931,37,1,568.3000000000466,10,1,experiment,NA,NA,1,0.7,0.3,2,3,108,3,NA
fcp-trial,143,643240,0.0-118.0-0.0,voc_e2,12189,"[{""event"":""fullscreenenter"",""trial"":1,""time"":1912}]",NA,NA,NA,NA,NA,6,#FA92F8,#1CD855,10,0,1,38,1,553.7999999998137,37,1,569.5,10,1,experiment,NA,NA,0,0.9,0.1,0,1,109,3,NA
fcp-trial,144,645558,0.0-119.0-0.0,voc_e2,12189,"[{""event"":""fullscreenenter"",""trial"":1,""time"":1912}]",NA,NA,NA,NA,NA,2,#1CD855,#FA92F8,0,10,0,38,1,526.8999999999069,39,0,272.19999999995343,10,1,experiment,NA,NA,0,0.1,0.9,1,0,110,3,NA
fcp-trial,145,649949,0.0-120.0-0.0,voc_e2,12189,"[{""event"":""fullscreenenter"",""trial"":1,""time"":1912}]",NA,NA,NA,NA,NA,3,#D8271C,#741CD8,0,10,0,38,1,2035.5,39,0,842.1000000000931,10,1,experiment,NA,NA,2,0.5,0.5,5,4,111,3,NA
fcp-trial,146,652466,0.0-121.0-0.0,voc_e2,12189,"[{""event"":""fullscreenenter"",""trial"":1,""time"":1912}]",NA,NA,NA,NA,NA,5,#D89F1C,#3386FF,0,10,0,38,1,586.1000000000931,39,0,410.10000000009313,10,1,experiment,NA,NA,1,0.3,0.7,3,2,112,3,NA
fcp-trial,147,654908,0.0-122.0-0.0,voc_e2,12189,"[{""event"":""fullscreenenter"",""trial"":1,""time"":1912}]",NA,NA,NA,NA,NA,5,#FA92F8,#1CD855,0,0,1,38,1,600.1999999999534,37,1,325.0999999998603,0,1,experiment,NA,NA,0,0.9,0.1,0,1,113,3,NA
fcp-trial,148,657358,0.0-123.0-0.0,voc_e2,12189,"[{""event"":""fullscreenenter"",""trial"":1,""time"":1912}]",NA,NA,NA,NA,NA,1,#741CD8,#D8271C,0,10,1,38,1,670.1000000000931,37,1,263,0,1,experiment,NA,NA,2,0.5,0.5,4,5,114,3,NA
fcp-trial,149,659716,0.0-124.0-0.0,voc_e2,12189,"[{""event"":""fullscreenenter"",""trial"":1,""time"":1912}]",NA,NA,NA,NA,NA,4,#741CD8,#D8271C,0,0,1,38,1,564.3000000000466,37,1,280.30000000004657,0,1,experiment,NA,NA,2,0.5,0.5,4,5,115,3,NA
fcp-trial,150,661969,0.0-125.0-0.0,voc_e2,12189,"[{""event"":""fullscreenenter"",""trial"":1,""time"":1912}]",NA,NA,NA,NA,NA,1,#3386FF,#D89F1C,10,0,1,38,1,487,37,1,255.20000000018624,10,1,experiment,NA,NA,1,0.7,0.3,2,3,116,3,NA
fcp-trial,151,664232,0.0-126.0-0.0,voc_e2,12189,"[{""event"":""fullscreenenter"",""trial"":1,""time"":1912}]",NA,NA,NA,NA,NA,4,#3386FF,#D89F1C,10,0,1,38,1,498.30000000004657,37,1,256,10,1,experiment,NA,NA,1,0.7,0.3,2,3,117,3,NA
fcp-trial,152,667101,0.0-127.0-0.0,voc_e2,12189,"[{""event"":""fullscreenenter"",""trial"":1,""time"":1912}]",NA,NA,NA,NA,NA,3,#FA92F8,#1CD855,10,0,1,38,1,666.8000000000466,37,1,691.5,10,1,experiment,NA,NA,0,0.9,0.1,0,1,118,3,NA
fcp-trial,153,669344,0.0-128.0-0.0,voc_e2,12189,"[{""event"":""fullscreenenter"",""trial"":1,""time"":1912}]",NA,NA,NA,NA,NA,1,#1CD855,#FA92F8,0,10,0,38,1,472.19999999995343,39,0,260.5,10,1,experiment,NA,NA,0,0.1,0.9,1,0,119,3,NA
fcp-trial,154,672651,0.0-129.0-0.0,voc_e2,12189,"[{""event"":""fullscreenenter"",""trial"":1,""time"":1912}]",NA,NA,NA,NA,NA,2,#D8271C,#741CD8,10,10,0,38,1,691.3000000000466,39,0,1105.8999999999069,10,1,experiment,NA,NA,2,0.5,0.5,5,4,120,3,NA
fcp-trial,155,674955,0.0-130.0-0.0,voc_e2,12189,"[{""event"":""fullscreenenter"",""trial"":1,""time"":1912}]",NA,NA,NA,NA,NA,4,#FA92F8,#1CD855,0,0,1,38,1,495.5,37,1,298.89999999990687,0,1,experiment,NA,NA,0,0.9,0.1,0,1,121,3,NA
fcp-trial,156,677178,0.0-131.0-0.0,voc_e2,12189,"[{""event"":""fullscreenenter"",""trial"":1,""time"":1912}]",NA,NA,NA,NA,NA,3,#D89F1C,#3386FF,0,10,0,38,1,388.30000000004657,39,0,322.19999999995343,10,1,experiment,NA,NA,1,0.3,0.7,3,2,122,3,NA
fcp-trial,157,679792,0.0-132.0-0.0,voc_e2,12189,"[{""event"":""fullscreenenter"",""trial"":1,""time"":1912}]",NA,NA,NA,NA,NA,6,#3386FF,#D89F1C,10,0,1,38,1,456.5,37,1,648,10,1,experiment,NA,NA,1,0.7,0.3,2,3,123,3,NA
fcp-trial,158,681976,0.0-133.0-0.0,voc_e2,12189,"[{""event"":""fullscreenenter"",""trial"":1,""time"":1912}]",NA,NA,NA,NA,NA,0,#741CD8,#D8271C,0,0,1,38,1,251.19999999995343,37,1,423.39999999990687,0,1,experiment,NA,NA,2,0.5,0.5,4,5,124,3,NA
fcp-trial,159,684462,0.0-134.0-0.0,voc_e2,12189,"[{""event"":""fullscreenenter"",""trial"":1,""time"":1912}]",NA,NA,NA,NA,NA,0,#1CD855,#FA92F8,0,10,0,38,1,268.60000000009313,39,0,708.9000000001397,10,1,experiment,NA,NA,0,0.1,0.9,1,0,125,3,NA
fcp-trial,160,687070,0.0-135.0-0.0,voc_e2,12189,"[{""event"":""fullscreenenter"",""trial"":1,""time"":1912}]",NA,NA,NA,NA,NA,6,#741CD8,#D8271C,10,10,1,38,1,518.9000000001397,39,0,577.0999999998603,10,0,experiment,NA,NA,2,0.5,0.5,4,5,126,3,NA
fcp-trial,161,689895,0.0-136.0-0.0,voc_e2,12189,"[{""event"":""fullscreenenter"",""trial"":1,""time"":1912}]",NA,NA,NA,NA,NA,3,#D8271C,#741CD8,0,0,0,38,1,788.8000000000466,39,0,528,0,1,experiment,NA,NA,2,0.5,0.5,5,4,127,3,NA
fcp-trial,162,692378,0.0-137.0-0.0,voc_e2,12189,"[{""event"":""fullscreenenter"",""trial"":1,""time"":1912}]",NA,NA,NA,NA,NA,0,#D8271C,#741CD8,0,10,0,38,1,599.6000000000931,37,1,372.5,0,0,experiment,NA,NA,2,0.5,0.5,5,4,128,3,NA
fcp-trial,163,695021,0.0-138.0-0.0,voc_e2,12189,"[{""event"":""fullscreenenter"",""trial"":1,""time"":1912}]",NA,NA,NA,NA,NA,4,#741CD8,#D8271C,0,10,1,38,1,638.5,39,0,495.5999999998603,10,0,experiment,NA,NA,2,0.5,0.5,4,5,129,3,NA
fcp-trial,164,697401,0.0-139.0-0.0,voc_e2,12189,"[{""event"":""fullscreenenter"",""trial"":1,""time"":1912}]",NA,NA,NA,NA,NA,3,#3386FF,#D89F1C,10,10,1,38,1,600.3999999999069,37,1,266.5,10,1,experiment,NA,NA,1,0.7,0.3,2,3,130,3,NA
fcp-trial,165,699824,0.0-140.0-0.0,voc_e2,12189,"[{""event"":""fullscreenenter"",""trial"":1,""time"":1912}]",NA,NA,NA,NA,NA,6,#FA92F8,#1CD855,10,0,1,38,1,610.5,37,1,299.80000000004657,10,1,experiment,NA,NA,0,0.9,0.1,0,1,131,3,NA
fcp-trial,166,702295,0.0-141.0-0.0,voc_e2,12189,"[{""event"":""fullscreenenter"",""trial"":1,""time"":1912}]",NA,NA,NA,NA,NA,0,#D89F1C,#3386FF,10,0,0,38,1,681.5,39,0,276.5,0,1,experiment,NA,NA,1,0.3,0.7,3,2,132,3,NA
fcp-trial,167,705430,0.0-142.0-0.0,voc_e2,12189,"[{""event"":""fullscreenenter"",""trial"":1,""time"":1912}]",NA,NA,NA,NA,NA,2,#741CD8,#D8271C,10,10,1,38,1,484.30000000004657,39,0,1142.4000000001397,10,0,experiment,NA,NA,2,0.5,0.5,4,5,133,3,NA
fcp-trial,168,707951,0.0-143.0-0.0,voc_e2,12189,"[{""event"":""fullscreenenter"",""trial"":1,""time"":1912}]",NA,NA,NA,NA,NA,0,#1CD855,#FA92F8,0,10,0,38,1,713.4000000001397,39,0,296.30000000004657,10,1,experiment,NA,NA,0,0.1,0.9,1,0,134,3,NA
fcp-trial,169,710669,0.0-144.0-0.0,voc_e2,12189,"[{""event"":""fullscreenenter"",""trial"":1,""time"":1912}]",NA,NA,NA,NA,NA,3,#1CD855,#FA92F8,0,10,0,38,1,521.8000000000466,39,0,684.9000000001397,10,1,experiment,NA,NA,0,0.1,0.9,1,0,135,3,NA
fcp-trial,170,713727,0.0-145.0-0.0,voc_e2,12189,"[{""event"":""fullscreenenter"",""trial"":1,""time"":1912}]",NA,NA,NA,NA,NA,1,#741CD8,#D8271C,0,0,1,38,1,766.6000000000931,39,0,782.5,0,0,experiment,NA,NA,2,0.5,0.5,4,5,136,4,NA
fcp-trial,171,716119,0.0-146.0-0.0,voc_e2,12189,"[{""event"":""fullscreenenter"",""trial"":1,""time"":1912}]",NA,NA,NA,NA,NA,1,#3386FF,#D89F1C,10,0,1,38,1,597.7000000001863,37,1,284.69999999995343,10,1,experiment,NA,NA,1,0.7,0.3,2,3,137,4,NA
fcp-trial,172,718754,0.0-147.0-0.0,voc_e2,12189,"[{""event"":""fullscreenenter"",""trial"":1,""time"":1912}]",NA,NA,NA,NA,NA,4,#FA92F8,#1CD855,10,0,1,38,1,703.5,37,1,422.4000000001397,10,1,experiment,NA,NA,0,0.9,0.1,0,1,138,4,NA
fcp-trial,173,721150,0.0-148.0-0.0,voc_e2,12189,"[{""event"":""fullscreenenter"",""trial"":1,""time"":1912}]",NA,NA,NA,NA,NA,6,#D8271C,#741CD8,10,0,0,38,1,397.9000000001397,39,0,486.5,0,1,experiment,NA,NA,2,0.5,0.5,5,4,139,4,NA
fcp-trial,174,724071,0.0-149.0-0.0,voc_e2,12189,"[{""event"":""fullscreenenter"",""trial"":1,""time"":1912}]",NA,NA,NA,NA,NA,2,#D89F1C,#3386FF,10,10,0,38,1,843.8999999999069,39,0,567.2000000001863,10,1,experiment,NA,NA,1,0.3,0.7,3,2,140,4,NA
fcp-trial,175,726898,0.0-150.0-0.0,voc_e2,12189,"[{""event"":""fullscreenenter"",""trial"":1,""time"":1912}]",NA,NA,NA,NA,NA,4,#3386FF,#D89F1C,10,0,1,38,1,810.6000000000931,37,1,506.5,10,1,experiment,NA,NA,1,0.7,0.3,2,3,141,4,NA
fcp-trial,176,729863,0.0-151.0-0.0,voc_e2,12189,"[{""event"":""fullscreenenter"",""trial"":1,""time"":1912}]",NA,NA,NA,NA,NA,5,#FA92F8,#1CD855,10,0,1,38,1,1168.8000000000466,37,1,285.30000000004657,10,1,experiment,NA,NA,0,0.9,0.1,0,1,142,4,NA
fcp-trial,177,732671,0.0-152.0-0.0,voc_e2,12189,"[{""event"":""fullscreenenter"",""trial"":1,""time"":1912}]",NA,NA,NA,NA,NA,1,#1CD855,#FA92F8,0,10,0,38,1,764.1999999999534,39,0,533.3999999999069,10,1,experiment,NA,NA,0,0.1,0.9,1,0,143,4,NA
fcp-trial,178,736854,0.0-153.0-0.0,voc_e2,12189,"[{""event"":""fullscreenenter"",""trial"":1,""time"":1912}]",NA,NA,NA,NA,NA,5,#D8271C,#741CD8,0,10,0,40,0,2161.5,37,1,511.5,0,0,experiment,NA,NA,2,0.5,0.5,5,4,144,4,NA
fcp-trial,179,739300,0.0-154.0-0.0,voc_e2,12189,"[{""event"":""fullscreenenter"",""trial"":1,""time"":1912}]",NA,NA,NA,NA,NA,2,#FA92F8,#1CD855,10,0,1,38,1,677,37,1,257.10000000009313,10,1,experiment,NA,NA,0,0.9,0.1,0,1,145,4,NA
fcp-trial,180,741937,0.0-155.0-0.0,voc_e2,12189,"[{""event"":""fullscreenenter"",""trial"":1,""time"":1912}]",NA,NA,NA,NA,NA,5,#D89F1C,#3386FF,0,10,0,38,1,860.5,39,0,265.19999999995343,10,1,experiment,NA,NA,1,0.3,0.7,3,2,146,4,NA
fcp-trial,181,744613,0.0-156.0-0.0,voc_e2,12189,"[{""event"":""fullscreenenter"",""trial"":1,""time"":1912}]",NA,NA,NA,NA,NA,6,#D89F1C,#3386FF,0,10,0,38,1,636.0999999998603,39,0,528.5,10,1,experiment,NA,NA,1,0.3,0.7,3,2,147,4,NA
fcp-trial,182,747800,0.0-157.0-0.0,voc_e2,12189,"[{""event"":""fullscreenenter"",""trial"":1,""time"":1912}]",NA,NA,NA,NA,NA,1,#741CD8,#D8271C,0,0,1,38,1,1215.8999999999069,39,0,463.89999999990687,0,0,experiment,NA,NA,2,0.5,0.5,4,5,148,4,NA
fcp-trial,183,751482,0.0-158.0-0.0,voc_e2,12189,"[{""event"":""fullscreenenter"",""trial"":1,""time"":1912}]",NA,NA,NA,NA,NA,6,#FA92F8,#1CD855,10,0,1,38,1,613.4000000001397,37,1,1557.1000000000931,10,1,experiment,NA,NA,0,0.9,0.1,0,1,149,4,NA
fcp-trial,184,753812,0.0-159.0-0.0,voc_e2,12189,"[{""event"":""fullscreenenter"",""trial"":1,""time"":1912}]",NA,NA,NA,NA,NA,4,#3386FF,#D89F1C,0,0,1,38,1,489.30000000004657,37,1,330.89999999990687,0,1,experiment,NA,NA,1,0.7,0.3,2,3,150,4,NA
fcp-trial,185,757079,0.0-160.0-0.0,voc_e2,12189,"[{""event"":""fullscreenenter"",""trial"":1,""time"":1912}]",NA,NA,NA,NA,NA,6,#741CD8,#D8271C,10,0,1,40,0,1168.4000000001397,37,1,589,10,1,experiment,NA,NA,2,0.5,0.5,4,5,151,4,NA
fcp-trial,186,760199,0.0-161.0-0.0,voc_e2,12189,"[{""event"":""fullscreenenter"",""trial"":1,""time"":1912}]",NA,NA,NA,NA,NA,2,#3386FF,#D89F1C,0,0,1,38,1,1152.4000000001397,37,1,456.89999999990687,0,1,experiment,NA,NA,1,0.7,0.3,2,3,152,4,NA
fcp-trial,187,762574,0.0-162.0-0.0,voc_e2,12189,"[{""event"":""fullscreenenter"",""trial"":1,""time"":1912}]",NA,NA,NA,NA,NA,3,#3386FF,#D89F1C,10,0,1,38,1,600.0999999998603,37,1,264.9000000001397,10,1,experiment,NA,NA,1,0.7,0.3,2,3,153,4,NA
fcp-trial,188,765352,0.0-163.0-0.0,voc_e2,12189,"[{""event"":""fullscreenenter"",""trial"":1,""time"":1912}]",NA,NA,NA,NA,NA,2,#1CD855,#FA92F8,0,0,0,38,1,662.8999999999069,39,0,602.6999999999534,0,1,experiment,NA,NA,0,0.1,0.9,1,0,154,4,NA
fcp-trial,189,767884,0.0-164.0-0.0,voc_e2,12189,"[{""event"":""fullscreenenter"",""trial"":1,""time"":1912}]",NA,NA,NA,NA,NA,6,#3386FF,#D89F1C,10,10,1,38,1,472.39999999990687,37,1,549.3999999999069,10,1,experiment,NA,NA,1,0.7,0.3,2,3,155,4,NA
fcp-trial,190,771751,0.0-165.0-0.0,voc_e2,12189,"[{""event"":""fullscreenenter"",""trial"":1,""time"":1912}]",NA,NA,NA,NA,NA,2,#741CD8,#D8271C,10,0,1,38,1,1928.0999999998603,37,1,426.89999999990687,10,1,experiment,NA,NA,2,0.5,0.5,4,5,156,4,NA
fcp-trial,191,775651,0.0-166.0-0.0,voc_e2,12189,"[{""event"":""fullscreenenter"",""trial"":1,""time"":1912}]",NA,NA,NA,NA,NA,5,#FA92F8,#1CD855,10,0,1,38,1,1543.2999999998137,37,1,844.3000000000466,10,1,experiment,NA,NA,0,0.9,0.1,0,1,157,4,NA
fcp-trial,192,779033,0.0-167.0-0.0,voc_e2,12189,"[{""event"":""fullscreenenter"",""trial"":1,""time"":1912}]",NA,NA,NA,NA,NA,3,#D8271C,#741CD8,10,10,0,38,1,492.30000000004657,39,0,1378,10,1,experiment,NA,NA,2,0.5,0.5,5,4,158,4,NA
fcp-trial,193,781714,0.0-168.0-0.0,voc_e2,12189,"[{""event"":""fullscreenenter"",""trial"":1,""time"":1912}]",NA,NA,NA,NA,NA,1,#D89F1C,#3386FF,0,0,0,38,1,798.6000000000931,39,0,369.39999999990687,0,1,experiment,NA,NA,1,0.3,0.7,3,2,159,4,NA
fcp-trial,194,784189,0.0-169.0-0.0,voc_e2,12189,"[{""event"":""fullscreenenter"",""trial"":1,""time"":1912}]",NA,NA,NA,NA,NA,0,#D89F1C,#3386FF,0,10,0,38,1,420,39,0,545.1000000000931,10,1,experiment,NA,NA,1,0.3,0.7,3,2,160,4,NA
fcp-trial,195,787016,0.0-170.0-0.0,voc_e2,12189,"[{""event"":""fullscreenenter"",""trial"":1,""time"":1912}]",NA,NA,NA,NA,NA,0,#FA92F8,#1CD855,10,0,1,38,1,779.1000000000931,37,1,537.5,10,1,experiment,NA,NA,0,0.9,0.1,0,1,161,4,NA
fcp-trial,196,789799,0.0-171.0-0.0,voc_e2,12189,"[{""event"":""fullscreenenter"",""trial"":1,""time"":1912}]",NA,NA,NA,NA,NA,4,#FA92F8,#1CD855,10,0,1,38,1,697.1999999999534,37,1,577.2999999998137,10,1,experiment,NA,NA,0,0.9,0.1,0,1,162,4,NA
fcp-trial,197,793075,0.0-172.0-0.0,voc_e2,12189,"[{""event"":""fullscreenenter"",""trial"":1,""time"":1912}]",NA,NA,NA,NA,NA,0,#D8271C,#741CD8,0,10,0,38,1,1505.8999999999069,39,0,258.79999999981374,10,1,experiment,NA,NA,2,0.5,0.5,5,4,163,4,NA
fcp-trial,198,795544,0.0-173.0-0.0,voc_e2,12189,"[{""event"":""fullscreenenter"",""trial"":1,""time"":1912}]",NA,NA,NA,NA,NA,5,#D89F1C,#3386FF,0,10,0,38,1,611.8000000000466,39,0,344.69999999995343,10,1,experiment,NA,NA,1,0.3,0.7,3,2,164,4,NA
fcp-trial,199,797981,0.0-174.0-0.0,voc_e2,12189,"[{""event"":""fullscreenenter"",""trial"":1,""time"":1912}]",NA,NA,NA,NA,NA,5,#741CD8,#D8271C,0,0,1,38,1,588.8000000000466,37,1,337.80000000004657,0,1,experiment,NA,NA,2,0.5,0.5,4,5,165,4,NA
fcp-trial,200,800314,0.0-175.0-0.0,voc_e2,12189,"[{""event"":""fullscreenenter"",""trial"":1,""time"":1912}]",NA,NA,NA,NA,NA,4,#D8271C,#741CD8,10,0,0,38,1,524.6999999999534,39,0,299.5,0,1,experiment,NA,NA,2,0.5,0.5,5,4,166,4,NA
fcp-trial,201,803120,0.0-176.0-0.0,voc_e2,12189,"[{""event"":""fullscreenenter"",""trial"":1,""time"":1912}]",NA,NA,NA,NA,NA,3,#FA92F8,#1CD855,10,0,1,38,1,614.6000000000931,37,1,681,10,1,experiment,NA,NA,0,0.9,0.1,0,1,167,4,NA
fcp-trial,202,805698,0.0-177.0-0.0,voc_e2,12189,"[{""event"":""fullscreenenter"",""trial"":1,""time"":1912}]",NA,NA,NA,NA,NA,1,#1CD855,#FA92F8,0,10,0,38,1,800.1999999999534,39,0,266.29999999981374,10,1,experiment,NA,NA,0,0.1,0.9,1,0,168,4,NA
fcp-trial,203,807999,0.0-178.0-0.0,voc_e2,12189,"[{""event"":""fullscreenenter"",""trial"":1,""time"":1912}]",NA,NA,NA,NA,NA,4,#1CD855,#FA92F8,10,10,0,38,1,476.30000000004657,39,0,310,10,1,experiment,NA,NA,0,0.1,0.9,1,0,169,4,NA
fcp-trial,204,810873,0.0-179.0-0.0,voc_e2,12189,"[{""event"":""fullscreenenter"",""trial"":1,""time"":1912}]",NA,NA,NA,NA,NA,0,#FA92F8,#1CD855,10,0,1,38,1,1066.3000000000466,37,1,296.79999999981374,10,1,experiment,NA,NA,0,0.9,0.1,0,1,170,4,NA
fcp-trial,205,813642,0.0-180.0-0.0,voc_e2,12189,"[{""event"":""fullscreenenter"",""trial"":1,""time"":1912}]",NA,NA,NA,NA,NA,0,#3386FF,#D89F1C,10,0,1,38,1,938,37,1,321.10000000009313,10,1,experiment,NA,NA,1,0.7,0.3,2,3,171,4,NA
fcp-trial,206,817300,0.0-181.0-0.0,voc_e2,12189,"[{""event"":""fullscreenenter"",""trial"":1,""time"":1912}]",NA,NA,NA,NA,NA,1,#741CD8,#D8271C,10,10,1,38,1,1795,37,1,350.39999999990687,10,1,experiment,NA,NA,2,0.5,0.5,4,5,172,4,NA
fcp-trial,207,819756,0.0-182.0-0.0,voc_e2,12189,"[{""event"":""fullscreenenter"",""trial"":1,""time"":1912}]",NA,NA,NA,NA,NA,2,#741CD8,#D8271C,0,0,1,38,1,671.5999999998603,37,1,274.39999999990687,0,1,experiment,NA,NA,2,0.5,0.5,4,5,173,4,NA
fcp-trial,208,822431,0.0-183.0-0.0,voc_e2,12189,"[{""event"":""fullscreenenter"",""trial"":1,""time"":1912}]",NA,NA,NA,NA,NA,2,#1CD855,#FA92F8,0,10,0,38,1,709,39,0,455.5,10,1,experiment,NA,NA,0,0.1,0.9,1,0,174,4,NA
fcp-trial,209,825545,0.0-184.0-0.0,voc_e2,12189,"[{""event"":""fullscreenenter"",""trial"":1,""time"":1912}]",NA,NA,NA,NA,NA,6,#D89F1C,#3386FF,0,10,0,38,1,799.5,39,0,806.2999999998137,10,1,experiment,NA,NA,1,0.3,0.7,3,2,175,4,NA
fcp-trial,210,828657,0.0-185.0-0.0,voc_e2,12189,"[{""event"":""fullscreenenter"",""trial"":1,""time"":1912}]",NA,NA,NA,NA,NA,0,#D8271C,#741CD8,10,0,0,38,1,1221.1999999999534,39,0,379.79999999981374,0,1,experiment,NA,NA,2,0.5,0.5,5,4,176,4,NA
fcp-trial,211,831400,0.0-186.0-0.0,voc_e2,12189,"[{""event"":""fullscreenenter"",""trial"":1,""time"":1912}]",NA,NA,NA,NA,NA,5,#FA92F8,#1CD855,10,0,1,38,1,636.1999999999534,37,1,598.3000000000466,10,1,experiment,NA,NA,0,0.9,0.1,0,1,177,4,NA
fcp-trial,212,836098,0.0-187.0-0.0,voc_e2,12189,"[{""event"":""fullscreenenter"",""trial"":1,""time"":1912}]",NA,NA,NA,NA,NA,4,#D89F1C,#3386FF,0,10,0,38,1,2440.6999999999534,39,0,747.1999999999534,10,1,experiment,NA,NA,1,0.3,0.7,3,2,178,4,NA
fcp-trial,213,838458,0.0-188.0-0.0,voc_e2,12189,"[{""event"":""fullscreenenter"",""trial"":1,""time"":1912}]",NA,NA,NA,NA,NA,2,#3386FF,#D89F1C,10,10,1,38,1,558,37,1,290.4000000001397,10,1,experiment,NA,NA,1,0.7,0.3,2,3,179,4,NA
fcp-trial,214,841131,0.0-189.0-0.0,voc_e2,12189,"[{""event"":""fullscreenenter"",""trial"":1,""time"":1912}]",NA,NA,NA,NA,NA,3,#D8271C,#741CD8,0,0,0,38,1,846.1999999999534,39,0,315.5,0,1,experiment,NA,NA,2,0.5,0.5,5,4,180,4,NA
fcp-trial,215,843274,0.0-190.0-0.0,voc_e2,12189,"[{""event"":""fullscreenenter"",""trial"":1,""time"":1912}]",NA,NA,NA,NA,NA,1,#1CD855,#FA92F8,0,10,0,38,1,330.4000000001397,39,0,302.4000000001397,10,1,experiment,NA,NA,0,0.1,0.9,1,0,181,5,NA
fcp-trial,216,846012,0.0-191.0-0.0,voc_e2,12189,"[{""event"":""fullscreenenter"",""trial"":1,""time"":1912}]",NA,NA,NA,NA,NA,3,#D89F1C,#3386FF,0,0,0,38,1,437.4000000001397,39,0,790.5,0,1,experiment,NA,NA,1,0.3,0.7,3,2,182,5,NA
fcp-trial,217,850347,0.0-192.0-0.0,voc_e2,12189,"[{""event"":""fullscreenenter"",""trial"":1,""time"":1912}]",NA,NA,NA,NA,NA,6,#D8271C,#741CD8,10,10,0,38,1,1081.6000000000931,39,0,1743.5,10,1,experiment,NA,NA,2,0.5,0.5,5,4,183,5,NA
fcp-trial,218,852738,0.0-193.0-0.0,voc_e2,12189,"[{""event"":""fullscreenenter"",""trial"":1,""time"":1912}]",NA,NA,NA,NA,NA,4,#D8271C,#741CD8,10,0,0,38,1,538.8000000000466,39,0,339.80000000004657,0,1,experiment,NA,NA,2,0.5,0.5,5,4,184,5,NA
fcp-trial,219,855763,0.0-194.0-0.0,voc_e2,12189,"[{""event"":""fullscreenenter"",""trial"":1,""time"":1912}]",NA,NA,NA,NA,NA,5,#3386FF,#D89F1C,10,0,1,38,1,776.6999999999534,37,1,738.3999999999069,10,1,experiment,NA,NA,1,0.7,0.3,2,3,185,5,NA
fcp-trial,220,858366,0.0-195.0-0.0,voc_e2,12189,"[{""event"":""fullscreenenter"",""trial"":1,""time"":1912}]",NA,NA,NA,NA,NA,3,#FA92F8,#1CD855,10,0,1,38,1,743,37,1,347.60000000009313,10,1,experiment,NA,NA,0,0.9,0.1,0,1,186,5,NA
fcp-trial,221,861662,0.0-196.0-0.0,voc_e2,12189,"[{""event"":""fullscreenenter"",""trial"":1,""time"":1912}]",NA,NA,NA,NA,NA,5,#741CD8,#D8271C,0,10,1,40,0,1391.5,37,1,394,0,1,experiment,NA,NA,2,0.5,0.5,4,5,187,5,NA
fcp-trial,222,864017,0.0-197.0-0.0,voc_e2,12189,"[{""event"":""fullscreenenter"",""trial"":1,""time"":1912}]",NA,NA,NA,NA,NA,1,#D89F1C,#3386FF,0,10,0,38,1,560,39,0,283.39999999990687,10,1,experiment,NA,NA,1,0.3,0.7,3,2,188,5,NA
fcp-trial,223,867960,0.0-198.0-0.0,voc_e2,12189,"[{""event"":""fullscreenenter"",""trial"":1,""time"":1912}]",NA,NA,NA,NA,NA,6,#1CD855,#FA92F8,10,0,0,38,1,992.5999999998603,39,0,1440,0,1,experiment,NA,NA,0,0.1,0.9,1,0,189,5,NA
fcp-trial,224,870322,0.0-199.0-0.0,voc_e2,12189,"[{""event"":""fullscreenenter"",""trial"":1,""time"":1912}]",NA,NA,NA,NA,NA,4,#741CD8,#D8271C,10,0,1,38,1,326.19999999995343,37,1,525.5,10,1,experiment,NA,NA,2,0.5,0.5,4,5,190,5,NA
fcp-trial,225,873025,0.0-200.0-0.0,voc_e2,12189,"[{""event"":""fullscreenenter"",""trial"":1,""time"":1912}]",NA,NA,NA,NA,NA,5,#3386FF,#D89F1C,10,0,1,38,1,628.6000000000931,37,1,563.7999999998137,10,1,experiment,NA,NA,1,0.7,0.3,2,3,191,5,NA
fcp-trial,226,875502,0.0-201.0-0.0,voc_e2,12189,"[{""event"":""fullscreenenter"",""trial"":1,""time"":1912}]",NA,NA,NA,NA,NA,3,#D89F1C,#3386FF,0,0,0,38,1,619.5999999998603,39,0,347.10000000009313,0,1,experiment,NA,NA,1,0.3,0.7,3,2,192,5,NA
fcp-trial,227,877857,0.0-202.0-0.0,voc_e2,12189,"[{""event"":""fullscreenenter"",""trial"":1,""time"":1912}]",NA,NA,NA,NA,NA,0,#741CD8,#D8271C,0,0,1,38,1,442.80000000004657,37,1,401.5,0,1,experiment,NA,NA,2,0.5,0.5,4,5,193,5,NA
fcp-trial,228,880229,0.0-203.0-0.0,voc_e2,12189,"[{""event"":""fullscreenenter"",""trial"":1,""time"":1912}]",NA,NA,NA,NA,NA,3,#1CD855,#FA92F8,0,10,0,38,1,594.3999999999069,39,0,268.19999999995343,10,1,experiment,NA,NA,0,0.1,0.9,1,0,194,5,NA
fcp-trial,229,882658,0.0-204.0-0.0,voc_e2,12189,"[{""event"":""fullscreenenter"",""trial"":1,""time"":1912}]",NA,NA,NA,NA,NA,2,#3386FF,#D89F1C,10,0,1,38,1,605.1999999999534,37,1,309.80000000004657,10,1,experiment,NA,NA,1,0.7,0.3,2,3,195,5,NA
fcp-trial,230,885926,0.0-205.0-0.0,voc_e2,12189,"[{""event"":""fullscreenenter"",""trial"":1,""time"":1912}]",NA,NA,NA,NA,NA,3,#741CD8,#D8271C,10,10,1,38,1,1409.1999999999534,37,1,347.39999999990687,10,1,experiment,NA,NA,2,0.5,0.5,4,5,196,5,NA
fcp-trial,231,889084,0.0-206.0-0.0,voc_e2,12189,"[{""event"":""fullscreenenter"",""trial"":1,""time"":1912}]",NA,NA,NA,NA,NA,1,#D8271C,#741CD8,10,0,0,38,1,1204.8000000000466,39,0,441.60000000009313,0,1,experiment,NA,NA,2,0.5,0.5,5,4,197,5,NA
fcp-trial,232,892360,0.0-207.0-0.0,voc_e2,12189,"[{""event"":""fullscreenenter"",""trial"":1,""time"":1912}]",NA,NA,NA,NA,NA,0,#D89F1C,#3386FF,0,10,0,38,1,1374.1000000000931,39,0,391.60000000009313,10,1,experiment,NA,NA,1,0.3,0.7,3,2,198,5,NA
fcp-trial,233,895024,0.0-208.0-0.0,voc_e2,12189,"[{""event"":""fullscreenenter"",""trial"":1,""time"":1912}]",NA,NA,NA,NA,NA,4,#1CD855,#FA92F8,0,10,0,38,1,882.9000000001397,39,0,269.4000000001397,10,1,experiment,NA,NA,0,0.1,0.9,1,0,199,5,NA
fcp-trial,234,897951,0.0-209.0-0.0,voc_e2,12189,"[{""event"":""fullscreenenter"",""trial"":1,""time"":1912}]",NA,NA,NA,NA,NA,5,#FA92F8,#1CD855,10,0,1,38,1,859.2000000001863,37,1,557,10,1,experiment,NA,NA,0,0.9,0.1,0,1,200,5,NA
fcp-trial,235,900594,0.0-210.0-0.0,voc_e2,12189,"[{""event"":""fullscreenenter"",""trial"":1,""time"":1912}]",NA,NA,NA,NA,NA,6,#1CD855,#FA92F8,0,10,0,38,1,559.6999999999534,39,0,572,10,1,experiment,NA,NA,0,0.1,0.9,1,0,201,5,NA
fcp-trial,236,903552,0.0-211.0-0.0,voc_e2,12189,"[{""event"":""fullscreenenter"",""trial"":1,""time"":1912}]",NA,NA,NA,NA,NA,2,#741CD8,#D8271C,0,10,1,40,0,869.3999999999069,39,0,577.1999999999534,10,0,experiment,NA,NA,2,0.5,0.5,4,5,202,5,NA
fcp-trial,237,906197,0.0-212.0-0.0,voc_e2,12189,"[{""event"":""fullscreenenter"",""trial"":1,""time"":1912}]",NA,NA,NA,NA,NA,1,#D89F1C,#3386FF,0,0,0,38,1,841.3000000000466,39,0,293.39999999990687,0,1,experiment,NA,NA,1,0.3,0.7,3,2,203,5,NA
fcp-trial,238,909036,0.0-213.0-0.0,voc_e2,12189,"[{""event"":""fullscreenenter"",""trial"":1,""time"":1912}]",NA,NA,NA,NA,NA,2,#1CD855,#FA92F8,10,10,0,38,1,741.3000000000466,37,1,585.0999999998603,10,0,experiment,NA,NA,0,0.1,0.9,1,0,204,5,NA
fcp-trial,239,912204,0.0-214.0-0.0,voc_e2,12189,"[{""event"":""fullscreenenter"",""trial"":1,""time"":1912}]",NA,NA,NA,NA,NA,4,#3386FF,#D89F1C,10,0,1,38,1,1405.6999999999534,37,1,251.5999999998603,10,1,experiment,NA,NA,1,0.7,0.3,2,3,205,5,NA
fcp-trial,240,915060,0.0-215.0-0.0,voc_e2,12189,"[{""event"":""fullscreenenter"",""trial"":1,""time"":1912}]",NA,NA,NA,NA,NA,1,#FA92F8,#1CD855,10,0,1,38,1,849.5,37,1,496.5999999998603,10,1,experiment,NA,NA,0,0.9,0.1,0,1,206,5,NA
fcp-trial,241,918381,0.0-216.0-0.0,voc_e2,12189,"[{""event"":""fullscreenenter"",""trial"":1,""time"":1912}]",NA,NA,NA,NA,NA,6,#741CD8,#D8271C,0,10,1,40,0,1396.6999999999534,37,1,415.5,0,1,experiment,NA,NA,2,0.5,0.5,4,5,207,5,NA
fcp-trial,242,921995,0.0-217.0-0.0,voc_e2,12189,"[{""event"":""fullscreenenter"",""trial"":1,""time"":1912}]",NA,NA,NA,NA,NA,5,#D8271C,#741CD8,0,0,0,40,0,1362.8000000000466,37,1,741.1999999999534,0,0,experiment,NA,NA,2,0.5,0.5,5,4,208,5,NA
fcp-trial,243,925874,0.0-218.0-0.0,voc_e2,12189,"[{""event"":""fullscreenenter"",""trial"":1,""time"":1912}]",NA,NA,NA,NA,NA,6,#D89F1C,#3386FF,0,10,0,38,1,2108.4000000001397,39,0,260.5,10,1,experiment,NA,NA,1,0.3,0.7,3,2,209,5,NA
fcp-trial,244,928499,0.0-219.0-0.0,voc_e2,12189,"[{""event"":""fullscreenenter"",""trial"":1,""time"":1912}]",NA,NA,NA,NA,NA,0,#FA92F8,#1CD855,10,0,1,38,1,863.6000000000931,37,1,251,10,1,experiment,NA,NA,0,0.9,0.1,0,1,210,5,NA
audio-instructions,245,934167,0.0-220.0,voc_e2,12189,"[{""event"":""fullscreenenter"",""trial"":1,""time"":1912}]",NA,978.3000000000466,static/audio/pause.wav,NA,0,NA,NA,NA,NA,NA,NA,NA,NA,NA,NA,NA,NA,NA,NA,NA,NA,NA,NA,NA,NA,NA,NA,NA,NA,NA
fcp-trial,246,937499,0.0-221.0-0.0,voc_e2,12189,"[{""event"":""fullscreenenter"",""trial"":1,""time"":1912}]",NA,NA,NA,NA,NA,1,#FA92F8,#1CD855,10,0,1,38,1,1170.3000000000466,37,1,648.8999999999069,10,1,experiment,NA,NA,0,0.9,0.1,0,1,211,5,NA
fcp-trial,247,941524,0.0-222.0-0.0,voc_e2,12189,"[{""event"":""fullscreenenter"",""trial"":1,""time"":1912}]",NA,NA,NA,NA,NA,3,#D8271C,#741CD8,0,0,0,38,1,1946.9000000001397,39,0,560.9000000001397,0,1,experiment,NA,NA,2,0.5,0.5,5,4,212,5,NA
fcp-trial,248,944716,0.0-223.0-0.0,voc_e2,12189,"[{""event"":""fullscreenenter"",""trial"":1,""time"":1912}]",NA,NA,NA,NA,NA,1,#D8271C,#741CD8,0,10,0,38,1,717,39,0,955.8999999999068,10,1,experiment,NA,NA,2,0.5,0.5,5,4,213,5,NA
fcp-trial,249,947181,0.0-224.0-0.0,voc_e2,12189,"[{""event"":""fullscreenenter"",""trial"":1,""time"":1912}]",NA,NA,NA,NA,NA,6,#1CD855,#FA92F8,0,10,0,38,1,637.8999999999069,39,0,313.80000000004657,10,1,experiment,NA,NA,0,0.1,0.9,1,0,214,5,NA
fcp-trial,250,949758,0.0-225.0-0.0,voc_e2,12189,"[{""event"":""fullscreenenter"",""trial"":1,""time"":1912}]",NA,NA,NA,NA,NA,0,#3386FF,#D89F1C,0,0,1,38,1,564.1999999999534,37,1,499.30000000004657,0,1,experiment,NA,NA,1,0.7,0.3,2,3,215,5,NA
fcp-trial,251,952267,0.0-226.0-0.0,voc_e2,12189,"[{""event"":""fullscreenenter"",""trial"":1,""time"":1912}]",NA,NA,NA,NA,NA,5,#3386FF,#D89F1C,10,10,1,38,1,488.5999999998603,37,1,507,10,1,experiment,NA,NA,1,0.7,0.3,2,3,216,5,NA
fcp-trial,252,955190,0.0-227.0-0.0,voc_e2,12189,"[{""event"":""fullscreenenter"",""trial"":1,""time"":1912}]",NA,NA,NA,NA,NA,2,#D8271C,#741CD8,0,0,0,38,1,744,39,0,661.2000000001863,0,1,experiment,NA,NA,2,0.5,0.5,5,4,217,5,NA
fcp-trial,253,958142,0.0-228.0-0.0,voc_e2,12189,"[{""event"":""fullscreenenter"",""trial"":1,""time"":1912}]",NA,NA,NA,NA,NA,0,#741CD8,#D8271C,10,10,1,38,1,1110.6000000000931,37,1,330.69999999995343,10,1,experiment,NA,NA,2,0.5,0.5,4,5,218,5,NA
fcp-trial,254,961435,0.0-229.0-0.0,voc_e2,12189,"[{""event"":""fullscreenenter"",""trial"":1,""time"":1912}]",NA,NA,NA,NA,NA,5,#FA92F8,#1CD855,10,0,1,38,1,1428.5999999998603,37,1,341.89999999990687,10,1,experiment,NA,NA,0,0.9,0.1,0,1,219,5,NA
fcp-trial,255,964772,0.0-230.0-0.0,voc_e2,12189,"[{""event"":""fullscreenenter"",""trial"":1,""time"":1912}]",NA,NA,NA,NA,NA,6,#3386FF,#D89F1C,0,0,1,38,1,1444.0999999998603,37,1,383.5,0,1,experiment,NA,NA,1,0.7,0.3,2,3,220,5,NA
fcp-trial,256,968119,0.0-231.0-0.0,voc_e2,12189,"[{""event"":""fullscreenenter"",""trial"":1,""time"":1912}]",NA,NA,NA,NA,NA,6,#D8271C,#741CD8,10,0,0,40,0,1344.7999999998137,39,0,493.30000000004657,0,1,experiment,NA,NA,2,0.5,0.5,5,4,221,5,NA
fcp-trial,257,970734,0.0-232.0-0.0,voc_e2,12189,"[{""event"":""fullscreenenter"",""trial"":1,""time"":1912}]",NA,NA,NA,NA,NA,3,#FA92F8,#1CD855,10,0,1,38,1,725.4000000001397,37,1,379.69999999995343,10,1,experiment,NA,NA,0,0.9,0.1,0,1,222,5,NA
fcp-trial,258,974747,0.0-233.0-0.0,voc_e2,12189,"[{""event"":""fullscreenenter"",""trial"":1,""time"":1912}]",NA,NA,NA,NA,NA,4,#1CD855,#FA92F8,0,10,0,38,1,1909,39,0,593.1000000000931,10,1,experiment,NA,NA,0,0.1,0.9,1,0,223,5,NA
fcp-trial,259,977721,0.0-234.0-0.0,voc_e2,12189,"[{""event"":""fullscreenenter"",""trial"":1,""time"":1912}]",NA,NA,NA,NA,NA,2,#FA92F8,#1CD855,10,0,1,38,1,1114.7999999998137,37,1,349.80000000004657,10,1,experiment,NA,NA,0,0.9,0.1,0,1,224,5,NA
fcp-trial,260,980924,0.0-235.0-0.0,voc_e2,12189,"[{""event"":""fullscreenenter"",""trial"":1,""time"":1912}]",NA,NA,NA,NA,NA,4,#3386FF,#D89F1C,0,0,1,38,1,1415.1999999999534,37,1,277.69999999995343,0,1,experiment,NA,NA,1,0.7,0.3,2,3,225,5,NA
fcp-trial,261,986021,0.0-236.0-0.0,voc_e2,12189,"[{""event"":""fullscreenenter"",""trial"":1,""time"":1912}]",NA,NA,NA,NA,NA,5,#741CD8,#D8271C,0,0,1,40,0,3114.8000000000466,39,0,469.5,0,0,experiment,NA,NA,2,0.5,0.5,4,5,226,6,NA
fcp-trial,262,989713,0.0-237.0-0.0,voc_e2,12189,"[{""event"":""fullscreenenter"",""trial"":1,""time"":1912}]",NA,NA,NA,NA,NA,4,#D8271C,#741CD8,0,0,0,40,0,1674.5,39,0,506,0,1,experiment,NA,NA,2,0.5,0.5,5,4,227,6,NA
fcp-trial,263,993175,0.0-238.0-0.0,voc_e2,12189,"[{""event"":""fullscreenenter"",""trial"":1,""time"":1912}]",NA,NA,NA,NA,NA,0,#1CD855,#FA92F8,10,10,0,38,1,1420.6000000000931,39,0,531.8000000000466,10,1,experiment,NA,NA,0,0.1,0.9,1,0,228,6,NA
fcp-trial,264,995935,0.0-239.0-0.0,voc_e2,12189,"[{""event"":""fullscreenenter"",""trial"":1,""time"":1912}]",NA,NA,NA,NA,NA,3,#D89F1C,#3386FF,0,10,0,38,1,689.3000000000466,39,0,560,10,1,experiment,NA,NA,1,0.3,0.7,3,2,229,6,NA
fcp-trial,265,998583,0.0-240.0-0.0,voc_e2,12189,"[{""event"":""fullscreenenter"",""trial"":1,""time"":1912}]",NA,NA,NA,NA,NA,2,#D89F1C,#3386FF,0,10,0,38,1,826,39,0,310.10000000009313,10,1,experiment,NA,NA,1,0.3,0.7,3,2,230,6,NA
fcp-trial,266,1001076,0.0-241.0-0.0,voc_e2,12189,"[{""event"":""fullscreenenter"",""trial"":1,""time"":1912}]",NA,NA,NA,NA,NA,1,#D89F1C,#3386FF,0,0,0,38,1,710.6000000000931,39,0,272.70000000018626,0,1,experiment,NA,NA,1,0.3,0.7,3,2,231,6,NA
fcp-trial,267,1005406,0.0-242.0-0.0,voc_e2,12189,"[{""event"":""fullscreenenter"",""trial"":1,""time"":1912}]",NA,NA,NA,NA,NA,5,#1CD855,#FA92F8,0,10,0,38,1,1749.5,39,0,1069.6999999999534,10,1,experiment,NA,NA,0,0.1,0.9,1,0,232,6,NA
fcp-trial,268,1007839,0.0-243.0-0.0,voc_e2,12189,"[{""event"":""fullscreenenter"",""trial"":1,""time"":1912}]",NA,NA,NA,NA,NA,4,#1CD855,#FA92F8,0,10,0,38,1,542.6000000000931,39,0,380.69999999995343,10,1,experiment,NA,NA,0,0.1,0.9,1,0,233,6,NA
fcp-trial,269,1010231,0.0-244.0-0.0,voc_e2,12189,"[{""event"":""fullscreenenter"",""trial"":1,""time"":1912}]",NA,NA,NA,NA,NA,6,#1CD855,#FA92F8,0,10,0,38,1,575.6999999999534,39,0,304,10,1,experiment,NA,NA,0,0.1,0.9,1,0,234,6,NA
fcp-trial,270,1013112,0.0-245.0-0.0,voc_e2,12189,"[{""event"":""fullscreenenter"",""trial"":1,""time"":1912}]",NA,NA,NA,NA,NA,4,#3386FF,#D89F1C,0,0,1,38,1,1062,37,1,309.30000000004657,0,1,experiment,NA,NA,1,0.7,0.3,2,3,235,6,NA
fcp-trial,271,1016682,0.0-246.0-0.0,voc_e2,12189,"[{""event"":""fullscreenenter"",""trial"":1,""time"":1912}]",NA,NA,NA,NA,NA,5,#3386FF,#D89F1C,10,0,1,38,1,1535.9000000001397,37,1,523.6000000000931,10,1,experiment,NA,NA,1,0.7,0.3,2,3,236,6,NA
fcp-trial,272,1019105,0.0-247.0-0.0,voc_e2,12189,"[{""event"":""fullscreenenter"",""trial"":1,""time"":1912}]",NA,NA,NA,NA,NA,0,#3386FF,#D89F1C,0,10,1,38,1,579,37,1,333.69999999995343,0,1,experiment,NA,NA,1,0.7,0.3,2,3,237,6,NA
fcp-trial,273,1022326,0.0-248.0-0.0,voc_e2,12189,"[{""event"":""fullscreenenter"",""trial"":1,""time"":1912}]",NA,NA,NA,NA,NA,3,#1CD855,#FA92F8,0,10,0,38,1,1044,39,0,667.1999999999534,10,1,experiment,NA,NA,0,0.1,0.9,1,0,238,6,NA
fcp-trial,274,1025881,0.0-249.0-0.0,voc_e2,12189,"[{""event"":""fullscreenenter"",""trial"":1,""time"":1912}]",NA,NA,NA,NA,NA,2,#D8271C,#741CD8,10,0,0,38,1,1687.6999999999534,39,0,354.69999999995343,0,1,experiment,NA,NA,2,0.5,0.5,5,4,239,6,NA
fcp-trial,275,1028839,0.0-250.0-0.0,voc_e2,12189,"[{""event"":""fullscreenenter"",""trial"":1,""time"":1912}]",NA,NA,NA,NA,NA,2,#3386FF,#D89F1C,0,0,1,38,1,1111.6999999999534,37,1,336.19999999995343,0,1,experiment,NA,NA,1,0.7,0.3,2,3,240,6,NA
fcp-trial,276,1031225,0.0-251.0-0.0,voc_e2,12189,"[{""event"":""fullscreenenter"",""trial"":1,""time"":1912}]",NA,NA,NA,NA,NA,6,#D8271C,#741CD8,10,0,0,38,1,567.3000000000466,39,0,309.19999999995343,0,1,experiment,NA,NA,2,0.5,0.5,5,4,241,6,NA
fcp-trial,277,1034454,0.0-252.0-0.0,voc_e2,12189,"[{""event"":""fullscreenenter"",""trial"":1,""time"":1912}]",NA,NA,NA,NA,NA,3,#D8271C,#741CD8,10,0,0,38,1,1373.1000000000931,39,0,343.10000000009313,0,1,experiment,NA,NA,2,0.5,0.5,5,4,242,6,NA
fcp-trial,278,1037718,0.0-253.0-0.0,voc_e2,12189,"[{""event"":""fullscreenenter"",""trial"":1,""time"":1912}]",NA,NA,NA,NA,NA,2,#1CD855,#FA92F8,0,10,0,38,1,953.5,39,0,800.6000000000931,10,1,experiment,NA,NA,0,0.1,0.9,1,0,243,6,NA
fcp-trial,279,1044686,0.0-254.0-0.0,voc_e2,12189,"[{""event"":""fullscreenenter"",""trial"":1,""time"":1912}]",NA,NA,NA,NA,NA,3,#D89F1C,#3386FF,10,0,0,38,1,4551.699999999953,39,0,905.1999999999534,0,1,experiment,NA,NA,1,0.3,0.7,3,2,244,6,NA
fcp-trial,280,1047308,0.0-255.0-0.0,voc_e2,12189,"[{""event"":""fullscreenenter"",""trial"":1,""time"":1912}]",NA,NA,NA,NA,NA,0,#FA92F8,#1CD855,10,0,1,38,1,642.6999999999534,37,1,468.10000000009313,10,1,experiment,NA,NA,0,0.9,0.1,0,1,245,6,NA
fcp-trial,281,1050140,0.0-256.0-0.0,voc_e2,12189,"[{""event"":""fullscreenenter"",""trial"":1,""time"":1912}]",NA,NA,NA,NA,NA,1,#741CD8,#D8271C,10,10,1,38,1,512.3999999999069,39,0,809.3000000000466,10,0,experiment,NA,NA,2,0.5,0.5,4,5,246,6,NA
fcp-trial,282,1052615,0.0-257.0-0.0,voc_e2,12189,"[{""event"":""fullscreenenter"",""trial"":1,""time"":1912}]",NA,NA,NA,NA,NA,5,#741CD8,#D8271C,10,0,1,38,1,620.3999999999069,39,0,339.9000000001397,0,0,experiment,NA,NA,2,0.5,0.5,4,5,247,6,NA
fcp-trial,283,1054902,0.0-258.0-0.0,voc_e2,12189,"[{""event"":""fullscreenenter"",""trial"":1,""time"":1912}]",NA,NA,NA,NA,NA,1,#FA92F8,#1CD855,10,0,1,38,1,522.1999999999534,37,1,253.0999999998603,10,1,experiment,NA,NA,0,0.9,0.1,0,1,248,6,NA
fcp-trial,284,1057657,0.0-259.0-0.0,voc_e2,12189,"[{""event"":""fullscreenenter"",""trial"":1,""time"":1912}]",NA,NA,NA,NA,NA,1,#D89F1C,#3386FF,0,10,0,38,1,663.7999999998137,39,0,580.6000000000931,10,1,experiment,NA,NA,1,0.3,0.7,3,2,249,6,NA
fcp-trial,285,1061415,0.0-260.0-0.0,voc_e2,12189,"[{""event"":""fullscreenenter"",""trial"":1,""time"":1912}]",NA,NA,NA,NA,NA,0,#D8271C,#741CD8,10,10,0,38,1,1713.1999999999534,39,0,535.5,10,1,experiment,NA,NA,2,0.5,0.5,5,4,250,6,NA
fcp-trial,286,1063989,0.0-261.0-0.0,voc_e2,12189,"[{""event"":""fullscreenenter"",""trial"":1,""time"":1912}]",NA,NA,NA,NA,NA,6,#D89F1C,#3386FF,10,10,0,38,1,555.8000000000466,39,0,508.69999999995343,10,1,experiment,NA,NA,1,0.3,0.7,3,2,251,6,NA
fcp-trial,287,1067251,0.0-262.0-0.0,voc_e2,12189,"[{""event"":""fullscreenenter"",""trial"":1,""time"":1912}]",NA,NA,NA,NA,NA,4,#741CD8,#D8271C,10,10,1,38,1,1493.7000000001863,37,1,259,10,1,experiment,NA,NA,2,0.5,0.5,4,5,252,6,NA
fcp-trial,288,1069783,0.0-263.0-0.0,voc_e2,12189,"[{""event"":""fullscreenenter"",""trial"":1,""time"":1912}]",NA,NA,NA,NA,NA,4,#3386FF,#D89F1C,10,10,1,38,1,731.5,37,1,288.30000000004657,10,1,experiment,NA,NA,1,0.7,0.3,2,3,253,6,NA
fcp-trial,289,1072740,0.0-264.0-0.0,voc_e2,12189,"[{""event"":""fullscreenenter"",""trial"":1,""time"":1912}]",NA,NA,NA,NA,NA,0,#741CD8,#D8271C,0,10,1,38,1,1157.6999999999534,39,0,289,10,0,experiment,NA,NA,2,0.5,0.5,4,5,254,6,NA
fcp-trial,290,1075333,0.0-265.0-0.0,voc_e2,12189,"[{""event"":""fullscreenenter"",""trial"":1,""time"":1912}]",NA,NA,NA,NA,NA,1,#D89F1C,#3386FF,0,10,0,38,1,557.2999999998137,39,0,526.1000000000931,10,1,experiment,NA,NA,1,0.3,0.7,3,2,255,6,NA
fcp-trial,291,1077862,0.0-266.0-0.0,voc_e2,12189,"[{""event"":""fullscreenenter"",""trial"":1,""time"":1912}]",NA,NA,NA,NA,NA,0,#1CD855,#FA92F8,0,10,0,38,1,513.6999999999534,39,0,504.30000000004657,10,1,experiment,NA,NA,0,0.1,0.9,1,0,256,6,NA
fcp-trial,292,1080461,0.0-267.0-0.0,voc_e2,12189,"[{""event"":""fullscreenenter"",""trial"":1,""time"":1912}]",NA,NA,NA,NA,NA,4,#FA92F8,#1CD855,10,0,1,38,1,549.3000000000466,37,1,537.8000000000466,10,1,experiment,NA,NA,0,0.9,0.1,0,1,257,6,NA
fcp-trial,293,1082786,0.0-268.0-0.0,voc_e2,12189,"[{""event"":""fullscreenenter"",""trial"":1,""time"":1912}]",NA,NA,NA,NA,NA,4,#D8271C,#741CD8,10,10,0,38,1,104.69999999995343,39,0,710.0999999998603,10,1,experiment,NA,NA,2,0.5,0.5,5,4,258,6,NA
fcp-trial,294,1085265,0.0-269.0-0.0,voc_e2,12189,"[{""event"":""fullscreenenter"",""trial"":1,""time"":1912}]",NA,NA,NA,NA,NA,5,#D89F1C,#3386FF,0,10,0,38,1,620,37,1,347.0999999998603,0,0,experiment,NA,NA,1,0.3,0.7,3,2,259,6,NA
fcp-trial,295,1087570,0.0-270.0-0.0,voc_e2,12189,"[{""event"":""fullscreenenter"",""trial"":1,""time"":1912}]",NA,NA,NA,NA,NA,2,#3386FF,#D89F1C,0,0,1,38,1,518.6000000000931,37,1,276.5,0,1,experiment,NA,NA,1,0.7,0.3,2,3,260,6,NA
fcp-trial,296,1090310,0.0-271.0-0.0,voc_e2,12189,"[{""event"":""fullscreenenter"",""trial"":1,""time"":1912}]",NA,NA,NA,NA,NA,5,#FA92F8,#1CD855,10,0,1,38,1,706.5999999998603,37,1,522.3000000000466,10,1,experiment,NA,NA,0,0.9,0.1,0,1,261,6,NA
fcp-trial,297,1093597,0.0-272.0-0.0,voc_e2,12189,"[{""event"":""fullscreenenter"",""trial"":1,""time"":1912}]",NA,NA,NA,NA,NA,1,#741CD8,#D8271C,0,10,1,38,1,1272.2000000001863,37,1,506.19999999995343,0,1,experiment,NA,NA,2,0.5,0.5,4,5,262,6,NA
fcp-trial,298,1095915,0.0-273.0-0.0,voc_e2,12189,"[{""event"":""fullscreenenter"",""trial"":1,""time"":1912}]",NA,NA,NA,NA,NA,5,#741CD8,#D8271C,10,10,1,38,1,360.69999999995343,37,1,447.5,10,1,experiment,NA,NA,2,0.5,0.5,4,5,263,6,NA
fcp-trial,299,1098194,0.0-274.0-0.0,voc_e2,12189,"[{""event"":""fullscreenenter"",""trial"":1,""time"":1912}]",NA,NA,NA,NA,NA,3,#741CD8,#D8271C,0,10,1,38,1,504.5999999998603,37,1,264.5999999998603,0,1,experiment,NA,NA,2,0.5,0.5,4,5,264,6,NA
fcp-trial,300,1100768,0.0-275.0-0.0,voc_e2,12189,"[{""event"":""fullscreenenter"",""trial"":1,""time"":1912}]",NA,NA,NA,NA,NA,6,#D89F1C,#3386FF,0,10,0,38,1,611.4000000001397,39,0,451.80000000004657,10,1,experiment,NA,NA,1,0.3,0.7,3,2,265,6,NA
fcp-trial,301,1103254,0.0-276.0-0.0,voc_e2,12189,"[{""event"":""fullscreenenter"",""trial"":1,""time"":1912}]",NA,NA,NA,NA,NA,1,#1CD855,#FA92F8,0,10,0,38,1,604.8999999999069,39,0,373,10,1,experiment,NA,NA,0,0.1,0.9,1,0,266,6,NA
fcp-trial,302,1105921,0.0-277.0-0.0,voc_e2,12189,"[{""event"":""fullscreenenter"",""trial"":1,""time"":1912}]",NA,NA,NA,NA,NA,2,#D8271C,#741CD8,10,10,0,38,1,609.5999999998603,39,0,545.9000000001397,10,1,experiment,NA,NA,2,0.5,0.5,5,4,267,6,NA
fcp-trial,303,1108502,0.0-278.0-0.0,voc_e2,12189,"[{""event"":""fullscreenenter"",""trial"":1,""time"":1912}]",NA,NA,NA,NA,NA,0,#D89F1C,#3386FF,0,10,0,38,1,665.1999999999534,39,0,405.30000000004657,10,1,experiment,NA,NA,1,0.3,0.7,3,2,268,6,NA
fcp-trial,304,1111585,0.0-279.0-0.0,voc_e2,12189,"[{""event"":""fullscreenenter"",""trial"":1,""time"":1912}]",NA,NA,NA,NA,NA,2,#FA92F8,#1CD855,10,10,1,38,1,934.1000000000931,37,1,637.4000000001397,10,1,experiment,NA,NA,0,0.9,0.1,0,1,269,6,NA
fcp-trial,305,1113929,0.0-280.0-0.0,voc_e2,12189,"[{""event"":""fullscreenenter"",""trial"":1,""time"":1912}]",NA,NA,NA,NA,NA,3,#FA92F8,#1CD855,10,0,1,38,1,513.5,37,1,320.69999999995343,10,1,experiment,NA,NA,0,0.9,0.1,0,1,270,6,NA
fcp-trial,306,1116364,0.0-281.0-0.0,voc_e2,12189,"[{""event"":""fullscreenenter"",""trial"":1,""time"":1912}]",NA,NA,NA,NA,NA,3,#3386FF,#D89F1C,10,10,1,38,1,632.6999999999534,37,1,291.29999999981374,10,1,experiment,NA,NA,1,0.7,0.3,2,3,271,7,NA
fcp-trial,307,1118801,0.0-282.0-0.0,voc_e2,12189,"[{""event"":""fullscreenenter"",""trial"":1,""time"":1912}]",NA,NA,NA,NA,NA,6,#D8271C,#741CD8,0,0,0,38,1,654.5,39,0,273.30000000004657,0,1,experiment,NA,NA,2,0.5,0.5,5,4,272,7,NA
fcp-trial,308,1121013,0.0-283.0-0.0,voc_e2,12189,"[{""event"":""fullscreenenter"",""trial"":1,""time"":1912}]",NA,NA,NA,NA,NA,6,#FA92F8,#1CD855,0,0,1,38,1,296.19999999995343,37,1,402.39999999990687,0,1,experiment,NA,NA,0,0.9,0.1,0,1,273,7,NA
fcp-trial,309,1123775,0.0-284.0-0.0,voc_e2,12189,"[{""event"":""fullscreenenter"",""trial"":1,""time"":1912}]",NA,NA,NA,NA,NA,3,#D89F1C,#3386FF,0,10,0,38,1,948.6000000000931,39,0,302,10,1,experiment,NA,NA,1,0.3,0.7,3,2,274,7,NA
fcp-trial,310,1127542,0.0-285.0-0.0,voc_e2,12189,"[{""event"":""fullscreenenter"",""trial"":1,""time"":1912}]",NA,NA,NA,NA,NA,0,#D8271C,#741CD8,0,10,0,38,1,1283.6999999999534,39,0,974.5999999998604,10,1,experiment,NA,NA,2,0.5,0.5,5,4,275,7,NA
fcp-trial,311,1133701,0.0-286.0-0.0,voc_e2,12189,"[{""event"":""fullscreenenter"",""trial"":1,""time"":1912}]",NA,NA,NA,NA,NA,6,#741CD8,#D8271C,0,0,1,38,1,4219,39,0,429.80000000004657,0,0,experiment,NA,NA,2,0.5,0.5,4,5,276,7,NA
fcp-trial,312,1136201,0.0-287.0-0.0,voc_e2,12189,"[{""event"":""fullscreenenter"",""trial"":1,""time"":1912}]",NA,NA,NA,NA,NA,0,#3386FF,#D89F1C,10,10,1,38,1,592.5,37,1,396.60000000009313,10,1,experiment,NA,NA,1,0.7,0.3,2,3,277,7,NA
fcp-trial,313,1138895,0.0-288.0-0.0,voc_e2,12189,"[{""event"":""fullscreenenter"",""trial"":1,""time"":1912}]",NA,NA,NA,NA,NA,2,#FA92F8,#1CD855,10,0,1,38,1,892.6999999999534,37,1,291.5999999998603,10,1,experiment,NA,NA,0,0.9,0.1,0,1,278,7,NA
fcp-trial,314,1142064,0.0-289.0-0.0,voc_e2,12189,"[{""event"":""fullscreenenter"",""trial"":1,""time"":1912}]",NA,NA,NA,NA,NA,5,#D8271C,#741CD8,0,0,0,40,0,1198.8999999999069,37,1,460.69999999995343,0,0,experiment,NA,NA,2,0.5,0.5,5,4,279,7,NA
fcp-trial,315,1144469,0.0-290.0-0.0,voc_e2,12189,"[{""event"":""fullscreenenter"",""trial"":1,""time"":1912}]",NA,NA,NA,NA,NA,3,#1CD855,#FA92F8,0,0,0,38,1,612.6999999999534,39,0,278.70000000018626,0,1,experiment,NA,NA,0,0.1,0.9,1,0,280,7,NA
fcp-trial,316,1147093,0.0-291.0-0.0,voc_e2,12189,"[{""event"":""fullscreenenter"",""trial"":1,""time"":1912}]",NA,NA,NA,NA,NA,4,#1CD855,#FA92F8,0,10,0,38,1,594.1999999999534,39,0,519.5,10,1,experiment,NA,NA,0,0.1,0.9,1,0,281,7,NA
fcp-trial,317,1149906,0.0-292.0-0.0,voc_e2,12189,"[{""event"":""fullscreenenter"",""trial"":1,""time"":1912}]",NA,NA,NA,NA,NA,4,#3386FF,#D89F1C,10,0,1,38,1,1042.8999999999069,37,1,258.20000000018626,10,1,experiment,NA,NA,1,0.7,0.3,2,3,282,7,NA
fcp-trial,318,1152963,0.0-293.0-0.0,voc_e2,12189,"[{""event"":""fullscreenenter"",""trial"":1,""time"":1912}]",NA,NA,NA,NA,NA,4,#D8271C,#741CD8,10,0,0,40,0,1185.3000000000466,39,0,362.39999999990687,0,1,experiment,NA,NA,2,0.5,0.5,5,4,283,7,NA
fcp-trial,319,1155905,0.0-294.0-0.0,voc_e2,12189,"[{""event"":""fullscreenenter"",""trial"":1,""time"":1912}]",NA,NA,NA,NA,NA,1,#741CD8,#D8271C,0,10,1,40,0,864.4000000001397,37,1,565.9000000001397,0,1,experiment,NA,NA,2,0.5,0.5,4,5,284,7,NA
fcp-trial,320,1158623,0.0-295.0-0.0,voc_e2,12189,"[{""event"":""fullscreenenter"",""trial"":1,""time"":1912}]",NA,NA,NA,NA,NA,5,#D89F1C,#3386FF,0,10,0,38,1,564.5,39,0,643.8000000000466,10,1,experiment,NA,NA,1,0.3,0.7,3,2,285,7,NA
fcp-trial,321,1162303,0.0-296.0-0.0,voc_e2,12189,"[{""event"":""fullscreenenter"",""trial"":1,""time"":1912}]",NA,NA,NA,NA,NA,6,#1CD855,#FA92F8,10,10,0,38,1,1673.6000000000931,39,0,497.0999999998603,10,1,experiment,NA,NA,0,0.1,0.9,1,0,286,7,NA
fcp-trial,322,1165059,0.0-297.0-0.0,voc_e2,12189,"[{""event"":""fullscreenenter"",""trial"":1,""time"":1912}]",NA,NA,NA,NA,NA,1,#D89F1C,#3386FF,0,0,0,38,1,990.3000000000466,39,0,255,0,1,experiment,NA,NA,1,0.3,0.7,3,2,287,7,NA
fcp-trial,323,1167891,0.0-298.0-0.0,voc_e2,12189,"[{""event"":""fullscreenenter"",""trial"":1,""time"":1912}]",NA,NA,NA,NA,NA,2,#741CD8,#D8271C,0,0,1,40,0,912.8000000000466,37,1,409.19999999995343,0,1,experiment,NA,NA,2,0.5,0.5,4,5,288,7,NA
fcp-trial,324,1170387,0.0-299.0-0.0,voc_e2,12189,"[{""event"":""fullscreenenter"",""trial"":1,""time"":1912}]",NA,NA,NA,NA,NA,2,#3386FF,#D89F1C,10,0,1,38,1,521.0999999998603,37,1,465.30000000004657,10,1,experiment,NA,NA,1,0.7,0.3,2,3,289,7,NA
fcp-trial,325,1173987,0.0-300.0-0.0,voc_e2,12189,"[{""event"":""fullscreenenter"",""trial"":1,""time"":1912}]",NA,NA,NA,NA,NA,0,#1CD855,#FA92F8,0,10,0,38,1,1628.7000000001863,39,0,458.89999999990687,10,1,experiment,NA,NA,0,0.1,0.9,1,0,290,7,NA
fcp-trial,326,1176310,0.0-301.0-0.0,voc_e2,12189,"[{""event"":""fullscreenenter"",""trial"":1,""time"":1912}]",NA,NA,NA,NA,NA,1,#1CD855,#FA92F8,0,10,0,38,1,451.9000000001397,39,0,361.19999999995343,10,1,experiment,NA,NA,0,0.1,0.9,1,0,291,7,NA
fcp-trial,327,1178798,0.0-302.0-0.0,voc_e2,12189,"[{""event"":""fullscreenenter"",""trial"":1,""time"":1912}]",NA,NA,NA,NA,NA,5,#FA92F8,#1CD855,10,0,1,38,1,718.5,37,1,259.5999999998603,10,1,experiment,NA,NA,0,0.9,0.1,0,1,292,7,NA
fcp-trial,328,1181951,0.0-303.0-0.0,voc_e2,12189,"[{""event"":""fullscreenenter"",""trial"":1,""time"":1912}]",NA,NA,NA,NA,NA,3,#D8271C,#741CD8,10,0,0,40,0,1309.6000000000931,39,0,331.19999999995343,0,1,experiment,NA,NA,2,0.5,0.5,5,4,293,7,NA
fcp-trial,329,1184419,0.0-304.0-0.0,voc_e2,12189,"[{""event"":""fullscreenenter"",""trial"":1,""time"":1912}]",NA,NA,NA,NA,NA,6,#3386FF,#D89F1C,0,0,1,38,1,644.5,37,1,313.39999999990687,0,1,experiment,NA,NA,1,0.7,0.3,2,3,294,7,NA
fcp-trial,330,1187788,0.0-305.0-0.0,voc_e2,12189,"[{""event"":""fullscreenenter"",""trial"":1,""time"":1912}]",NA,NA,NA,NA,NA,2,#741CD8,#D8271C,10,10,1,40,0,1049.8999999999069,37,1,808.6999999999534,10,1,experiment,NA,NA,2,0.5,0.5,4,5,295,7,NA
fcp-trial,331,1190594,0.0-306.0-0.0,voc_e2,12189,"[{""event"":""fullscreenenter"",""trial"":1,""time"":1912}]",NA,NA,NA,NA,NA,0,#1CD855,#FA92F8,0,10,0,38,1,672,39,0,623,10,1,experiment,NA,NA,0,0.1,0.9,1,0,296,7,NA
fcp-trial,332,1194484,0.0-307.0-0.0,voc_e2,12189,"[{""event"":""fullscreenenter"",""trial"":1,""time"":1912}]",NA,NA,NA,NA,NA,3,#741CD8,#D8271C,0,0,1,38,1,1376,37,1,1004,0,1,experiment,NA,NA,2,0.5,0.5,4,5,297,7,NA
fcp-trial,333,1197756,0.0-308.0-0.0,voc_e2,12189,"[{""event"":""fullscreenenter"",""trial"":1,""time"":1912}]",NA,NA,NA,NA,NA,1,#3386FF,#D89F1C,10,0,1,38,1,1492,37,1,267.5,10,1,experiment,NA,NA,1,0.7,0.3,2,3,298,7,NA
fcp-trial,334,1200521,0.0-309.0-0.0,voc_e2,12189,"[{""event"":""fullscreenenter"",""trial"":1,""time"":1912}]",NA,NA,NA,NA,NA,6,#D89F1C,#3386FF,10,10,0,38,1,925.5999999998603,37,1,328.5,10,0,experiment,NA,NA,1,0.3,0.7,3,2,299,7,NA
fcp-trial,335,1203120,0.0-310.0-0.0,voc_e2,12189,"[{""event"":""fullscreenenter"",""trial"":1,""time"":1912}]",NA,NA,NA,NA,NA,4,#FA92F8,#1CD855,10,0,1,38,1,818,37,1,271.5,10,1,experiment,NA,NA,0,0.9,0.1,0,1,300,7,NA
fcp-trial,336,1206393,0.0-311.0-0.0,voc_e2,12189,"[{""event"":""fullscreenenter"",""trial"":1,""time"":1912}]",NA,NA,NA,NA,NA,6,#D8271C,#741CD8,10,10,0,40,0,1171.6999999999534,37,1,591.5999999998603,10,0,experiment,NA,NA,2,0.5,0.5,5,4,301,7,NA
fcp-trial,337,1209468,0.0-312.0-0.0,voc_e2,12189,"[{""event"":""fullscreenenter"",""trial"":1,""time"":1912}]",NA,NA,NA,NA,NA,0,#D8271C,#741CD8,10,10,0,38,1,1252.1000000000931,37,1,313.39999999990687,10,0,experiment,NA,NA,2,0.5,0.5,5,4,302,7,NA
fcp-trial,338,1212554,0.0-313.0-0.0,voc_e2,12189,"[{""event"":""fullscreenenter"",""trial"":1,""time"":1912}]",NA,NA,NA,NA,NA,4,#3386FF,#D89F1C,0,0,1,38,1,1029,37,1,547.2000000001863,0,1,experiment,NA,NA,1,0.7,0.3,2,3,303,7,NA
fcp-trial,339,1214802,0.0-314.0-0.0,voc_e2,12189,"[{""event"":""fullscreenenter"",""trial"":1,""time"":1912}]",NA,NA,NA,NA,NA,5,#D89F1C,#3386FF,0,0,0,38,1,485.60000000009313,39,0,252.4000000001397,0,1,experiment,NA,NA,1,0.3,0.7,3,2,304,7,NA
fcp-trial,340,1217236,0.0-315.0-0.0,voc_e2,12189,"[{""event"":""fullscreenenter"",""trial"":1,""time"":1912}]",NA,NA,NA,NA,NA,6,#1CD855,#FA92F8,0,10,0,38,1,654,39,0,268.60000000009313,10,1,experiment,NA,NA,0,0.1,0.9,1,0,305,7,NA
fcp-trial,341,1219801,0.0-316.0-0.0,voc_e2,12189,"[{""event"":""fullscreenenter"",""trial"":1,""time"":1912}]",NA,NA,NA,NA,NA,3,#FA92F8,#1CD855,10,0,1,38,1,779.6000000000931,37,1,275.80000000004657,10,1,experiment,NA,NA,0,0.9,0.1,0,1,306,7,NA
fcp-trial,342,1223121,0.0-317.0-0.0,voc_e2,12189,"[{""event"":""fullscreenenter"",""trial"":1,""time"":1912}]",NA,NA,NA,NA,NA,5,#D8271C,#741CD8,10,10,0,38,1,1219,39,0,591.8000000000466,10,1,experiment,NA,NA,2,0.5,0.5,5,4,307,7,NA
fcp-trial,343,1227753,0.0-318.0-0.0,voc_e2,12189,"[{""event"":""fullscreenenter"",""trial"":1,""time"":1912}]",NA,NA,NA,NA,NA,2,#D89F1C,#3386FF,0,10,0,38,1,2606.600000000093,39,0,516.1999999999534,10,1,experiment,NA,NA,1,0.3,0.7,3,2,308,7,NA
fcp-trial,344,1230986,0.0-319.0-0.0,voc_e2,12189,"[{""event"":""fullscreenenter"",""trial"":1,""time"":1912}]",NA,NA,NA,NA,NA,2,#FA92F8,#1CD855,10,0,1,38,1,1140.8999999999069,37,1,581.1000000000931,10,1,experiment,NA,NA,0,0.9,0.1,0,1,309,7,NA
fcp-trial,345,1234249,0.0-320.0-0.0,voc_e2,12189,"[{""event"":""fullscreenenter"",""trial"":1,""time"":1912}]",NA,NA,NA,NA,NA,1,#D8271C,#741CD8,10,10,0,38,1,1343.3999999999069,39,0,410.39999999990687,10,1,experiment,NA,NA,2,0.5,0.5,5,4,310,7,NA
fcp-trial,346,1236910,0.0-321.0-0.0,voc_e2,12189,"[{""event"":""fullscreenenter"",""trial"":1,""time"":1912}]",NA,NA,NA,NA,NA,0,#D89F1C,#3386FF,10,0,0,38,1,529.5999999998603,39,0,616.9000000001397,0,1,experiment,NA,NA,1,0.3,0.7,3,2,311,7,NA
fcp-trial,347,1239294,0.0-322.0-0.0,voc_e2,12189,"[{""event"":""fullscreenenter"",""trial"":1,""time"":1912}]",NA,NA,NA,NA,NA,3,#D89F1C,#3386FF,0,10,0,38,1,538.5,39,0,336.89999999990687,10,1,experiment,NA,NA,1,0.3,0.7,3,2,312,7,NA
fcp-trial,348,1242553,0.0-323.0-0.0,voc_e2,12189,"[{""event"":""fullscreenenter"",""trial"":1,""time"":1912}]",NA,NA,NA,NA,NA,4,#741CD8,#D8271C,10,10,1,40,0,1168.3999999999069,37,1,578.8000000000466,10,1,experiment,NA,NA,2,0.5,0.5,4,5,313,7,NA
fcp-trial,349,1245528,0.0-324.0-0.0,voc_e2,12189,"[{""event"":""fullscreenenter"",""trial"":1,""time"":1912}]",NA,NA,NA,NA,NA,5,#FA92F8,#1CD855,10,0,1,38,1,1126.3999999999069,37,1,337.69999999995343,10,1,experiment,NA,NA,0,0.9,0.1,0,1,314,7,NA
fcp-trial,350,1247890,0.0-325.0-0.0,voc_e2,12189,"[{""event"":""fullscreenenter"",""trial"":1,""time"":1912}]",NA,NA,NA,NA,NA,1,#FA92F8,#1CD855,10,0,1,38,1,581.1000000000931,37,1,270.80000000004657,10,1,experiment,NA,NA,0,0.9,0.1,0,1,315,7,NA
audio-instructions,351,1255235,0.0-326.0,voc_e2,12189,"[{""event"":""fullscreenenter"",""trial"":1,""time"":1912}]",NA,1466.9000000001397,static/audio/finished.wav,NA,0,NA,NA,NA,NA,NA,NA,NA,NA,NA,NA,NA,NA,NA,NA,NA,NA,NA,NA,NA,NA,NA,NA,NA,NA,NA
audio-instructions,352,1267443,0.0-327.0-0.0,voc_e2,12189,"[{""event"":""fullscreenenter"",""trial"":1,""time"":1912}]",NA,1374.8000000000466,static/audio/explicit1.wav,NA,0,NA,NA,NA,NA,NA,NA,NA,NA,NA,NA,NA,NA,NA,NA,NA,NA,NA,NA,NA,NA,NA,NA,NA,NA,NA
audio-instructions,353,1275887,0.0-327.0-1.0,voc_e2,12189,"[{""event"":""fullscreenenter"",""trial"":1,""time"":1912}]",NA,848.5,static/audio/explicit2.wav,NA,0,NA,NA,NA,NA,NA,NA,NA,NA,NA,NA,NA,NA,NA,NA,NA,NA,NA,NA,NA,NA,NA,NA,NA,NA,NA
image-slider-response,354,1281472,0.0-328.0,voc_e2,12189,"[{""event"":""fullscreenenter"",""trial"":1,""time"":1912}]",NA,5583.90000000014,static/img/machines/machine4.png,NA,NA,NA,NA,NA,NA,NA,NA,NA,NA,NA,NA,NA,NA,NA,NA,explicit,NA,NA,NA,NA,NA,NA,NA,NA,NA,2
image-slider-response,355,1285037,0.0-329.0,voc_e2,12189,"[{""event"":""fullscreenenter"",""trial"":1,""time"":1912}]",NA,3562.3000000000466,static/img/machines/machine6.png,NA,NA,NA,NA,NA,NA,NA,NA,NA,NA,NA,NA,NA,NA,NA,NA,explicit,NA,NA,NA,NA,NA,NA,NA,NA,NA,3
image-slider-response,356,1289032,0.0-330.0,voc_e2,12189,"[{""event"":""fullscreenenter"",""trial"":1,""time"":1912}]",NA,3994.100000000093,static/img/machines/machine1.png,NA,NA,NA,NA,NA,NA,NA,NA,NA,NA,NA,NA,NA,NA,NA,NA,explicit,NA,NA,NA,NA,NA,NA,NA,NA,NA,3
image-slider-response,357,1293677,0.0-331.0,voc_e2,12189,"[{""event"":""fullscreenenter"",""trial"":1,""time"":1912}]",NA,4643,static/img/machines/machine3.png,NA,NA,NA,NA,NA,NA,NA,NA,NA,NA,NA,NA,NA,NA,NA,NA,explicit,NA,NA,NA,NA,NA,NA,NA,NA,NA,8
image-slider-response,358,1297025,0.0-332.0,voc_e2,12189,"[{""event"":""fullscreenenter"",""trial"":1,""time"":1912}]",NA,3346.899999999907,static/img/machines/machine2.png,NA,NA,NA,NA,NA,NA,NA,NA,NA,NA,NA,NA,NA,NA,NA,NA,explicit,NA,NA,NA,NA,NA,NA,NA,NA,NA,4
image-slider-response,359,1300337,0.0-333.0,voc_e2,12189,"[{""event"":""fullscreenenter"",""trial"":1,""time"":1912}]",NA,3310.3000000000466,static/img/machines/machine5.png,NA,NA,NA,NA,NA,NA,NA,NA,NA,NA,NA,NA,NA,NA,NA,NA,explicit,NA,NA,NA,NA,NA,NA,NA,NA,NA,8
