trial_type,trial_index,time_elapsed,internal_node_id,task_version,subject_id,interactions,success,rt,stimulus,key_press,button_pressed,offer,arcade_color_L,arcade_color_R,arcade_outcome_L,arcade_outcome_R,correct,stage_1_key,stage_1_choice,stage_1_rt,stage_2_key,stage_2_choice,stage_2_rt,stage_3_outcome,accuracy,phase,responses,num_errors,context,reward_prob_L,reward_prob_R,arcade_id_L,arcade_id_R,trial,block,response
pavlovia,0,15,0.0-0.0,voc_e2,12287,[],NA,NA,NA,NA,NA,NA,NA,NA,NA,NA,NA,NA,NA,NA,NA,NA,NA,NA,NA,NA,NA,NA,NA,NA,NA,NA,NA,NA,NA,NA
fullscreen,1,3202,0.0-1.0,voc_e2,12287,"[{""event"":""fullscreenenter"",""trial"":1,""time"":2233}]",TRUE,NA,NA,NA,NA,NA,NA,NA,NA,NA,NA,NA,NA,NA,NA,NA,NA,NA,NA,NA,NA,NA,NA,NA,NA,NA,NA,NA,NA,NA
audio-keyboard-response,2,7109,0.0-2.0,voc_e2,12287,"[{""event"":""fullscreenenter"",""trial"":1,""time"":2233}]",NA,3787,static/audio/beep_loop.wav,32,NA,NA,NA,NA,NA,NA,NA,NA,NA,NA,NA,NA,NA,NA,NA,NA,NA,NA,NA,NA,NA,NA,NA,NA,NA,NA
audio-test,3,9358,0.0-3.0,voc_e2,12287,"[{""event"":""fullscreenenter"",""trial"":1,""time"":2233}]",NA,NA,static/audio/turtle.wav,NA,3,NA,NA,NA,NA,NA,NA,NA,NA,NA,NA,NA,NA,NA,NA,NA,NA,NA,NA,NA,NA,NA,NA,NA,NA,NA
audio-test,4,11595,0.0-4.0,voc_e2,12287,"[{""event"":""fullscreenenter"",""trial"":1,""time"":2233}]",NA,NA,static/audio/shark.wav,NA,2,NA,NA,NA,NA,NA,NA,NA,NA,NA,NA,NA,NA,NA,NA,NA,NA,NA,NA,NA,NA,NA,NA,NA,NA,NA
audio-instructions,5,18752,0.0-5.0-0.0,voc_e2,12287,"[{""event"":""fullscreenenter"",""trial"":1,""time"":2233}]",NA,1374.0999999046326,static/audio/instructions1.wav,NA,0,NA,NA,NA,NA,NA,NA,NA,NA,NA,NA,NA,NA,NA,NA,NA,NA,NA,NA,NA,NA,NA,NA,NA,NA,NA
audio-instructions,6,34377,0.0-5.0-1.0,voc_e2,12287,"[{""event"":""fullscreenenter"",""trial"":1,""time"":2233}]",NA,8882.200000286102,static/audio/instructions2.wav,NA,0,NA,NA,NA,NA,NA,NA,NA,NA,NA,NA,NA,NA,NA,NA,NA,NA,NA,NA,NA,NA,NA,NA,NA,NA,NA
audio-instructions,7,41310,0.0-5.0-2.0,voc_e2,12287,"[{""event"":""fullscreenenter"",""trial"":1,""time"":2233}]",NA,1130.4000000953674,static/audio/instructions3.wav,NA,0,NA,NA,NA,NA,NA,NA,NA,NA,NA,NA,NA,NA,NA,NA,NA,NA,NA,NA,NA,NA,NA,NA,NA,NA,NA
audio-instructions,8,55364,0.0-5.0-3.0,voc_e2,12287,"[{""event"":""fullscreenenter"",""trial"":1,""time"":2233}]",NA,827.4000000953674,static/audio/instructions4.wav,NA,0,NA,NA,NA,NA,NA,NA,NA,NA,NA,NA,NA,NA,NA,NA,NA,NA,NA,NA,NA,NA,NA,NA,NA,NA,NA
audio-instructions,9,135911,0.0-5.0-4.0,voc_e2,12287,"[{""event"":""fullscreenenter"",""trial"":1,""time"":2233},{""event"":""blur"",""trial"":9,""time"":62984},{""event"":""focus"",""trial"":9,""time"":92939},{""event"":""blur"",""trial"":9,""time"":123040},{""event"":""focus"",""trial"":9,""time"":135179}]",NA,71158.40000009537,static/audio/instructions5.wav,NA,0,NA,NA,NA,NA,NA,NA,NA,NA,NA,NA,NA,NA,NA,NA,NA,NA,NA,NA,NA,NA,NA,NA,NA,NA,NA
fcp-practice,10,147557,0.0-5.0-5.0-0.0,voc_e2,12287,"[{""event"":""fullscreenenter"",""trial"":1,""time"":2233},{""event"":""blur"",""trial"":9,""time"":62984},{""event"":""focus"",""trial"":9,""time"":92939},{""event"":""blur"",""trial"":9,""time"":123040},{""event"":""focus"",""trial"":9,""time"":135179},{""event"":""blur"",""trial"":10,""time"":137224},{""event"":""focus"",""trial"":10,""time"":145296}]",NA,NA,NA,NA,NA,NA,#EDC948,#46d3c8,10,0,1,null,null,null,37,1,10086.900000095367,10,1,practice,NA,NA,NA,NA,NA,NA,NA,NA,NA,NA
fcp-practice,11,149605,0.0-5.0-5.0-1.0,voc_e2,12287,"[{""event"":""fullscreenenter"",""trial"":1,""time"":2233},{""event"":""blur"",""trial"":9,""time"":62984},{""event"":""focus"",""trial"":9,""time"":92939},{""event"":""blur"",""trial"":9,""time"":123040},{""event"":""focus"",""trial"":9,""time"":135179},{""event"":""blur"",""trial"":10,""time"":137224},{""event"":""focus"",""trial"":10,""time"":145296}]",NA,NA,NA,NA,NA,NA,#EDC948,#46d3c8,10,0,1,null,null,null,37,1,542.4000000953674,10,1,practice,NA,NA,NA,NA,NA,NA,NA,NA,NA,NA
fcp-practice,12,151422,0.0-5.0-5.0-2.0,voc_e2,12287,"[{""event"":""fullscreenenter"",""trial"":1,""time"":2233},{""event"":""blur"",""trial"":9,""time"":62984},{""event"":""focus"",""trial"":9,""time"":92939},{""event"":""blur"",""trial"":9,""time"":123040},{""event"":""focus"",""trial"":9,""time"":135179},{""event"":""blur"",""trial"":10,""time"":137224},{""event"":""focus"",""trial"":10,""time"":145296}]",NA,NA,NA,NA,NA,NA,#EDC948,#46d3c8,0,10,1,null,null,null,37,1,311.2000002861023,0,1,practice,NA,NA,NA,NA,NA,NA,NA,NA,NA,NA
fcp-practice,13,153353,0.0-5.0-5.0-3.0,voc_e2,12287,"[{""event"":""fullscreenenter"",""trial"":1,""time"":2233},{""event"":""blur"",""trial"":9,""time"":62984},{""event"":""focus"",""trial"":9,""time"":92939},{""event"":""blur"",""trial"":9,""time"":123040},{""event"":""focus"",""trial"":9,""time"":135179},{""event"":""blur"",""trial"":10,""time"":137224},{""event"":""focus"",""trial"":10,""time"":145296}]",NA,NA,NA,NA,NA,NA,#EDC948,#46d3c8,10,0,1,null,null,null,37,1,425.2000002861023,10,1,practice,NA,NA,NA,NA,NA,NA,NA,NA,NA,NA
fcp-practice,14,155143,0.0-5.0-5.0-4.0,voc_e2,12287,"[{""event"":""fullscreenenter"",""trial"":1,""time"":2233},{""event"":""blur"",""trial"":9,""time"":62984},{""event"":""focus"",""trial"":9,""time"":92939},{""event"":""blur"",""trial"":9,""time"":123040},{""event"":""focus"",""trial"":9,""time"":135179},{""event"":""blur"",""trial"":10,""time"":137224},{""event"":""focus"",""trial"":10,""time"":145296}]",NA,NA,NA,NA,NA,NA,#EDC948,#46d3c8,10,0,1,null,null,null,37,1,285.90000009536743,10,1,practice,NA,NA,NA,NA,NA,NA,NA,NA,NA,NA
audio-instructions,15,174711,0.0-5.0-6.0,voc_e2,12287,"[{""event"":""fullscreenenter"",""trial"":1,""time"":2233},{""event"":""blur"",""trial"":9,""time"":62984},{""event"":""focus"",""trial"":9,""time"":92939},{""event"":""blur"",""trial"":9,""time"":123040},{""event"":""focus"",""trial"":9,""time"":135179},{""event"":""blur"",""trial"":10,""time"":137224},{""event"":""focus"",""trial"":10,""time"":145296}]",NA,1563.5,static/audio/instructions6.wav,NA,0,NA,NA,NA,NA,NA,NA,NA,NA,NA,NA,NA,NA,NA,NA,NA,NA,NA,NA,NA,NA,NA,NA,NA,NA,NA
audio-instructions,16,194949,0.0-5.0-7.0,voc_e2,12287,"[{""event"":""fullscreenenter"",""trial"":1,""time"":2233},{""event"":""blur"",""trial"":9,""time"":62984},{""event"":""focus"",""trial"":9,""time"":92939},{""event"":""blur"",""trial"":9,""time"":123040},{""event"":""focus"",""trial"":9,""time"":135179},{""event"":""blur"",""trial"":10,""time"":137224},{""event"":""focus"",""trial"":10,""time"":145296}]",NA,1038.7000002861023,static/audio/instructions7.wav,NA,0,NA,NA,NA,NA,NA,NA,NA,NA,NA,NA,NA,NA,NA,NA,NA,NA,NA,NA,NA,NA,NA,NA,NA,NA,NA
audio-instructions,17,207757,0.0-5.0-8.0,voc_e2,12287,"[{""event"":""fullscreenenter"",""trial"":1,""time"":2233},{""event"":""blur"",""trial"":9,""time"":62984},{""event"":""focus"",""trial"":9,""time"":92939},{""event"":""blur"",""trial"":9,""time"":123040},{""event"":""focus"",""trial"":9,""time"":135179},{""event"":""blur"",""trial"":10,""time"":137224},{""event"":""focus"",""trial"":10,""time"":145296}]",NA,3335.300000190735,static/audio/instructions8.wav,NA,0,NA,NA,NA,NA,NA,NA,NA,NA,NA,NA,NA,NA,NA,NA,NA,NA,NA,NA,NA,NA,NA,NA,NA,NA,NA
fcp-comprehension,18,219115,0.0-5.0-9.0,voc_e2,12287,"[{""event"":""fullscreenenter"",""trial"":1,""time"":2233},{""event"":""blur"",""trial"":9,""time"":62984},{""event"":""focus"",""trial"":9,""time"":92939},{""event"":""blur"",""trial"":9,""time"":123040},{""event"":""focus"",""trial"":9,""time"":135179},{""event"":""blur"",""trial"":10,""time"":137224},{""event"":""focus"",""trial"":10,""time"":145296}]",NA,11351.699999809263,NA,NA,NA,NA,NA,NA,NA,NA,NA,NA,NA,NA,NA,NA,NA,NA,NA,NA,"false,true",1,NA,NA,NA,NA,NA,NA,NA,NA
audio-instructions,19,225431,0.0-5.1-0.1,voc_e2,12287,"[{""event"":""fullscreenenter"",""trial"":1,""time"":2233},{""event"":""blur"",""trial"":9,""time"":62984},{""event"":""focus"",""trial"":9,""time"":92939},{""event"":""blur"",""trial"":9,""time"":123040},{""event"":""focus"",""trial"":9,""time"":135179},{""event"":""blur"",""trial"":10,""time"":137224},{""event"":""focus"",""trial"":10,""time"":145296}]",NA,1531.6999998092651,static/audio/instructions1.wav,NA,0,NA,NA,NA,NA,NA,NA,NA,NA,NA,NA,NA,NA,NA,NA,NA,NA,NA,NA,NA,NA,NA,NA,NA,NA,NA
audio-instructions,20,698768,0.0-5.1-1.1,voc_e2,12287,"[{""event"":""fullscreenenter"",""trial"":1,""time"":2233},{""event"":""blur"",""trial"":9,""time"":62984},{""event"":""focus"",""trial"":9,""time"":92939},{""event"":""blur"",""trial"":9,""time"":123040},{""event"":""focus"",""trial"":9,""time"":135179},{""event"":""blur"",""trial"":10,""time"":137224},{""event"":""focus"",""trial"":10,""time"":145296},{""event"":""blur"",""trial"":20,""time"":356604},{""event"":""focus"",""trial"":20,""time"":443677},{""event"":""blur"",""trial"":20,""time"":630078},{""event"":""focus"",""trial"":20,""time"":680572},{""event"":""blur"",""trial"":20,""time"":680925},{""event"":""focus"",""trial"":20,""time"":687880}]",NA,466586.5,static/audio/instructions2.wav,NA,0,NA,NA,NA,NA,NA,NA,NA,NA,NA,NA,NA,NA,NA,NA,NA,NA,NA,NA,NA,NA,NA,NA,NA,NA,NA
audio-instructions,21,705605,0.0-5.1-2.1,voc_e2,12287,"[{""event"":""fullscreenenter"",""trial"":1,""time"":2233},{""event"":""blur"",""trial"":9,""time"":62984},{""event"":""focus"",""trial"":9,""time"":92939},{""event"":""blur"",""trial"":9,""time"":123040},{""event"":""focus"",""trial"":9,""time"":135179},{""event"":""blur"",""trial"":10,""time"":137224},{""event"":""focus"",""trial"":10,""time"":145296},{""event"":""blur"",""trial"":20,""time"":356604},{""event"":""focus"",""trial"":20,""time"":443677},{""event"":""blur"",""trial"":20,""time"":630078},{""event"":""focus"",""trial"":20,""time"":680572},{""event"":""blur"",""trial"":20,""time"":680925},{""event"":""focus"",""trial"":20,""time"":687880}]",NA,1012.5999999046326,static/audio/instructions3.wav,NA,0,NA,NA,NA,NA,NA,NA,NA,NA,NA,NA,NA,NA,NA,NA,NA,NA,NA,NA,NA,NA,NA,NA,NA,NA,NA
audio-instructions,22,720923,0.0-5.1-3.1,voc_e2,12287,"[{""event"":""fullscreenenter"",""trial"":1,""time"":2233},{""event"":""blur"",""trial"":9,""time"":62984},{""event"":""focus"",""trial"":9,""time"":92939},{""event"":""blur"",""trial"":9,""time"":123040},{""event"":""focus"",""trial"":9,""time"":135179},{""event"":""blur"",""trial"":10,""time"":137224},{""event"":""focus"",""trial"":10,""time"":145296},{""event"":""blur"",""trial"":20,""time"":356604},{""event"":""focus"",""trial"":20,""time"":443677},{""event"":""blur"",""trial"":20,""time"":630078},{""event"":""focus"",""trial"":20,""time"":680572},{""event"":""blur"",""trial"":20,""time"":680925},{""event"":""focus"",""trial"":20,""time"":687880}]",NA,2091.099999904633,static/audio/instructions4.wav,NA,0,NA,NA,NA,NA,NA,NA,NA,NA,NA,NA,NA,NA,NA,NA,NA,NA,NA,NA,NA,NA,NA,NA,NA,NA,NA
audio-instructions,23,730876,0.0-5.1-4.1,voc_e2,12287,"[{""event"":""fullscreenenter"",""trial"":1,""time"":2233},{""event"":""blur"",""trial"":9,""time"":62984},{""event"":""focus"",""trial"":9,""time"":92939},{""event"":""blur"",""trial"":9,""time"":123040},{""event"":""focus"",""trial"":9,""time"":135179},{""event"":""blur"",""trial"":10,""time"":137224},{""event"":""focus"",""trial"":10,""time"":145296},{""event"":""blur"",""trial"":20,""time"":356604},{""event"":""focus"",""trial"":20,""time"":443677},{""event"":""blur"",""trial"":20,""time"":630078},{""event"":""focus"",""trial"":20,""time"":680572},{""event"":""blur"",""trial"":20,""time"":680925},{""event"":""focus"",""trial"":20,""time"":687880}]",NA,562.0999999046326,static/audio/instructions5.wav,NA,0,NA,NA,NA,NA,NA,NA,NA,NA,NA,NA,NA,NA,NA,NA,NA,NA,NA,NA,NA,NA,NA,NA,NA,NA,NA
fcp-practice,24,733636,0.0-5.1-5.1-0.1,voc_e2,12287,"[{""event"":""fullscreenenter"",""trial"":1,""time"":2233},{""event"":""blur"",""trial"":9,""time"":62984},{""event"":""focus"",""trial"":9,""time"":92939},{""event"":""blur"",""trial"":9,""time"":123040},{""event"":""focus"",""trial"":9,""time"":135179},{""event"":""blur"",""trial"":10,""time"":137224},{""event"":""focus"",""trial"":10,""time"":145296},{""event"":""blur"",""trial"":20,""time"":356604},{""event"":""focus"",""trial"":20,""time"":443677},{""event"":""blur"",""trial"":20,""time"":630078},{""event"":""focus"",""trial"":20,""time"":680572},{""event"":""blur"",""trial"":20,""time"":680925},{""event"":""focus"",""trial"":20,""time"":687880}]",NA,NA,NA,NA,NA,NA,#EDC948,#46d3c8,10,0,1,null,null,null,37,1,1237,10,1,practice,NA,NA,NA,NA,NA,NA,NA,NA,NA,NA
fcp-practice,25,735733,0.0-5.1-5.1-1.1,voc_e2,12287,"[{""event"":""fullscreenenter"",""trial"":1,""time"":2233},{""event"":""blur"",""trial"":9,""time"":62984},{""event"":""focus"",""trial"":9,""time"":92939},{""event"":""blur"",""trial"":9,""time"":123040},{""event"":""focus"",""trial"":9,""time"":135179},{""event"":""blur"",""trial"":10,""time"":137224},{""event"":""focus"",""trial"":10,""time"":145296},{""event"":""blur"",""trial"":20,""time"":356604},{""event"":""focus"",""trial"":20,""time"":443677},{""event"":""blur"",""trial"":20,""time"":630078},{""event"":""focus"",""trial"":20,""time"":680572},{""event"":""blur"",""trial"":20,""time"":680925},{""event"":""focus"",""trial"":20,""time"":687880}]",NA,NA,NA,NA,NA,NA,#EDC948,#46d3c8,10,0,1,null,null,null,37,1,588,10,1,practice,NA,NA,NA,NA,NA,NA,NA,NA,NA,NA
fcp-practice,26,737726,0.0-5.1-5.1-2.1,voc_e2,12287,"[{""event"":""fullscreenenter"",""trial"":1,""time"":2233},{""event"":""blur"",""trial"":9,""time"":62984},{""event"":""focus"",""trial"":9,""time"":92939},{""event"":""blur"",""trial"":9,""time"":123040},{""event"":""focus"",""trial"":9,""time"":135179},{""event"":""blur"",""trial"":10,""time"":137224},{""event"":""focus"",""trial"":10,""time"":145296},{""event"":""blur"",""trial"":20,""time"":356604},{""event"":""focus"",""trial"":20,""time"":443677},{""event"":""blur"",""trial"":20,""time"":630078},{""event"":""focus"",""trial"":20,""time"":680572},{""event"":""blur"",""trial"":20,""time"":680925},{""event"":""focus"",""trial"":20,""time"":687880}]",NA,NA,NA,NA,NA,NA,#EDC948,#46d3c8,0,10,1,null,null,null,37,1,486.69999980926514,0,1,practice,NA,NA,NA,NA,NA,NA,NA,NA,NA,NA
fcp-practice,27,743111,0.0-5.1-5.1-3.1,voc_e2,12287,"[{""event"":""fullscreenenter"",""trial"":1,""time"":2233},{""event"":""blur"",""trial"":9,""time"":62984},{""event"":""focus"",""trial"":9,""time"":92939},{""event"":""blur"",""trial"":9,""time"":123040},{""event"":""focus"",""trial"":9,""time"":135179},{""event"":""blur"",""trial"":10,""time"":137224},{""event"":""focus"",""trial"":10,""time"":145296},{""event"":""blur"",""trial"":20,""time"":356604},{""event"":""focus"",""trial"":20,""time"":443677},{""event"":""blur"",""trial"":20,""time"":630078},{""event"":""focus"",""trial"":20,""time"":680572},{""event"":""blur"",""trial"":20,""time"":680925},{""event"":""focus"",""trial"":20,""time"":687880}]",NA,NA,NA,NA,NA,NA,#EDC948,#46d3c8,10,0,1,null,null,null,37,1,3878.9000000953674,10,1,practice,NA,NA,NA,NA,NA,NA,NA,NA,NA,NA
fcp-practice,28,745118,0.0-5.1-5.1-4.1,voc_e2,12287,"[{""event"":""fullscreenenter"",""trial"":1,""time"":2233},{""event"":""blur"",""trial"":9,""time"":62984},{""event"":""focus"",""trial"":9,""time"":92939},{""event"":""blur"",""trial"":9,""time"":123040},{""event"":""focus"",""trial"":9,""time"":135179},{""event"":""blur"",""trial"":10,""time"":137224},{""event"":""focus"",""trial"":10,""time"":145296},{""event"":""blur"",""trial"":20,""time"":356604},{""event"":""focus"",""trial"":20,""time"":443677},{""event"":""blur"",""trial"":20,""time"":630078},{""event"":""focus"",""trial"":20,""time"":680572},{""event"":""blur"",""trial"":20,""time"":680925},{""event"":""focus"",""trial"":20,""time"":687880}]",NA,NA,NA,NA,NA,NA,#EDC948,#46d3c8,10,0,1,null,null,null,37,1,500.90000009536743,10,1,practice,NA,NA,NA,NA,NA,NA,NA,NA,NA,NA
audio-instructions,29,764700,0.0-5.1-6.1,voc_e2,12287,"[{""event"":""fullscreenenter"",""trial"":1,""time"":2233},{""event"":""blur"",""trial"":9,""time"":62984},{""event"":""focus"",""trial"":9,""time"":92939},{""event"":""blur"",""trial"":9,""time"":123040},{""event"":""focus"",""trial"":9,""time"":135179},{""event"":""blur"",""trial"":10,""time"":137224},{""event"":""focus"",""trial"":10,""time"":145296},{""event"":""blur"",""trial"":20,""time"":356604},{""event"":""focus"",""trial"":20,""time"":443677},{""event"":""blur"",""trial"":20,""time"":630078},{""event"":""focus"",""trial"":20,""time"":680572},{""event"":""blur"",""trial"":20,""time"":680925},{""event"":""focus"",""trial"":20,""time"":687880}]",NA,1574.7999997138977,static/audio/instructions6.wav,NA,0,NA,NA,NA,NA,NA,NA,NA,NA,NA,NA,NA,NA,NA,NA,NA,NA,NA,NA,NA,NA,NA,NA,NA,NA,NA
audio-instructions,30,789186,0.0-5.1-7.1,voc_e2,12287,"[{""event"":""fullscreenenter"",""trial"":1,""time"":2233},{""event"":""blur"",""trial"":9,""time"":62984},{""event"":""focus"",""trial"":9,""time"":92939},{""event"":""blur"",""trial"":9,""time"":123040},{""event"":""focus"",""trial"":9,""time"":135179},{""event"":""blur"",""trial"":10,""time"":137224},{""event"":""focus"",""trial"":10,""time"":145296},{""event"":""blur"",""trial"":20,""time"":356604},{""event"":""focus"",""trial"":20,""time"":443677},{""event"":""blur"",""trial"":20,""time"":630078},{""event"":""focus"",""trial"":20,""time"":680572},{""event"":""blur"",""trial"":20,""time"":680925},{""event"":""focus"",""trial"":20,""time"":687880}]",NA,5281.699999809265,static/audio/instructions7.wav,NA,0,NA,NA,NA,NA,NA,NA,NA,NA,NA,NA,NA,NA,NA,NA,NA,NA,NA,NA,NA,NA,NA,NA,NA,NA,NA
audio-instructions,31,800123,0.0-5.1-8.1,voc_e2,12287,"[{""event"":""fullscreenenter"",""trial"":1,""time"":2233},{""event"":""blur"",""trial"":9,""time"":62984},{""event"":""focus"",""trial"":9,""time"":92939},{""event"":""blur"",""trial"":9,""time"":123040},{""event"":""focus"",""trial"":9,""time"":135179},{""event"":""blur"",""trial"":10,""time"":137224},{""event"":""focus"",""trial"":10,""time"":145296},{""event"":""blur"",""trial"":20,""time"":356604},{""event"":""focus"",""trial"":20,""time"":443677},{""event"":""blur"",""trial"":20,""time"":630078},{""event"":""focus"",""trial"":20,""time"":680572},{""event"":""blur"",""trial"":20,""time"":680925},{""event"":""focus"",""trial"":20,""time"":687880}]",NA,1462.0999999046326,static/audio/instructions8.wav,NA,0,NA,NA,NA,NA,NA,NA,NA,NA,NA,NA,NA,NA,NA,NA,NA,NA,NA,NA,NA,NA,NA,NA,NA,NA,NA
fcp-comprehension,32,804564,0.0-5.1-9.1,voc_e2,12287,"[{""event"":""fullscreenenter"",""trial"":1,""time"":2233},{""event"":""blur"",""trial"":9,""time"":62984},{""event"":""focus"",""trial"":9,""time"":92939},{""event"":""blur"",""trial"":9,""time"":123040},{""event"":""focus"",""trial"":9,""time"":135179},{""event"":""blur"",""trial"":10,""time"":137224},{""event"":""focus"",""trial"":10,""time"":145296},{""event"":""blur"",""trial"":20,""time"":356604},{""event"":""focus"",""trial"":20,""time"":443677},{""event"":""blur"",""trial"":20,""time"":630078},{""event"":""focus"",""trial"":20,""time"":680572},{""event"":""blur"",""trial"":20,""time"":680925},{""event"":""focus"",""trial"":20,""time"":687880}]",NA,4432.199999809265,NA,NA,NA,NA,NA,NA,NA,NA,NA,NA,NA,NA,NA,NA,NA,NA,NA,NA,"false,true",1,NA,NA,NA,NA,NA,NA,NA,NA
audio-instructions,33,813878,0.0-5.2-0.2,voc_e2,12287,"[{""event"":""fullscreenenter"",""trial"":1,""time"":2233},{""event"":""blur"",""trial"":9,""time"":62984},{""event"":""focus"",""trial"":9,""time"":92939},{""event"":""blur"",""trial"":9,""time"":123040},{""event"":""focus"",""trial"":9,""time"":135179},{""event"":""blur"",""trial"":10,""time"":137224},{""event"":""focus"",""trial"":10,""time"":145296},{""event"":""blur"",""trial"":20,""time"":356604},{""event"":""focus"",""trial"":20,""time"":443677},{""event"":""blur"",""trial"":20,""time"":630078},{""event"":""focus"",""trial"":20,""time"":680572},{""event"":""blur"",""trial"":20,""time"":680925},{""event"":""focus"",""trial"":20,""time"":687880}]",NA,4534.400000095367,static/audio/instructions1.wav,NA,0,NA,NA,NA,NA,NA,NA,NA,NA,NA,NA,NA,NA,NA,NA,NA,NA,NA,NA,NA,NA,NA,NA,NA,NA,NA
audio-instructions,34,821717,0.0-5.2-1.2,voc_e2,12287,"[{""event"":""fullscreenenter"",""trial"":1,""time"":2233},{""event"":""blur"",""trial"":9,""time"":62984},{""event"":""focus"",""trial"":9,""time"":92939},{""event"":""blur"",""trial"":9,""time"":123040},{""event"":""focus"",""trial"":9,""time"":135179},{""event"":""blur"",""trial"":10,""time"":137224},{""event"":""focus"",""trial"":10,""time"":145296},{""event"":""blur"",""trial"":20,""time"":356604},{""event"":""focus"",""trial"":20,""time"":443677},{""event"":""blur"",""trial"":20,""time"":630078},{""event"":""focus"",""trial"":20,""time"":680572},{""event"":""blur"",""trial"":20,""time"":680925},{""event"":""focus"",""trial"":20,""time"":687880}]",NA,1098.9000000953674,static/audio/instructions2.wav,NA,0,NA,NA,NA,NA,NA,NA,NA,NA,NA,NA,NA,NA,NA,NA,NA,NA,NA,NA,NA,NA,NA,NA,NA,NA,NA
audio-instructions,35,828694,0.0-5.2-2.2,voc_e2,12287,"[{""event"":""fullscreenenter"",""trial"":1,""time"":2233},{""event"":""blur"",""trial"":9,""time"":62984},{""event"":""focus"",""trial"":9,""time"":92939},{""event"":""blur"",""trial"":9,""time"":123040},{""event"":""focus"",""trial"":9,""time"":135179},{""event"":""blur"",""trial"":10,""time"":137224},{""event"":""focus"",""trial"":10,""time"":145296},{""event"":""blur"",""trial"":20,""time"":356604},{""event"":""focus"",""trial"":20,""time"":443677},{""event"":""blur"",""trial"":20,""time"":630078},{""event"":""focus"",""trial"":20,""time"":680572},{""event"":""blur"",""trial"":20,""time"":680925},{""event"":""focus"",""trial"":20,""time"":687880}]",NA,1173.8000001907349,static/audio/instructions3.wav,NA,0,NA,NA,NA,NA,NA,NA,NA,NA,NA,NA,NA,NA,NA,NA,NA,NA,NA,NA,NA,NA,NA,NA,NA,NA,NA
audio-instructions,36,844617,0.0-5.2-3.2,voc_e2,12287,"[{""event"":""fullscreenenter"",""trial"":1,""time"":2233},{""event"":""blur"",""trial"":9,""time"":62984},{""event"":""focus"",""trial"":9,""time"":92939},{""event"":""blur"",""trial"":9,""time"":123040},{""event"":""focus"",""trial"":9,""time"":135179},{""event"":""blur"",""trial"":10,""time"":137224},{""event"":""focus"",""trial"":10,""time"":145296},{""event"":""blur"",""trial"":20,""time"":356604},{""event"":""focus"",""trial"":20,""time"":443677},{""event"":""blur"",""trial"":20,""time"":630078},{""event"":""focus"",""trial"":20,""time"":680572},{""event"":""blur"",""trial"":20,""time"":680925},{""event"":""focus"",""trial"":20,""time"":687880}]",NA,2692.6000003814697,static/audio/instructions4.wav,NA,0,NA,NA,NA,NA,NA,NA,NA,NA,NA,NA,NA,NA,NA,NA,NA,NA,NA,NA,NA,NA,NA,NA,NA,NA,NA
audio-instructions,37,854521,0.0-5.2-4.2,voc_e2,12287,"[{""event"":""fullscreenenter"",""trial"":1,""time"":2233},{""event"":""blur"",""trial"":9,""time"":62984},{""event"":""focus"",""trial"":9,""time"":92939},{""event"":""blur"",""trial"":9,""time"":123040},{""event"":""focus"",""trial"":9,""time"":135179},{""event"":""blur"",""trial"":10,""time"":137224},{""event"":""focus"",""trial"":10,""time"":145296},{""event"":""blur"",""trial"":20,""time"":356604},{""event"":""focus"",""trial"":20,""time"":443677},{""event"":""blur"",""trial"":20,""time"":630078},{""event"":""focus"",""trial"":20,""time"":680572},{""event"":""blur"",""trial"":20,""time"":680925},{""event"":""focus"",""trial"":20,""time"":687880}]",NA,517.4000000953674,static/audio/instructions5.wav,NA,0,NA,NA,NA,NA,NA,NA,NA,NA,NA,NA,NA,NA,NA,NA,NA,NA,NA,NA,NA,NA,NA,NA,NA,NA,NA
fcp-practice,38,857283,0.0-5.2-5.2-0.2,voc_e2,12287,"[{""event"":""fullscreenenter"",""trial"":1,""time"":2233},{""event"":""blur"",""trial"":9,""time"":62984},{""event"":""focus"",""trial"":9,""time"":92939},{""event"":""blur"",""trial"":9,""time"":123040},{""event"":""focus"",""trial"":9,""time"":135179},{""event"":""blur"",""trial"":10,""time"":137224},{""event"":""focus"",""trial"":10,""time"":145296},{""event"":""blur"",""trial"":20,""time"":356604},{""event"":""focus"",""trial"":20,""time"":443677},{""event"":""blur"",""trial"":20,""time"":630078},{""event"":""focus"",""trial"":20,""time"":680572},{""event"":""blur"",""trial"":20,""time"":680925},{""event"":""focus"",""trial"":20,""time"":687880}]",NA,NA,NA,NA,NA,NA,#EDC948,#46d3c8,10,0,1,null,null,null,37,1,1252.5,10,1,practice,NA,NA,NA,NA,NA,NA,NA,NA,NA,NA
fcp-practice,39,859044,0.0-5.2-5.2-1.2,voc_e2,12287,"[{""event"":""fullscreenenter"",""trial"":1,""time"":2233},{""event"":""blur"",""trial"":9,""time"":62984},{""event"":""focus"",""trial"":9,""time"":92939},{""event"":""blur"",""trial"":9,""time"":123040},{""event"":""focus"",""trial"":9,""time"":135179},{""event"":""blur"",""trial"":10,""time"":137224},{""event"":""focus"",""trial"":10,""time"":145296},{""event"":""blur"",""trial"":20,""time"":356604},{""event"":""focus"",""trial"":20,""time"":443677},{""event"":""blur"",""trial"":20,""time"":630078},{""event"":""focus"",""trial"":20,""time"":680572},{""event"":""blur"",""trial"":20,""time"":680925},{""event"":""focus"",""trial"":20,""time"":687880}]",NA,NA,NA,NA,NA,NA,#EDC948,#46d3c8,10,0,1,null,null,null,37,1,253.09999990463257,10,1,practice,NA,NA,NA,NA,NA,NA,NA,NA,NA,NA
fcp-practice,40,860827,0.0-5.2-5.2-2.2,voc_e2,12287,"[{""event"":""fullscreenenter"",""trial"":1,""time"":2233},{""event"":""blur"",""trial"":9,""time"":62984},{""event"":""focus"",""trial"":9,""time"":92939},{""event"":""blur"",""trial"":9,""time"":123040},{""event"":""focus"",""trial"":9,""time"":135179},{""event"":""blur"",""trial"":10,""time"":137224},{""event"":""focus"",""trial"":10,""time"":145296},{""event"":""blur"",""trial"":20,""time"":356604},{""event"":""focus"",""trial"":20,""time"":443677},{""event"":""blur"",""trial"":20,""time"":630078},{""event"":""focus"",""trial"":20,""time"":680572},{""event"":""blur"",""trial"":20,""time"":680925},{""event"":""focus"",""trial"":20,""time"":687880}]",NA,NA,NA,NA,NA,NA,#EDC948,#46d3c8,0,10,1,null,null,null,37,1,275.90000009536743,0,1,practice,NA,NA,NA,NA,NA,NA,NA,NA,NA,NA
fcp-practice,41,862583,0.0-5.2-5.2-3.2,voc_e2,12287,"[{""event"":""fullscreenenter"",""trial"":1,""time"":2233},{""event"":""blur"",""trial"":9,""time"":62984},{""event"":""focus"",""trial"":9,""time"":92939},{""event"":""blur"",""trial"":9,""time"":123040},{""event"":""focus"",""trial"":9,""time"":135179},{""event"":""blur"",""trial"":10,""time"":137224},{""event"":""focus"",""trial"":10,""time"":145296},{""event"":""blur"",""trial"":20,""time"":356604},{""event"":""focus"",""trial"":20,""time"":443677},{""event"":""blur"",""trial"":20,""time"":630078},{""event"":""focus"",""trial"":20,""time"":680572},{""event"":""blur"",""trial"":20,""time"":680925},{""event"":""focus"",""trial"":20,""time"":687880}]",NA,NA,NA,NA,NA,NA,#EDC948,#46d3c8,10,0,1,null,null,null,37,1,249,10,1,practice,NA,NA,NA,NA,NA,NA,NA,NA,NA,NA
fcp-practice,42,864318,0.0-5.2-5.2-4.2,voc_e2,12287,"[{""event"":""fullscreenenter"",""trial"":1,""time"":2233},{""event"":""blur"",""trial"":9,""time"":62984},{""event"":""focus"",""trial"":9,""time"":92939},{""event"":""blur"",""trial"":9,""time"":123040},{""event"":""focus"",""trial"":9,""time"":135179},{""event"":""blur"",""trial"":10,""time"":137224},{""event"":""focus"",""trial"":10,""time"":145296},{""event"":""blur"",""trial"":20,""time"":356604},{""event"":""focus"",""trial"":20,""time"":443677},{""event"":""blur"",""trial"":20,""time"":630078},{""event"":""focus"",""trial"":20,""time"":680572},{""event"":""blur"",""trial"":20,""time"":680925},{""event"":""focus"",""trial"":20,""time"":687880}]",NA,NA,NA,NA,NA,NA,#EDC948,#46d3c8,10,0,1,null,null,null,37,1,227.2000002861023,10,1,practice,NA,NA,NA,NA,NA,NA,NA,NA,NA,NA
audio-instructions,43,911257,0.0-5.2-6.2,voc_e2,12287,"[{""event"":""fullscreenenter"",""trial"":1,""time"":2233},{""event"":""blur"",""trial"":9,""time"":62984},{""event"":""focus"",""trial"":9,""time"":92939},{""event"":""blur"",""trial"":9,""time"":123040},{""event"":""focus"",""trial"":9,""time"":135179},{""event"":""blur"",""trial"":10,""time"":137224},{""event"":""focus"",""trial"":10,""time"":145296},{""event"":""blur"",""trial"":20,""time"":356604},{""event"":""focus"",""trial"":20,""time"":443677},{""event"":""blur"",""trial"":20,""time"":630078},{""event"":""focus"",""trial"":20,""time"":680572},{""event"":""blur"",""trial"":20,""time"":680925},{""event"":""focus"",""trial"":20,""time"":687880},{""event"":""blur"",""trial"":43,""time"":886497},{""event"":""focus"",""trial"":43,""time"":895807},{""event"":""fullscreenexit"",""trial"":43,""time"":900392}]",NA,28930.199999809265,static/audio/instructions6.wav,NA,0,NA,NA,NA,NA,NA,NA,NA,NA,NA,NA,NA,NA,NA,NA,NA,NA,NA,NA,NA,NA,NA,NA,NA,NA,NA
audio-instructions,44,934222,0.0-5.2-7.2,voc_e2,12287,"[{""event"":""fullscreenenter"",""trial"":1,""time"":2233},{""event"":""blur"",""trial"":9,""time"":62984},{""event"":""focus"",""trial"":9,""time"":92939},{""event"":""blur"",""trial"":9,""time"":123040},{""event"":""focus"",""trial"":9,""time"":135179},{""event"":""blur"",""trial"":10,""time"":137224},{""event"":""focus"",""trial"":10,""time"":145296},{""event"":""blur"",""trial"":20,""time"":356604},{""event"":""focus"",""trial"":20,""time"":443677},{""event"":""blur"",""trial"":20,""time"":630078},{""event"":""focus"",""trial"":20,""time"":680572},{""event"":""blur"",""trial"":20,""time"":680925},{""event"":""focus"",""trial"":20,""time"":687880},{""event"":""blur"",""trial"":43,""time"":886497},{""event"":""focus"",""trial"":43,""time"":895807},{""event"":""fullscreenexit"",""trial"":43,""time"":900392}]",NA,3762.300000190735,static/audio/instructions7.wav,NA,0,NA,NA,NA,NA,NA,NA,NA,NA,NA,NA,NA,NA,NA,NA,NA,NA,NA,NA,NA,NA,NA,NA,NA,NA,NA
audio-instructions,45,944853,0.0-5.2-8.2,voc_e2,12287,"[{""event"":""fullscreenenter"",""trial"":1,""time"":2233},{""event"":""blur"",""trial"":9,""time"":62984},{""event"":""focus"",""trial"":9,""time"":92939},{""event"":""blur"",""trial"":9,""time"":123040},{""event"":""focus"",""trial"":9,""time"":135179},{""event"":""blur"",""trial"":10,""time"":137224},{""event"":""focus"",""trial"":10,""time"":145296},{""event"":""blur"",""trial"":20,""time"":356604},{""event"":""focus"",""trial"":20,""time"":443677},{""event"":""blur"",""trial"":20,""time"":630078},{""event"":""focus"",""trial"":20,""time"":680572},{""event"":""blur"",""trial"":20,""time"":680925},{""event"":""focus"",""trial"":20,""time"":687880},{""event"":""blur"",""trial"":43,""time"":886497},{""event"":""focus"",""trial"":43,""time"":895807},{""event"":""fullscreenexit"",""trial"":43,""time"":900392}]",NA,1157,static/audio/instructions8.wav,NA,0,NA,NA,NA,NA,NA,NA,NA,NA,NA,NA,NA,NA,NA,NA,NA,NA,NA,NA,NA,NA,NA,NA,NA,NA,NA
fcp-comprehension,46,952395,0.0-5.2-9.2,voc_e2,12287,"[{""event"":""fullscreenenter"",""trial"":1,""time"":2233},{""event"":""blur"",""trial"":9,""time"":62984},{""event"":""focus"",""trial"":9,""time"":92939},{""event"":""blur"",""trial"":9,""time"":123040},{""event"":""focus"",""trial"":9,""time"":135179},{""event"":""blur"",""trial"":10,""time"":137224},{""event"":""focus"",""trial"":10,""time"":145296},{""event"":""blur"",""trial"":20,""time"":356604},{""event"":""focus"",""trial"":20,""time"":443677},{""event"":""blur"",""trial"":20,""time"":630078},{""event"":""focus"",""trial"":20,""time"":680572},{""event"":""blur"",""trial"":20,""time"":680925},{""event"":""focus"",""trial"":20,""time"":687880},{""event"":""blur"",""trial"":43,""time"":886497},{""event"":""focus"",""trial"":43,""time"":895807},{""event"":""fullscreenexit"",""trial"":43,""time"":900392}]",NA,7538.099999904633,NA,NA,NA,NA,NA,NA,NA,NA,NA,NA,NA,NA,NA,NA,NA,NA,NA,NA,"true,true",0,NA,NA,NA,NA,NA,NA,NA,NA
audio-instructions,47,1007619,0.0-6.0-0.0,voc_e2,12287,"[{""event"":""fullscreenenter"",""trial"":1,""time"":2233},{""event"":""blur"",""trial"":9,""time"":62984},{""event"":""focus"",""trial"":9,""time"":92939},{""event"":""blur"",""trial"":9,""time"":123040},{""event"":""focus"",""trial"":9,""time"":135179},{""event"":""blur"",""trial"":10,""time"":137224},{""event"":""focus"",""trial"":10,""time"":145296},{""event"":""blur"",""trial"":20,""time"":356604},{""event"":""focus"",""trial"":20,""time"":443677},{""event"":""blur"",""trial"":20,""time"":630078},{""event"":""focus"",""trial"":20,""time"":680572},{""event"":""blur"",""trial"":20,""time"":680925},{""event"":""focus"",""trial"":20,""time"":687880},{""event"":""blur"",""trial"":43,""time"":886497},{""event"":""focus"",""trial"":43,""time"":895807},{""event"":""fullscreenexit"",""trial"":43,""time"":900392},{""event"":""blur"",""trial"":47,""time"":966368},{""event"":""focus"",""trial"":47,""time"":969086},{""event"":""blur"",""trial"":47,""time"":978919},{""event"":""focus"",""trial"":47,""time"":982062},{""event"":""blur"",""trial"":47,""time"":996705},{""event"":""focus"",""trial"":47,""time"":1001782}]",NA,49677.2000002861,static/audio/instructions9.wav,NA,0,NA,NA,NA,NA,NA,NA,NA,NA,NA,NA,NA,NA,NA,NA,NA,NA,NA,NA,NA,NA,NA,NA,NA,NA,NA
audio-instructions,48,1020974,0.0-6.0-1.0,voc_e2,12287,"[{""event"":""fullscreenenter"",""trial"":1,""time"":2233},{""event"":""blur"",""trial"":9,""time"":62984},{""event"":""focus"",""trial"":9,""time"":92939},{""event"":""blur"",""trial"":9,""time"":123040},{""event"":""focus"",""trial"":9,""time"":135179},{""event"":""blur"",""trial"":10,""time"":137224},{""event"":""focus"",""trial"":10,""time"":145296},{""event"":""blur"",""trial"":20,""time"":356604},{""event"":""focus"",""trial"":20,""time"":443677},{""event"":""blur"",""trial"":20,""time"":630078},{""event"":""focus"",""trial"":20,""time"":680572},{""event"":""blur"",""trial"":20,""time"":680925},{""event"":""focus"",""trial"":20,""time"":687880},{""event"":""blur"",""trial"":43,""time"":886497},{""event"":""focus"",""trial"":43,""time"":895807},{""event"":""fullscreenexit"",""trial"":43,""time"":900392},{""event"":""blur"",""trial"":47,""time"":966368},{""event"":""focus"",""trial"":47,""time"":969086},{""event"":""blur"",""trial"":47,""time"":978919},{""event"":""focus"",""trial"":47,""time"":982062},{""event"":""blur"",""trial"":47,""time"":996705},{""event"":""focus"",""trial"":47,""time"":1001782}]",NA,1242.8999996185305,static/audio/instructions10.wav,NA,0,NA,NA,NA,NA,NA,NA,NA,NA,NA,NA,NA,NA,NA,NA,NA,NA,NA,NA,NA,NA,NA,NA,NA,NA,NA
fcp-trial,49,1029370,0.0-6.0-2.0,voc_e2,12287,"[{""event"":""fullscreenenter"",""trial"":1,""time"":2233},{""event"":""blur"",""trial"":9,""time"":62984},{""event"":""focus"",""trial"":9,""time"":92939},{""event"":""blur"",""trial"":9,""time"":123040},{""event"":""focus"",""trial"":9,""time"":135179},{""event"":""blur"",""trial"":10,""time"":137224},{""event"":""focus"",""trial"":10,""time"":145296},{""event"":""blur"",""trial"":20,""time"":356604},{""event"":""focus"",""trial"":20,""time"":443677},{""event"":""blur"",""trial"":20,""time"":630078},{""event"":""focus"",""trial"":20,""time"":680572},{""event"":""blur"",""trial"":20,""time"":680925},{""event"":""focus"",""trial"":20,""time"":687880},{""event"":""blur"",""trial"":43,""time"":886497},{""event"":""focus"",""trial"":43,""time"":895807},{""event"":""fullscreenexit"",""trial"":43,""time"":900392},{""event"":""blur"",""trial"":47,""time"":966368},{""event"":""focus"",""trial"":47,""time"":969086},{""event"":""blur"",""trial"":47,""time"":978919},{""event"":""focus"",""trial"":47,""time"":982062},{""event"":""blur"",""trial"":47,""time"":996705},{""event"":""focus"",""trial"":47,""time"":1001782}]",NA,NA,NA,NA,NA,0,#EDC948,#46d3c8,10,10,1,38,1,5218.800000190735,37,1,1654.7999997138977,10,1,practice,NA,NA,NA,NA,NA,NA,NA,NA,NA,NA
audio-instructions,50,1046228,0.0-6.0-3.0,voc_e2,12287,"[{""event"":""fullscreenenter"",""trial"":1,""time"":2233},{""event"":""blur"",""trial"":9,""time"":62984},{""event"":""focus"",""trial"":9,""time"":92939},{""event"":""blur"",""trial"":9,""time"":123040},{""event"":""focus"",""trial"":9,""time"":135179},{""event"":""blur"",""trial"":10,""time"":137224},{""event"":""focus"",""trial"":10,""time"":145296},{""event"":""blur"",""trial"":20,""time"":356604},{""event"":""focus"",""trial"":20,""time"":443677},{""event"":""blur"",""trial"":20,""time"":630078},{""event"":""focus"",""trial"":20,""time"":680572},{""event"":""blur"",""trial"":20,""time"":680925},{""event"":""focus"",""trial"":20,""time"":687880},{""event"":""blur"",""trial"":43,""time"":886497},{""event"":""focus"",""trial"":43,""time"":895807},{""event"":""fullscreenexit"",""trial"":43,""time"":900392},{""event"":""blur"",""trial"":47,""time"":966368},{""event"":""focus"",""trial"":47,""time"":969086},{""event"":""blur"",""trial"":47,""time"":978919},{""event"":""focus"",""trial"":47,""time"":982062},{""event"":""blur"",""trial"":47,""time"":996705},{""event"":""focus"",""trial"":47,""time"":1001782}]",NA,5846.39999961853,static/audio/instructions11.wav,NA,0,NA,NA,NA,NA,NA,NA,NA,NA,NA,NA,NA,NA,NA,NA,NA,NA,NA,NA,NA,NA,NA,NA,NA,NA,NA
fcp-trial,51,1050753,0.0-6.0-4.0,voc_e2,12287,"[{""event"":""fullscreenenter"",""trial"":1,""time"":2233},{""event"":""blur"",""trial"":9,""time"":62984},{""event"":""focus"",""trial"":9,""time"":92939},{""event"":""blur"",""trial"":9,""time"":123040},{""event"":""focus"",""trial"":9,""time"":135179},{""event"":""blur"",""trial"":10,""time"":137224},{""event"":""focus"",""trial"":10,""time"":145296},{""event"":""blur"",""trial"":20,""time"":356604},{""event"":""focus"",""trial"":20,""time"":443677},{""event"":""blur"",""trial"":20,""time"":630078},{""event"":""focus"",""trial"":20,""time"":680572},{""event"":""blur"",""trial"":20,""time"":680925},{""event"":""focus"",""trial"":20,""time"":687880},{""event"":""blur"",""trial"":43,""time"":886497},{""event"":""focus"",""trial"":43,""time"":895807},{""event"":""fullscreenexit"",""trial"":43,""time"":900392},{""event"":""blur"",""trial"":47,""time"":966368},{""event"":""focus"",""trial"":47,""time"":969086},{""event"":""blur"",""trial"":47,""time"":978919},{""event"":""focus"",""trial"":47,""time"":982062},{""event"":""blur"",""trial"":47,""time"":996705},{""event"":""focus"",""trial"":47,""time"":1001782}]",NA,NA,NA,NA,NA,6,#EDC948,#46d3c8,10,10,1,40,0,1676.5,37,1,1339.1999998092651,10,1,practice,NA,NA,NA,NA,NA,NA,NA,NA,NA,NA
audio-instructions,52,1070647,0.0-6.0-5.0,voc_e2,12287,"[{""event"":""fullscreenenter"",""trial"":1,""time"":2233},{""event"":""blur"",""trial"":9,""time"":62984},{""event"":""focus"",""trial"":9,""time"":92939},{""event"":""blur"",""trial"":9,""time"":123040},{""event"":""focus"",""trial"":9,""time"":135179},{""event"":""blur"",""trial"":10,""time"":137224},{""event"":""focus"",""trial"":10,""time"":145296},{""event"":""blur"",""trial"":20,""time"":356604},{""event"":""focus"",""trial"":20,""time"":443677},{""event"":""blur"",""trial"":20,""time"":630078},{""event"":""focus"",""trial"":20,""time"":680572},{""event"":""blur"",""trial"":20,""time"":680925},{""event"":""focus"",""trial"":20,""time"":687880},{""event"":""blur"",""trial"":43,""time"":886497},{""event"":""focus"",""trial"":43,""time"":895807},{""event"":""fullscreenexit"",""trial"":43,""time"":900392},{""event"":""blur"",""trial"":47,""time"":966368},{""event"":""focus"",""trial"":47,""time"":969086},{""event"":""blur"",""trial"":47,""time"":978919},{""event"":""focus"",""trial"":47,""time"":982062},{""event"":""blur"",""trial"":47,""time"":996705},{""event"":""focus"",""trial"":47,""time"":1001782}]",NA,1202.2000002861023,static/audio/instructions12.wav,NA,0,NA,NA,NA,NA,NA,NA,NA,NA,NA,NA,NA,NA,NA,NA,NA,NA,NA,NA,NA,NA,NA,NA,NA,NA,NA
audio-instructions,53,1079540,0.0-6.0-6.0,voc_e2,12287,"[{""event"":""fullscreenenter"",""trial"":1,""time"":2233},{""event"":""blur"",""trial"":9,""time"":62984},{""event"":""focus"",""trial"":9,""time"":92939},{""event"":""blur"",""trial"":9,""time"":123040},{""event"":""focus"",""trial"":9,""time"":135179},{""event"":""blur"",""trial"":10,""time"":137224},{""event"":""focus"",""trial"":10,""time"":145296},{""event"":""blur"",""trial"":20,""time"":356604},{""event"":""focus"",""trial"":20,""time"":443677},{""event"":""blur"",""trial"":20,""time"":630078},{""event"":""focus"",""trial"":20,""time"":680572},{""event"":""blur"",""trial"":20,""time"":680925},{""event"":""focus"",""trial"":20,""time"":687880},{""event"":""blur"",""trial"":43,""time"":886497},{""event"":""focus"",""trial"":43,""time"":895807},{""event"":""fullscreenexit"",""trial"":43,""time"":900392},{""event"":""blur"",""trial"":47,""time"":966368},{""event"":""focus"",""trial"":47,""time"":969086},{""event"":""blur"",""trial"":47,""time"":978919},{""event"":""focus"",""trial"":47,""time"":982062},{""event"":""blur"",""trial"":47,""time"":996705},{""event"":""focus"",""trial"":47,""time"":1001782}]",NA,1297.1000003814695,static/audio/instructions13.wav,NA,0,NA,NA,NA,NA,NA,NA,NA,NA,NA,NA,NA,NA,NA,NA,NA,NA,NA,NA,NA,NA,NA,NA,NA,NA,NA
audio-instructions,54,1089881,0.0-6.0-7.0,voc_e2,12287,"[{""event"":""fullscreenenter"",""trial"":1,""time"":2233},{""event"":""blur"",""trial"":9,""time"":62984},{""event"":""focus"",""trial"":9,""time"":92939},{""event"":""blur"",""trial"":9,""time"":123040},{""event"":""focus"",""trial"":9,""time"":135179},{""event"":""blur"",""trial"":10,""time"":137224},{""event"":""focus"",""trial"":10,""time"":145296},{""event"":""blur"",""trial"":20,""time"":356604},{""event"":""focus"",""trial"":20,""time"":443677},{""event"":""blur"",""trial"":20,""time"":630078},{""event"":""focus"",""trial"":20,""time"":680572},{""event"":""blur"",""trial"":20,""time"":680925},{""event"":""focus"",""trial"":20,""time"":687880},{""event"":""blur"",""trial"":43,""time"":886497},{""event"":""focus"",""trial"":43,""time"":895807},{""event"":""fullscreenexit"",""trial"":43,""time"":900392},{""event"":""blur"",""trial"":47,""time"":966368},{""event"":""focus"",""trial"":47,""time"":969086},{""event"":""blur"",""trial"":47,""time"":978919},{""event"":""focus"",""trial"":47,""time"":982062},{""event"":""blur"",""trial"":47,""time"":996705},{""event"":""focus"",""trial"":47,""time"":1001782}]",NA,1892.7999997138977,static/audio/instructions14.wav,NA,0,NA,NA,NA,NA,NA,NA,NA,NA,NA,NA,NA,NA,NA,NA,NA,NA,NA,NA,NA,NA,NA,NA,NA,NA,NA
audio-instructions,55,1098397,0.0-7.0-0.0,voc_e2,12287,"[{""event"":""fullscreenenter"",""trial"":1,""time"":2233},{""event"":""blur"",""trial"":9,""time"":62984},{""event"":""focus"",""trial"":9,""time"":92939},{""event"":""blur"",""trial"":9,""time"":123040},{""event"":""focus"",""trial"":9,""time"":135179},{""event"":""blur"",""trial"":10,""time"":137224},{""event"":""focus"",""trial"":10,""time"":145296},{""event"":""blur"",""trial"":20,""time"":356604},{""event"":""focus"",""trial"":20,""time"":443677},{""event"":""blur"",""trial"":20,""time"":630078},{""event"":""focus"",""trial"":20,""time"":680572},{""event"":""blur"",""trial"":20,""time"":680925},{""event"":""focus"",""trial"":20,""time"":687880},{""event"":""blur"",""trial"":43,""time"":886497},{""event"":""focus"",""trial"":43,""time"":895807},{""event"":""fullscreenexit"",""trial"":43,""time"":900392},{""event"":""blur"",""trial"":47,""time"":966368},{""event"":""focus"",""trial"":47,""time"":969086},{""event"":""blur"",""trial"":47,""time"":978919},{""event"":""focus"",""trial"":47,""time"":982062},{""event"":""blur"",""trial"":47,""time"":996705},{""event"":""focus"",""trial"":47,""time"":1001782}]",NA,1604,static/audio/instructions15.wav,NA,0,NA,NA,NA,NA,NA,NA,NA,NA,NA,NA,NA,NA,NA,NA,NA,NA,NA,NA,NA,NA,NA,NA,NA,NA,NA
audio-instructions,56,1106857,0.0-7.0-1.0,voc_e2,12287,"[{""event"":""fullscreenenter"",""trial"":1,""time"":2233},{""event"":""blur"",""trial"":9,""time"":62984},{""event"":""focus"",""trial"":9,""time"":92939},{""event"":""blur"",""trial"":9,""time"":123040},{""event"":""focus"",""trial"":9,""time"":135179},{""event"":""blur"",""trial"":10,""time"":137224},{""event"":""focus"",""trial"":10,""time"":145296},{""event"":""blur"",""trial"":20,""time"":356604},{""event"":""focus"",""trial"":20,""time"":443677},{""event"":""blur"",""trial"":20,""time"":630078},{""event"":""focus"",""trial"":20,""time"":680572},{""event"":""blur"",""trial"":20,""time"":680925},{""event"":""focus"",""trial"":20,""time"":687880},{""event"":""blur"",""trial"":43,""time"":886497},{""event"":""focus"",""trial"":43,""time"":895807},{""event"":""fullscreenexit"",""trial"":43,""time"":900392},{""event"":""blur"",""trial"":47,""time"":966368},{""event"":""focus"",""trial"":47,""time"":969086},{""event"":""blur"",""trial"":47,""time"":978919},{""event"":""focus"",""trial"":47,""time"":982062},{""event"":""blur"",""trial"":47,""time"":996705},{""event"":""focus"",""trial"":47,""time"":1001782}]",NA,1632.3000001907349,static/audio/instructions16.wav,NA,0,NA,NA,NA,NA,NA,NA,NA,NA,NA,NA,NA,NA,NA,NA,NA,NA,NA,NA,NA,NA,NA,NA,NA,NA,NA
audio-instructions,57,1120651,0.0-7.0-2.0,voc_e2,12287,"[{""event"":""fullscreenenter"",""trial"":1,""time"":2233},{""event"":""blur"",""trial"":9,""time"":62984},{""event"":""focus"",""trial"":9,""time"":92939},{""event"":""blur"",""trial"":9,""time"":123040},{""event"":""focus"",""trial"":9,""time"":135179},{""event"":""blur"",""trial"":10,""time"":137224},{""event"":""focus"",""trial"":10,""time"":145296},{""event"":""blur"",""trial"":20,""time"":356604},{""event"":""focus"",""trial"":20,""time"":443677},{""event"":""blur"",""trial"":20,""time"":630078},{""event"":""focus"",""trial"":20,""time"":680572},{""event"":""blur"",""trial"":20,""time"":680925},{""event"":""focus"",""trial"":20,""time"":687880},{""event"":""blur"",""trial"":43,""time"":886497},{""event"":""focus"",""trial"":43,""time"":895807},{""event"":""fullscreenexit"",""trial"":43,""time"":900392},{""event"":""blur"",""trial"":47,""time"":966368},{""event"":""focus"",""trial"":47,""time"":969086},{""event"":""blur"",""trial"":47,""time"":978919},{""event"":""focus"",""trial"":47,""time"":982062},{""event"":""blur"",""trial"":47,""time"":996705},{""event"":""focus"",""trial"":47,""time"":1001782}]",NA,6114.60000038147,static/audio/instructions17.wav,NA,0,NA,NA,NA,NA,NA,NA,NA,NA,NA,NA,NA,NA,NA,NA,NA,NA,NA,NA,NA,NA,NA,NA,NA,NA,NA
audio-instructions,58,1131588,0.0-7.0-3.0,voc_e2,12287,"[{""event"":""fullscreenenter"",""trial"":1,""time"":2233},{""event"":""blur"",""trial"":9,""time"":62984},{""event"":""focus"",""trial"":9,""time"":92939},{""event"":""blur"",""trial"":9,""time"":123040},{""event"":""focus"",""trial"":9,""time"":135179},{""event"":""blur"",""trial"":10,""time"":137224},{""event"":""focus"",""trial"":10,""time"":145296},{""event"":""blur"",""trial"":20,""time"":356604},{""event"":""focus"",""trial"":20,""time"":443677},{""event"":""blur"",""trial"":20,""time"":630078},{""event"":""focus"",""trial"":20,""time"":680572},{""event"":""blur"",""trial"":20,""time"":680925},{""event"":""focus"",""trial"":20,""time"":687880},{""event"":""blur"",""trial"":43,""time"":886497},{""event"":""focus"",""trial"":43,""time"":895807},{""event"":""fullscreenexit"",""trial"":43,""time"":900392},{""event"":""blur"",""trial"":47,""time"":966368},{""event"":""focus"",""trial"":47,""time"":969086},{""event"":""blur"",""trial"":47,""time"":978919},{""event"":""focus"",""trial"":47,""time"":982062},{""event"":""blur"",""trial"":47,""time"":996705},{""event"":""focus"",""trial"":47,""time"":1001782}]",NA,3168.599999904633,static/audio/instructions18.wav,NA,0,NA,NA,NA,NA,NA,NA,NA,NA,NA,NA,NA,NA,NA,NA,NA,NA,NA,NA,NA,NA,NA,NA,NA,NA,NA
audio-instructions,59,1142545,0.0-7.0-4.0,voc_e2,12287,"[{""event"":""fullscreenenter"",""trial"":1,""time"":2233},{""event"":""blur"",""trial"":9,""time"":62984},{""event"":""focus"",""trial"":9,""time"":92939},{""event"":""blur"",""trial"":9,""time"":123040},{""event"":""focus"",""trial"":9,""time"":135179},{""event"":""blur"",""trial"":10,""time"":137224},{""event"":""focus"",""trial"":10,""time"":145296},{""event"":""blur"",""trial"":20,""time"":356604},{""event"":""focus"",""trial"":20,""time"":443677},{""event"":""blur"",""trial"":20,""time"":630078},{""event"":""focus"",""trial"":20,""time"":680572},{""event"":""blur"",""trial"":20,""time"":680925},{""event"":""focus"",""trial"":20,""time"":687880},{""event"":""blur"",""trial"":43,""time"":886497},{""event"":""focus"",""trial"":43,""time"":895807},{""event"":""fullscreenexit"",""trial"":43,""time"":900392},{""event"":""blur"",""trial"":47,""time"":966368},{""event"":""focus"",""trial"":47,""time"":969086},{""event"":""blur"",""trial"":47,""time"":978919},{""event"":""focus"",""trial"":47,""time"":982062},{""event"":""blur"",""trial"":47,""time"":996705},{""event"":""focus"",""trial"":47,""time"":1001782}]",NA,4216.199999809265,static/audio/instructions19.wav,NA,0,NA,NA,NA,NA,NA,NA,NA,NA,NA,NA,NA,NA,NA,NA,NA,NA,NA,NA,NA,NA,NA,NA,NA,NA,NA
fcp-comprehension,60,1166714,0.0-7.0-5.0,voc_e2,12287,"[{""event"":""fullscreenenter"",""trial"":1,""time"":2233},{""event"":""blur"",""trial"":9,""time"":62984},{""event"":""focus"",""trial"":9,""time"":92939},{""event"":""blur"",""trial"":9,""time"":123040},{""event"":""focus"",""trial"":9,""time"":135179},{""event"":""blur"",""trial"":10,""time"":137224},{""event"":""focus"",""trial"":10,""time"":145296},{""event"":""blur"",""trial"":20,""time"":356604},{""event"":""focus"",""trial"":20,""time"":443677},{""event"":""blur"",""trial"":20,""time"":630078},{""event"":""focus"",""trial"":20,""time"":680572},{""event"":""blur"",""trial"":20,""time"":680925},{""event"":""focus"",""trial"":20,""time"":687880},{""event"":""blur"",""trial"":43,""time"":886497},{""event"":""focus"",""trial"":43,""time"":895807},{""event"":""fullscreenexit"",""trial"":43,""time"":900392},{""event"":""blur"",""trial"":47,""time"":966368},{""event"":""focus"",""trial"":47,""time"":969086},{""event"":""blur"",""trial"":47,""time"":978919},{""event"":""focus"",""trial"":47,""time"":982062},{""event"":""blur"",""trial"":47,""time"":996705},{""event"":""focus"",""trial"":47,""time"":1001782}]",NA,24163.5,NA,NA,NA,NA,NA,NA,NA,NA,NA,NA,NA,NA,NA,NA,NA,NA,NA,NA,"false,true,false,true",1,NA,NA,NA,NA,NA,NA,NA,NA
audio-instructions,61,1175019,0.0-7.1-0.1,voc_e2,12287,"[{""event"":""fullscreenenter"",""trial"":1,""time"":2233},{""event"":""blur"",""trial"":9,""time"":62984},{""event"":""focus"",""trial"":9,""time"":92939},{""event"":""blur"",""trial"":9,""time"":123040},{""event"":""focus"",""trial"":9,""time"":135179},{""event"":""blur"",""trial"":10,""time"":137224},{""event"":""focus"",""trial"":10,""time"":145296},{""event"":""blur"",""trial"":20,""time"":356604},{""event"":""focus"",""trial"":20,""time"":443677},{""event"":""blur"",""trial"":20,""time"":630078},{""event"":""focus"",""trial"":20,""time"":680572},{""event"":""blur"",""trial"":20,""time"":680925},{""event"":""focus"",""trial"":20,""time"":687880},{""event"":""blur"",""trial"":43,""time"":886497},{""event"":""focus"",""trial"":43,""time"":895807},{""event"":""fullscreenexit"",""trial"":43,""time"":900392},{""event"":""blur"",""trial"":47,""time"":966368},{""event"":""focus"",""trial"":47,""time"":969086},{""event"":""blur"",""trial"":47,""time"":978919},{""event"":""focus"",""trial"":47,""time"":982062},{""event"":""blur"",""trial"":47,""time"":996705},{""event"":""focus"",""trial"":47,""time"":1001782},{""event"":""blur"",""trial"":61,""time"":1172118},{""event"":""focus"",""trial"":61,""time"":1174094}]",NA,1389.1999998092651,static/audio/instructions15.wav,NA,0,NA,NA,NA,NA,NA,NA,NA,NA,NA,NA,NA,NA,NA,NA,NA,NA,NA,NA,NA,NA,NA,NA,NA,NA,NA
audio-instructions,62,1186221,0.0-7.1-1.1,voc_e2,12287,"[{""event"":""fullscreenenter"",""trial"":1,""time"":2233},{""event"":""blur"",""trial"":9,""time"":62984},{""event"":""focus"",""trial"":9,""time"":92939},{""event"":""blur"",""trial"":9,""time"":123040},{""event"":""focus"",""trial"":9,""time"":135179},{""event"":""blur"",""trial"":10,""time"":137224},{""event"":""focus"",""trial"":10,""time"":145296},{""event"":""blur"",""trial"":20,""time"":356604},{""event"":""focus"",""trial"":20,""time"":443677},{""event"":""blur"",""trial"":20,""time"":630078},{""event"":""focus"",""trial"":20,""time"":680572},{""event"":""blur"",""trial"":20,""time"":680925},{""event"":""focus"",""trial"":20,""time"":687880},{""event"":""blur"",""trial"":43,""time"":886497},{""event"":""focus"",""trial"":43,""time"":895807},{""event"":""fullscreenexit"",""trial"":43,""time"":900392},{""event"":""blur"",""trial"":47,""time"":966368},{""event"":""focus"",""trial"":47,""time"":969086},{""event"":""blur"",""trial"":47,""time"":978919},{""event"":""focus"",""trial"":47,""time"":982062},{""event"":""blur"",""trial"":47,""time"":996705},{""event"":""focus"",""trial"":47,""time"":1001782},{""event"":""blur"",""trial"":61,""time"":1172118},{""event"":""focus"",""trial"":61,""time"":1174094}]",NA,4371.900000095367,static/audio/instructions16.wav,NA,0,NA,NA,NA,NA,NA,NA,NA,NA,NA,NA,NA,NA,NA,NA,NA,NA,NA,NA,NA,NA,NA,NA,NA,NA,NA
audio-instructions,63,1194745,0.0-7.1-2.1,voc_e2,12287,"[{""event"":""fullscreenenter"",""trial"":1,""time"":2233},{""event"":""blur"",""trial"":9,""time"":62984},{""event"":""focus"",""trial"":9,""time"":92939},{""event"":""blur"",""trial"":9,""time"":123040},{""event"":""focus"",""trial"":9,""time"":135179},{""event"":""blur"",""trial"":10,""time"":137224},{""event"":""focus"",""trial"":10,""time"":145296},{""event"":""blur"",""trial"":20,""time"":356604},{""event"":""focus"",""trial"":20,""time"":443677},{""event"":""blur"",""trial"":20,""time"":630078},{""event"":""focus"",""trial"":20,""time"":680572},{""event"":""blur"",""trial"":20,""time"":680925},{""event"":""focus"",""trial"":20,""time"":687880},{""event"":""blur"",""trial"":43,""time"":886497},{""event"":""focus"",""trial"":43,""time"":895807},{""event"":""fullscreenexit"",""trial"":43,""time"":900392},{""event"":""blur"",""trial"":47,""time"":966368},{""event"":""focus"",""trial"":47,""time"":969086},{""event"":""blur"",""trial"":47,""time"":978919},{""event"":""focus"",""trial"":47,""time"":982062},{""event"":""blur"",""trial"":47,""time"":996705},{""event"":""focus"",""trial"":47,""time"":1001782},{""event"":""blur"",""trial"":61,""time"":1172118},{""event"":""focus"",""trial"":61,""time"":1174094}]",NA,842.4000000953674,static/audio/instructions17.wav,NA,0,NA,NA,NA,NA,NA,NA,NA,NA,NA,NA,NA,NA,NA,NA,NA,NA,NA,NA,NA,NA,NA,NA,NA,NA,NA
audio-instructions,64,1205057,0.0-7.1-3.1,voc_e2,12287,"[{""event"":""fullscreenenter"",""trial"":1,""time"":2233},{""event"":""blur"",""trial"":9,""time"":62984},{""event"":""focus"",""trial"":9,""time"":92939},{""event"":""blur"",""trial"":9,""time"":123040},{""event"":""focus"",""trial"":9,""time"":135179},{""event"":""blur"",""trial"":10,""time"":137224},{""event"":""focus"",""trial"":10,""time"":145296},{""event"":""blur"",""trial"":20,""time"":356604},{""event"":""focus"",""trial"":20,""time"":443677},{""event"":""blur"",""trial"":20,""time"":630078},{""event"":""focus"",""trial"":20,""time"":680572},{""event"":""blur"",""trial"":20,""time"":680925},{""event"":""focus"",""trial"":20,""time"":687880},{""event"":""blur"",""trial"":43,""time"":886497},{""event"":""focus"",""trial"":43,""time"":895807},{""event"":""fullscreenexit"",""trial"":43,""time"":900392},{""event"":""blur"",""trial"":47,""time"":966368},{""event"":""focus"",""trial"":47,""time"":969086},{""event"":""blur"",""trial"":47,""time"":978919},{""event"":""focus"",""trial"":47,""time"":982062},{""event"":""blur"",""trial"":47,""time"":996705},{""event"":""focus"",""trial"":47,""time"":1001782},{""event"":""blur"",""trial"":61,""time"":1172118},{""event"":""focus"",""trial"":61,""time"":1174094},{""event"":""blur"",""trial"":64,""time"":1201608},{""event"":""focus"",""trial"":64,""time"":1204135}]",NA,2546.099999904633,static/audio/instructions18.wav,NA,0,NA,NA,NA,NA,NA,NA,NA,NA,NA,NA,NA,NA,NA,NA,NA,NA,NA,NA,NA,NA,NA,NA,NA,NA,NA
audio-instructions,65,1212952,0.0-7.1-4.1,voc_e2,12287,"[{""event"":""fullscreenenter"",""trial"":1,""time"":2233},{""event"":""blur"",""trial"":9,""time"":62984},{""event"":""focus"",""trial"":9,""time"":92939},{""event"":""blur"",""trial"":9,""time"":123040},{""event"":""focus"",""trial"":9,""time"":135179},{""event"":""blur"",""trial"":10,""time"":137224},{""event"":""focus"",""trial"":10,""time"":145296},{""event"":""blur"",""trial"":20,""time"":356604},{""event"":""focus"",""trial"":20,""time"":443677},{""event"":""blur"",""trial"":20,""time"":630078},{""event"":""focus"",""trial"":20,""time"":680572},{""event"":""blur"",""trial"":20,""time"":680925},{""event"":""focus"",""trial"":20,""time"":687880},{""event"":""blur"",""trial"":43,""time"":886497},{""event"":""focus"",""trial"":43,""time"":895807},{""event"":""fullscreenexit"",""trial"":43,""time"":900392},{""event"":""blur"",""trial"":47,""time"":966368},{""event"":""focus"",""trial"":47,""time"":969086},{""event"":""blur"",""trial"":47,""time"":978919},{""event"":""focus"",""trial"":47,""time"":982062},{""event"":""blur"",""trial"":47,""time"":996705},{""event"":""focus"",""trial"":47,""time"":1001782},{""event"":""blur"",""trial"":61,""time"":1172118},{""event"":""focus"",""trial"":61,""time"":1174094},{""event"":""blur"",""trial"":64,""time"":1201608},{""event"":""focus"",""trial"":64,""time"":1204135}]",NA,1151.9000000953674,static/audio/instructions19.wav,NA,0,NA,NA,NA,NA,NA,NA,NA,NA,NA,NA,NA,NA,NA,NA,NA,NA,NA,NA,NA,NA,NA,NA,NA,NA,NA
fcp-comprehension,66,1224577,0.0-7.1-5.1,voc_e2,12287,"[{""event"":""fullscreenenter"",""trial"":1,""time"":2233},{""event"":""blur"",""trial"":9,""time"":62984},{""event"":""focus"",""trial"":9,""time"":92939},{""event"":""blur"",""trial"":9,""time"":123040},{""event"":""focus"",""trial"":9,""time"":135179},{""event"":""blur"",""trial"":10,""time"":137224},{""event"":""focus"",""trial"":10,""time"":145296},{""event"":""blur"",""trial"":20,""time"":356604},{""event"":""focus"",""trial"":20,""time"":443677},{""event"":""blur"",""trial"":20,""time"":630078},{""event"":""focus"",""trial"":20,""time"":680572},{""event"":""blur"",""trial"":20,""time"":680925},{""event"":""focus"",""trial"":20,""time"":687880},{""event"":""blur"",""trial"":43,""time"":886497},{""event"":""focus"",""trial"":43,""time"":895807},{""event"":""fullscreenexit"",""trial"":43,""time"":900392},{""event"":""blur"",""trial"":47,""time"":966368},{""event"":""focus"",""trial"":47,""time"":969086},{""event"":""blur"",""trial"":47,""time"":978919},{""event"":""focus"",""trial"":47,""time"":982062},{""event"":""blur"",""trial"":47,""time"":996705},{""event"":""focus"",""trial"":47,""time"":1001782},{""event"":""blur"",""trial"":61,""time"":1172118},{""event"":""focus"",""trial"":61,""time"":1174094},{""event"":""blur"",""trial"":64,""time"":1201608},{""event"":""focus"",""trial"":64,""time"":1204135}]",NA,11621.89999961853,NA,NA,NA,NA,NA,NA,NA,NA,NA,NA,NA,NA,NA,NA,NA,NA,NA,NA,"false,false,false,true",0,NA,NA,NA,NA,NA,NA,NA,NA
audio-instructions,67,1234512,0.0-8.0,voc_e2,12287,"[{""event"":""fullscreenenter"",""trial"":1,""time"":2233},{""event"":""blur"",""trial"":9,""time"":62984},{""event"":""focus"",""trial"":9,""time"":92939},{""event"":""blur"",""trial"":9,""time"":123040},{""event"":""focus"",""trial"":9,""time"":135179},{""event"":""blur"",""trial"":10,""time"":137224},{""event"":""focus"",""trial"":10,""time"":145296},{""event"":""blur"",""trial"":20,""time"":356604},{""event"":""focus"",""trial"":20,""time"":443677},{""event"":""blur"",""trial"":20,""time"":630078},{""event"":""focus"",""trial"":20,""time"":680572},{""event"":""blur"",""trial"":20,""time"":680925},{""event"":""focus"",""trial"":20,""time"":687880},{""event"":""blur"",""trial"":43,""time"":886497},{""event"":""focus"",""trial"":43,""time"":895807},{""event"":""fullscreenexit"",""trial"":43,""time"":900392},{""event"":""blur"",""trial"":47,""time"":966368},{""event"":""focus"",""trial"":47,""time"":969086},{""event"":""blur"",""trial"":47,""time"":978919},{""event"":""focus"",""trial"":47,""time"":982062},{""event"":""blur"",""trial"":47,""time"":996705},{""event"":""focus"",""trial"":47,""time"":1001782},{""event"":""blur"",""trial"":61,""time"":1172118},{""event"":""focus"",""trial"":61,""time"":1174094},{""event"":""blur"",""trial"":64,""time"":1201608},{""event"":""focus"",""trial"":64,""time"":1204135}]",NA,716.6000003814697,static/audio/ready.wav,NA,0,NA,NA,NA,NA,NA,NA,NA,NA,NA,NA,NA,NA,NA,NA,NA,NA,NA,NA,NA,NA,NA,NA,NA,NA,NA
fcp-trial,68,1240300,0.0-9.0-0.0,voc_e2,12287,"[{""event"":""fullscreenenter"",""trial"":1,""time"":2233},{""event"":""blur"",""trial"":9,""time"":62984},{""event"":""focus"",""trial"":9,""time"":92939},{""event"":""blur"",""trial"":9,""time"":123040},{""event"":""focus"",""trial"":9,""time"":135179},{""event"":""blur"",""trial"":10,""time"":137224},{""event"":""focus"",""trial"":10,""time"":145296},{""event"":""blur"",""trial"":20,""time"":356604},{""event"":""focus"",""trial"":20,""time"":443677},{""event"":""blur"",""trial"":20,""time"":630078},{""event"":""focus"",""trial"":20,""time"":680572},{""event"":""blur"",""trial"":20,""time"":680925},{""event"":""focus"",""trial"":20,""time"":687880},{""event"":""blur"",""trial"":43,""time"":886497},{""event"":""focus"",""trial"":43,""time"":895807},{""event"":""fullscreenexit"",""trial"":43,""time"":900392},{""event"":""blur"",""trial"":47,""time"":966368},{""event"":""focus"",""trial"":47,""time"":969086},{""event"":""blur"",""trial"":47,""time"":978919},{""event"":""focus"",""trial"":47,""time"":982062},{""event"":""blur"",""trial"":47,""time"":996705},{""event"":""focus"",""trial"":47,""time"":1001782},{""event"":""blur"",""trial"":61,""time"":1172118},{""event"":""focus"",""trial"":61,""time"":1174094},{""event"":""blur"",""trial"":64,""time"":1201608},{""event"":""focus"",""trial"":64,""time"":1204135}]",NA,NA,NA,NA,NA,5,#3386FF,#D89F1C,10,10,1,40,0,3074,37,1,1202.6999998092651,10,1,experiment,NA,NA,2,0.5,0.5,4,5,1,1,NA
fcp-trial,69,1243888,0.0-10.0-0.0,voc_e2,12287,"[{""event"":""fullscreenenter"",""trial"":1,""time"":2233},{""event"":""blur"",""trial"":9,""time"":62984},{""event"":""focus"",""trial"":9,""time"":92939},{""event"":""blur"",""trial"":9,""time"":123040},{""event"":""focus"",""trial"":9,""time"":135179},{""event"":""blur"",""trial"":10,""time"":137224},{""event"":""focus"",""trial"":10,""time"":145296},{""event"":""blur"",""trial"":20,""time"":356604},{""event"":""focus"",""trial"":20,""time"":443677},{""event"":""blur"",""trial"":20,""time"":630078},{""event"":""focus"",""trial"":20,""time"":680572},{""event"":""blur"",""trial"":20,""time"":680925},{""event"":""focus"",""trial"":20,""time"":687880},{""event"":""blur"",""trial"":43,""time"":886497},{""event"":""focus"",""trial"":43,""time"":895807},{""event"":""fullscreenexit"",""trial"":43,""time"":900392},{""event"":""blur"",""trial"":47,""time"":966368},{""event"":""focus"",""trial"":47,""time"":969086},{""event"":""blur"",""trial"":47,""time"":978919},{""event"":""focus"",""trial"":47,""time"":982062},{""event"":""blur"",""trial"":47,""time"":996705},{""event"":""focus"",""trial"":47,""time"":1001782},{""event"":""blur"",""trial"":61,""time"":1172118},{""event"":""focus"",""trial"":61,""time"":1174094},{""event"":""blur"",""trial"":64,""time"":1201608},{""event"":""focus"",""trial"":64,""time"":1204135}]",NA,NA,NA,NA,NA,4,#741CD8,#D8271C,0,10,0,40,0,1405.5,39,0,673.3999996185303,10,1,experiment,NA,NA,0,0.1,0.9,1,0,2,1,NA
fcp-trial,70,1247943,0.0-11.0-0.0,voc_e2,12287,"[{""event"":""fullscreenenter"",""trial"":1,""time"":2233},{""event"":""blur"",""trial"":9,""time"":62984},{""event"":""focus"",""trial"":9,""time"":92939},{""event"":""blur"",""trial"":9,""time"":123040},{""event"":""focus"",""trial"":9,""time"":135179},{""event"":""blur"",""trial"":10,""time"":137224},{""event"":""focus"",""trial"":10,""time"":145296},{""event"":""blur"",""trial"":20,""time"":356604},{""event"":""focus"",""trial"":20,""time"":443677},{""event"":""blur"",""trial"":20,""time"":630078},{""event"":""focus"",""trial"":20,""time"":680572},{""event"":""blur"",""trial"":20,""time"":680925},{""event"":""focus"",""trial"":20,""time"":687880},{""event"":""blur"",""trial"":43,""time"":886497},{""event"":""focus"",""trial"":43,""time"":895807},{""event"":""fullscreenexit"",""trial"":43,""time"":900392},{""event"":""blur"",""trial"":47,""time"":966368},{""event"":""focus"",""trial"":47,""time"":969086},{""event"":""blur"",""trial"":47,""time"":978919},{""event"":""focus"",""trial"":47,""time"":982062},{""event"":""blur"",""trial"":47,""time"":996705},{""event"":""focus"",""trial"":47,""time"":1001782},{""event"":""blur"",""trial"":61,""time"":1172118},{""event"":""focus"",""trial"":61,""time"":1174094},{""event"":""blur"",""trial"":64,""time"":1201608},{""event"":""focus"",""trial"":64,""time"":1204135}]",NA,NA,NA,NA,NA,6,#D89F1C,#3386FF,10,10,0,40,0,1268.1999998092651,37,1,1278.5999999046326,10,0,experiment,NA,NA,2,0.5,0.5,5,4,3,1,NA
fcp-trial,71,1254049,0.0-12.0-0.0,voc_e2,12287,"[{""event"":""fullscreenenter"",""trial"":1,""time"":2233},{""event"":""blur"",""trial"":9,""time"":62984},{""event"":""focus"",""trial"":9,""time"":92939},{""event"":""blur"",""trial"":9,""time"":123040},{""event"":""focus"",""trial"":9,""time"":135179},{""event"":""blur"",""trial"":10,""time"":137224},{""event"":""focus"",""trial"":10,""time"":145296},{""event"":""blur"",""trial"":20,""time"":356604},{""event"":""focus"",""trial"":20,""time"":443677},{""event"":""blur"",""trial"":20,""time"":630078},{""event"":""focus"",""trial"":20,""time"":680572},{""event"":""blur"",""trial"":20,""time"":680925},{""event"":""focus"",""trial"":20,""time"":687880},{""event"":""blur"",""trial"":43,""time"":886497},{""event"":""focus"",""trial"":43,""time"":895807},{""event"":""fullscreenexit"",""trial"":43,""time"":900392},{""event"":""blur"",""trial"":47,""time"":966368},{""event"":""focus"",""trial"":47,""time"":969086},{""event"":""blur"",""trial"":47,""time"":978919},{""event"":""focus"",""trial"":47,""time"":982062},{""event"":""blur"",""trial"":47,""time"":996705},{""event"":""focus"",""trial"":47,""time"":1001782},{""event"":""blur"",""trial"":61,""time"":1172118},{""event"":""focus"",""trial"":61,""time"":1174094},{""event"":""blur"",""trial"":64,""time"":1201608},{""event"":""focus"",""trial"":64,""time"":1204135}]",NA,NA,NA,NA,NA,0,#1CD855,#FA92F8,0,0,1,38,1,2717,39,0,1880.4000000953674,0,0,experiment,NA,NA,1,0.7,0.3,2,3,4,1,NA
fcp-trial,72,1258677,0.0-13.0-0.0,voc_e2,12287,"[{""event"":""fullscreenenter"",""trial"":1,""time"":2233},{""event"":""blur"",""trial"":9,""time"":62984},{""event"":""focus"",""trial"":9,""time"":92939},{""event"":""blur"",""trial"":9,""time"":123040},{""event"":""focus"",""trial"":9,""time"":135179},{""event"":""blur"",""trial"":10,""time"":137224},{""event"":""focus"",""trial"":10,""time"":145296},{""event"":""blur"",""trial"":20,""time"":356604},{""event"":""focus"",""trial"":20,""time"":443677},{""event"":""blur"",""trial"":20,""time"":630078},{""event"":""focus"",""trial"":20,""time"":680572},{""event"":""blur"",""trial"":20,""time"":680925},{""event"":""focus"",""trial"":20,""time"":687880},{""event"":""blur"",""trial"":43,""time"":886497},{""event"":""focus"",""trial"":43,""time"":895807},{""event"":""fullscreenexit"",""trial"":43,""time"":900392},{""event"":""blur"",""trial"":47,""time"":966368},{""event"":""focus"",""trial"":47,""time"":969086},{""event"":""blur"",""trial"":47,""time"":978919},{""event"":""focus"",""trial"":47,""time"":982062},{""event"":""blur"",""trial"":47,""time"":996705},{""event"":""focus"",""trial"":47,""time"":1001782},{""event"":""blur"",""trial"":61,""time"":1172118},{""event"":""focus"",""trial"":61,""time"":1174094},{""event"":""blur"",""trial"":64,""time"":1201608},{""event"":""focus"",""trial"":64,""time"":1204135}]",NA,NA,NA,NA,NA,2,#741CD8,#D8271C,0,10,0,38,1,2579.9000000953674,39,0,538.7000002861023,10,1,experiment,NA,NA,0,0.1,0.9,1,0,5,1,NA
fcp-trial,73,1264211,0.0-14.0-0.0,voc_e2,12287,"[{""event"":""fullscreenenter"",""trial"":1,""time"":2233},{""event"":""blur"",""trial"":9,""time"":62984},{""event"":""focus"",""trial"":9,""time"":92939},{""event"":""blur"",""trial"":9,""time"":123040},{""event"":""focus"",""trial"":9,""time"":135179},{""event"":""blur"",""trial"":10,""time"":137224},{""event"":""focus"",""trial"":10,""time"":145296},{""event"":""blur"",""trial"":20,""time"":356604},{""event"":""focus"",""trial"":20,""time"":443677},{""event"":""blur"",""trial"":20,""time"":630078},{""event"":""focus"",""trial"":20,""time"":680572},{""event"":""blur"",""trial"":20,""time"":680925},{""event"":""focus"",""trial"":20,""time"":687880},{""event"":""blur"",""trial"":43,""time"":886497},{""event"":""focus"",""trial"":43,""time"":895807},{""event"":""fullscreenexit"",""trial"":43,""time"":900392},{""event"":""blur"",""trial"":47,""time"":966368},{""event"":""focus"",""trial"":47,""time"":969086},{""event"":""blur"",""trial"":47,""time"":978919},{""event"":""focus"",""trial"":47,""time"":982062},{""event"":""blur"",""trial"":47,""time"":996705},{""event"":""focus"",""trial"":47,""time"":1001782},{""event"":""blur"",""trial"":61,""time"":1172118},{""event"":""focus"",""trial"":61,""time"":1174094},{""event"":""blur"",""trial"":64,""time"":1201608},{""event"":""focus"",""trial"":64,""time"":1204135}]",NA,NA,NA,NA,NA,2,#1CD855,#FA92F8,0,0,1,38,1,3383.699999809265,37,1,643.3000001907349,0,1,experiment,NA,NA,1,0.7,0.3,2,3,6,1,NA
fcp-trial,74,1269869,0.0-15.0-0.0,voc_e2,12287,"[{""event"":""fullscreenenter"",""trial"":1,""time"":2233},{""event"":""blur"",""trial"":9,""time"":62984},{""event"":""focus"",""trial"":9,""time"":92939},{""event"":""blur"",""trial"":9,""time"":123040},{""event"":""focus"",""trial"":9,""time"":135179},{""event"":""blur"",""trial"":10,""time"":137224},{""event"":""focus"",""trial"":10,""time"":145296},{""event"":""blur"",""trial"":20,""time"":356604},{""event"":""focus"",""trial"":20,""time"":443677},{""event"":""blur"",""trial"":20,""time"":630078},{""event"":""focus"",""trial"":20,""time"":680572},{""event"":""blur"",""trial"":20,""time"":680925},{""event"":""focus"",""trial"":20,""time"":687880},{""event"":""blur"",""trial"":43,""time"":886497},{""event"":""focus"",""trial"":43,""time"":895807},{""event"":""fullscreenexit"",""trial"":43,""time"":900392},{""event"":""blur"",""trial"":47,""time"":966368},{""event"":""focus"",""trial"":47,""time"":969086},{""event"":""blur"",""trial"":47,""time"":978919},{""event"":""focus"",""trial"":47,""time"":982062},{""event"":""blur"",""trial"":47,""time"":996705},{""event"":""focus"",""trial"":47,""time"":1001782},{""event"":""blur"",""trial"":61,""time"":1172118},{""event"":""focus"",""trial"":61,""time"":1174094},{""event"":""blur"",""trial"":64,""time"":1201608},{""event"":""focus"",""trial"":64,""time"":1204135}]",NA,NA,NA,NA,NA,3,#D89F1C,#3386FF,0,10,0,40,0,3530.0999999046326,39,0,616.7000002861023,10,1,experiment,NA,NA,2,0.5,0.5,5,4,7,1,NA
fcp-trial,75,1273252,0.0-16.0-0.0,voc_e2,12287,"[{""event"":""fullscreenenter"",""trial"":1,""time"":2233},{""event"":""blur"",""trial"":9,""time"":62984},{""event"":""focus"",""trial"":9,""time"":92939},{""event"":""blur"",""trial"":9,""time"":123040},{""event"":""focus"",""trial"":9,""time"":135179},{""event"":""blur"",""trial"":10,""time"":137224},{""event"":""focus"",""trial"":10,""time"":145296},{""event"":""blur"",""trial"":20,""time"":356604},{""event"":""focus"",""trial"":20,""time"":443677},{""event"":""blur"",""trial"":20,""time"":630078},{""event"":""focus"",""trial"":20,""time"":680572},{""event"":""blur"",""trial"":20,""time"":680925},{""event"":""focus"",""trial"":20,""time"":687880},{""event"":""blur"",""trial"":43,""time"":886497},{""event"":""focus"",""trial"":43,""time"":895807},{""event"":""fullscreenexit"",""trial"":43,""time"":900392},{""event"":""blur"",""trial"":47,""time"":966368},{""event"":""focus"",""trial"":47,""time"":969086},{""event"":""blur"",""trial"":47,""time"":978919},{""event"":""focus"",""trial"":47,""time"":982062},{""event"":""blur"",""trial"":47,""time"":996705},{""event"":""focus"",""trial"":47,""time"":1001782},{""event"":""blur"",""trial"":61,""time"":1172118},{""event"":""focus"",""trial"":61,""time"":1174094},{""event"":""blur"",""trial"":64,""time"":1201608},{""event"":""focus"",""trial"":64,""time"":1204135}]",NA,NA,NA,NA,NA,5,#741CD8,#D8271C,0,0,0,40,0,1284.8000001907349,37,1,588.3000001907349,0,0,experiment,NA,NA,0,0.1,0.9,1,0,8,1,NA
fcp-trial,76,1277794,0.0-17.0-0.0,voc_e2,12287,"[{""event"":""fullscreenenter"",""trial"":1,""time"":2233},{""event"":""blur"",""trial"":9,""time"":62984},{""event"":""focus"",""trial"":9,""time"":92939},{""event"":""blur"",""trial"":9,""time"":123040},{""event"":""focus"",""trial"":9,""time"":135179},{""event"":""blur"",""trial"":10,""time"":137224},{""event"":""focus"",""trial"":10,""time"":145296},{""event"":""blur"",""trial"":20,""time"":356604},{""event"":""focus"",""trial"":20,""time"":443677},{""event"":""blur"",""trial"":20,""time"":630078},{""event"":""focus"",""trial"":20,""time"":680572},{""event"":""blur"",""trial"":20,""time"":680925},{""event"":""focus"",""trial"":20,""time"":687880},{""event"":""blur"",""trial"":43,""time"":886497},{""event"":""focus"",""trial"":43,""time"":895807},{""event"":""fullscreenexit"",""trial"":43,""time"":900392},{""event"":""blur"",""trial"":47,""time"":966368},{""event"":""focus"",""trial"":47,""time"":969086},{""event"":""blur"",""trial"":47,""time"":978919},{""event"":""focus"",""trial"":47,""time"":982062},{""event"":""blur"",""trial"":47,""time"":996705},{""event"":""focus"",""trial"":47,""time"":1001782},{""event"":""blur"",""trial"":61,""time"":1172118},{""event"":""focus"",""trial"":61,""time"":1174094},{""event"":""blur"",""trial"":64,""time"":1201608},{""event"":""focus"",""trial"":64,""time"":1204135}]",NA,NA,NA,NA,NA,1,#FA92F8,#1CD855,0,10,0,40,0,2604.2000002861023,37,1,425.90000009536743,0,0,experiment,NA,NA,1,0.3,0.7,3,2,9,1,NA
fcp-trial,77,1281723,0.0-18.0-0.0,voc_e2,12287,"[{""event"":""fullscreenenter"",""trial"":1,""time"":2233},{""event"":""blur"",""trial"":9,""time"":62984},{""event"":""focus"",""trial"":9,""time"":92939},{""event"":""blur"",""trial"":9,""time"":123040},{""event"":""focus"",""trial"":9,""time"":135179},{""event"":""blur"",""trial"":10,""time"":137224},{""event"":""focus"",""trial"":10,""time"":145296},{""event"":""blur"",""trial"":20,""time"":356604},{""event"":""focus"",""trial"":20,""time"":443677},{""event"":""blur"",""trial"":20,""time"":630078},{""event"":""focus"",""trial"":20,""time"":680572},{""event"":""blur"",""trial"":20,""time"":680925},{""event"":""focus"",""trial"":20,""time"":687880},{""event"":""blur"",""trial"":43,""time"":886497},{""event"":""focus"",""trial"":43,""time"":895807},{""event"":""fullscreenexit"",""trial"":43,""time"":900392},{""event"":""blur"",""trial"":47,""time"":966368},{""event"":""focus"",""trial"":47,""time"":969086},{""event"":""blur"",""trial"":47,""time"":978919},{""event"":""focus"",""trial"":47,""time"":982062},{""event"":""blur"",""trial"":47,""time"":996705},{""event"":""focus"",""trial"":47,""time"":1001782},{""event"":""blur"",""trial"":61,""time"":1172118},{""event"":""focus"",""trial"":61,""time"":1174094},{""event"":""blur"",""trial"":64,""time"":1201608},{""event"":""focus"",""trial"":64,""time"":1204135}]",NA,NA,NA,NA,NA,1,#D8271C,#741CD8,10,0,1,38,1,2050.2000002861023,37,1,370.30000019073486,10,1,experiment,NA,NA,0,0.9,0.1,0,1,10,1,NA
fcp-trial,78,1284827,0.0-19.0-0.0,voc_e2,12287,"[{""event"":""fullscreenenter"",""trial"":1,""time"":2233},{""event"":""blur"",""trial"":9,""time"":62984},{""event"":""focus"",""trial"":9,""time"":92939},{""event"":""blur"",""trial"":9,""time"":123040},{""event"":""focus"",""trial"":9,""time"":135179},{""event"":""blur"",""trial"":10,""time"":137224},{""event"":""focus"",""trial"":10,""time"":145296},{""event"":""blur"",""trial"":20,""time"":356604},{""event"":""focus"",""trial"":20,""time"":443677},{""event"":""blur"",""trial"":20,""time"":630078},{""event"":""focus"",""trial"":20,""time"":680572},{""event"":""blur"",""trial"":20,""time"":680925},{""event"":""focus"",""trial"":20,""time"":687880},{""event"":""blur"",""trial"":43,""time"":886497},{""event"":""focus"",""trial"":43,""time"":895807},{""event"":""fullscreenexit"",""trial"":43,""time"":900392},{""event"":""blur"",""trial"":47,""time"":966368},{""event"":""focus"",""trial"":47,""time"":969086},{""event"":""blur"",""trial"":47,""time"":978919},{""event"":""focus"",""trial"":47,""time"":982062},{""event"":""blur"",""trial"":47,""time"":996705},{""event"":""focus"",""trial"":47,""time"":1001782},{""event"":""blur"",""trial"":61,""time"":1172118},{""event"":""focus"",""trial"":61,""time"":1174094},{""event"":""blur"",""trial"":64,""time"":1201608},{""event"":""focus"",""trial"":64,""time"":1204135}]",NA,NA,NA,NA,NA,4,#1CD855,#FA92F8,0,0,1,40,0,1147.2000002861023,37,1,447.5,0,1,experiment,NA,NA,1,0.7,0.3,2,3,11,1,NA
fcp-trial,79,1289464,0.0-20.0-0.0,voc_e2,12287,"[{""event"":""fullscreenenter"",""trial"":1,""time"":2233},{""event"":""blur"",""trial"":9,""time"":62984},{""event"":""focus"",""trial"":9,""time"":92939},{""event"":""blur"",""trial"":9,""time"":123040},{""event"":""focus"",""trial"":9,""time"":135179},{""event"":""blur"",""trial"":10,""time"":137224},{""event"":""focus"",""trial"":10,""time"":145296},{""event"":""blur"",""trial"":20,""time"":356604},{""event"":""focus"",""trial"":20,""time"":443677},{""event"":""blur"",""trial"":20,""time"":630078},{""event"":""focus"",""trial"":20,""time"":680572},{""event"":""blur"",""trial"":20,""time"":680925},{""event"":""focus"",""trial"":20,""time"":687880},{""event"":""blur"",""trial"":43,""time"":886497},{""event"":""focus"",""trial"":43,""time"":895807},{""event"":""fullscreenexit"",""trial"":43,""time"":900392},{""event"":""blur"",""trial"":47,""time"":966368},{""event"":""focus"",""trial"":47,""time"":969086},{""event"":""blur"",""trial"":47,""time"":978919},{""event"":""focus"",""trial"":47,""time"":982062},{""event"":""blur"",""trial"":47,""time"":996705},{""event"":""focus"",""trial"":47,""time"":1001782},{""event"":""blur"",""trial"":61,""time"":1172118},{""event"":""focus"",""trial"":61,""time"":1174094},{""event"":""blur"",""trial"":64,""time"":1201608},{""event"":""focus"",""trial"":64,""time"":1204135}]",NA,NA,NA,NA,NA,1,#D89F1C,#3386FF,10,0,0,38,1,2478.7999997138977,39,0,648.7999997138977,0,1,experiment,NA,NA,2,0.5,0.5,5,4,12,1,NA
fcp-trial,80,1292489,0.0-21.0-0.0,voc_e2,12287,"[{""event"":""fullscreenenter"",""trial"":1,""time"":2233},{""event"":""blur"",""trial"":9,""time"":62984},{""event"":""focus"",""trial"":9,""time"":92939},{""event"":""blur"",""trial"":9,""time"":123040},{""event"":""focus"",""trial"":9,""time"":135179},{""event"":""blur"",""trial"":10,""time"":137224},{""event"":""focus"",""trial"":10,""time"":145296},{""event"":""blur"",""trial"":20,""time"":356604},{""event"":""focus"",""trial"":20,""time"":443677},{""event"":""blur"",""trial"":20,""time"":630078},{""event"":""focus"",""trial"":20,""time"":680572},{""event"":""blur"",""trial"":20,""time"":680925},{""event"":""focus"",""trial"":20,""time"":687880},{""event"":""blur"",""trial"":43,""time"":886497},{""event"":""focus"",""trial"":43,""time"":895807},{""event"":""fullscreenexit"",""trial"":43,""time"":900392},{""event"":""blur"",""trial"":47,""time"":966368},{""event"":""focus"",""trial"":47,""time"":969086},{""event"":""blur"",""trial"":47,""time"":978919},{""event"":""focus"",""trial"":47,""time"":982062},{""event"":""blur"",""trial"":47,""time"":996705},{""event"":""focus"",""trial"":47,""time"":1001782},{""event"":""blur"",""trial"":61,""time"":1172118},{""event"":""focus"",""trial"":61,""time"":1174094},{""event"":""blur"",""trial"":64,""time"":1201608},{""event"":""focus"",""trial"":64,""time"":1204135}]",NA,NA,NA,NA,NA,0,#3386FF,#D89F1C,0,0,1,38,1,1242.1999998092651,39,0,273.7999997138977,0,0,experiment,NA,NA,2,0.5,0.5,4,5,13,1,NA
fcp-trial,81,1296229,0.0-22.0-0.0,voc_e2,12287,"[{""event"":""fullscreenenter"",""trial"":1,""time"":2233},{""event"":""blur"",""trial"":9,""time"":62984},{""event"":""focus"",""trial"":9,""time"":92939},{""event"":""blur"",""trial"":9,""time"":123040},{""event"":""focus"",""trial"":9,""time"":135179},{""event"":""blur"",""trial"":10,""time"":137224},{""event"":""focus"",""trial"":10,""time"":145296},{""event"":""blur"",""trial"":20,""time"":356604},{""event"":""focus"",""trial"":20,""time"":443677},{""event"":""blur"",""trial"":20,""time"":630078},{""event"":""focus"",""trial"":20,""time"":680572},{""event"":""blur"",""trial"":20,""time"":680925},{""event"":""focus"",""trial"":20,""time"":687880},{""event"":""blur"",""trial"":43,""time"":886497},{""event"":""focus"",""trial"":43,""time"":895807},{""event"":""fullscreenexit"",""trial"":43,""time"":900392},{""event"":""blur"",""trial"":47,""time"":966368},{""event"":""focus"",""trial"":47,""time"":969086},{""event"":""blur"",""trial"":47,""time"":978919},{""event"":""focus"",""trial"":47,""time"":982062},{""event"":""blur"",""trial"":47,""time"":996705},{""event"":""focus"",""trial"":47,""time"":1001782},{""event"":""blur"",""trial"":61,""time"":1172118},{""event"":""focus"",""trial"":61,""time"":1174094},{""event"":""blur"",""trial"":64,""time"":1201608},{""event"":""focus"",""trial"":64,""time"":1204135}]",NA,NA,NA,NA,NA,6,#741CD8,#D8271C,0,10,0,40,0,1505.6999998092651,37,1,725.7000002861023,0,0,experiment,NA,NA,0,0.1,0.9,1,0,14,1,NA
fcp-trial,82,1300054,0.0-23.0-0.0,voc_e2,12287,"[{""event"":""fullscreenenter"",""trial"":1,""time"":2233},{""event"":""blur"",""trial"":9,""time"":62984},{""event"":""focus"",""trial"":9,""time"":92939},{""event"":""blur"",""trial"":9,""time"":123040},{""event"":""focus"",""trial"":9,""time"":135179},{""event"":""blur"",""trial"":10,""time"":137224},{""event"":""focus"",""trial"":10,""time"":145296},{""event"":""blur"",""trial"":20,""time"":356604},{""event"":""focus"",""trial"":20,""time"":443677},{""event"":""blur"",""trial"":20,""time"":630078},{""event"":""focus"",""trial"":20,""time"":680572},{""event"":""blur"",""trial"":20,""time"":680925},{""event"":""focus"",""trial"":20,""time"":687880},{""event"":""blur"",""trial"":43,""time"":886497},{""event"":""focus"",""trial"":43,""time"":895807},{""event"":""fullscreenexit"",""trial"":43,""time"":900392},{""event"":""blur"",""trial"":47,""time"":966368},{""event"":""focus"",""trial"":47,""time"":969086},{""event"":""blur"",""trial"":47,""time"":978919},{""event"":""focus"",""trial"":47,""time"":982062},{""event"":""blur"",""trial"":47,""time"":996705},{""event"":""focus"",""trial"":47,""time"":1001782},{""event"":""blur"",""trial"":61,""time"":1172118},{""event"":""focus"",""trial"":61,""time"":1174094},{""event"":""blur"",""trial"":64,""time"":1201608},{""event"":""focus"",""trial"":64,""time"":1204135}]",NA,NA,NA,NA,NA,3,#FA92F8,#1CD855,0,0,0,40,0,1866.2000002861023,37,1,448.19999980926514,0,0,experiment,NA,NA,1,0.3,0.7,3,2,15,1,NA
fcp-trial,83,1304501,0.0-24.0-0.0,voc_e2,12287,"[{""event"":""fullscreenenter"",""trial"":1,""time"":2233},{""event"":""blur"",""trial"":9,""time"":62984},{""event"":""focus"",""trial"":9,""time"":92939},{""event"":""blur"",""trial"":9,""time"":123040},{""event"":""focus"",""trial"":9,""time"":135179},{""event"":""blur"",""trial"":10,""time"":137224},{""event"":""focus"",""trial"":10,""time"":145296},{""event"":""blur"",""trial"":20,""time"":356604},{""event"":""focus"",""trial"":20,""time"":443677},{""event"":""blur"",""trial"":20,""time"":630078},{""event"":""focus"",""trial"":20,""time"":680572},{""event"":""blur"",""trial"":20,""time"":680925},{""event"":""focus"",""trial"":20,""time"":687880},{""event"":""blur"",""trial"":43,""time"":886497},{""event"":""focus"",""trial"":43,""time"":895807},{""event"":""fullscreenexit"",""trial"":43,""time"":900392},{""event"":""blur"",""trial"":47,""time"":966368},{""event"":""focus"",""trial"":47,""time"":969086},{""event"":""blur"",""trial"":47,""time"":978919},{""event"":""focus"",""trial"":47,""time"":982062},{""event"":""blur"",""trial"":47,""time"":996705},{""event"":""focus"",""trial"":47,""time"":1001782},{""event"":""blur"",""trial"":61,""time"":1172118},{""event"":""focus"",""trial"":61,""time"":1174094},{""event"":""blur"",""trial"":64,""time"":1201608},{""event"":""focus"",""trial"":64,""time"":1204135}]",NA,NA,NA,NA,NA,5,#1CD855,#FA92F8,10,10,1,40,0,2250.9000000953674,37,1,687.2000002861023,10,1,experiment,NA,NA,1,0.7,0.3,2,3,16,1,NA
fcp-trial,84,1308799,0.0-25.0-0.0,voc_e2,12287,"[{""event"":""fullscreenenter"",""trial"":1,""time"":2233},{""event"":""blur"",""trial"":9,""time"":62984},{""event"":""focus"",""trial"":9,""time"":92939},{""event"":""blur"",""trial"":9,""time"":123040},{""event"":""focus"",""trial"":9,""time"":135179},{""event"":""blur"",""trial"":10,""time"":137224},{""event"":""focus"",""trial"":10,""time"":145296},{""event"":""blur"",""trial"":20,""time"":356604},{""event"":""focus"",""trial"":20,""time"":443677},{""event"":""blur"",""trial"":20,""time"":630078},{""event"":""focus"",""trial"":20,""time"":680572},{""event"":""blur"",""trial"":20,""time"":680925},{""event"":""focus"",""trial"":20,""time"":687880},{""event"":""blur"",""trial"":43,""time"":886497},{""event"":""focus"",""trial"":43,""time"":895807},{""event"":""fullscreenexit"",""trial"":43,""time"":900392},{""event"":""blur"",""trial"":47,""time"":966368},{""event"":""focus"",""trial"":47,""time"":969086},{""event"":""blur"",""trial"":47,""time"":978919},{""event"":""focus"",""trial"":47,""time"":982062},{""event"":""blur"",""trial"":47,""time"":996705},{""event"":""focus"",""trial"":47,""time"":1001782},{""event"":""blur"",""trial"":61,""time"":1172118},{""event"":""focus"",""trial"":61,""time"":1174094},{""event"":""blur"",""trial"":64,""time"":1201608},{""event"":""focus"",""trial"":64,""time"":1204135}]",NA,NA,NA,NA,NA,2,#3386FF,#D89F1C,10,10,1,38,1,2350.5999999046326,39,0,435.69999980926514,10,0,experiment,NA,NA,2,0.5,0.5,4,5,17,1,NA
fcp-trial,85,1312846,0.0-26.0-0.0,voc_e2,12287,"[{""event"":""fullscreenenter"",""trial"":1,""time"":2233},{""event"":""blur"",""trial"":9,""time"":62984},{""event"":""focus"",""trial"":9,""time"":92939},{""event"":""blur"",""trial"":9,""time"":123040},{""event"":""focus"",""trial"":9,""time"":135179},{""event"":""blur"",""trial"":10,""time"":137224},{""event"":""focus"",""trial"":10,""time"":145296},{""event"":""blur"",""trial"":20,""time"":356604},{""event"":""focus"",""trial"":20,""time"":443677},{""event"":""blur"",""trial"":20,""time"":630078},{""event"":""focus"",""trial"":20,""time"":680572},{""event"":""blur"",""trial"":20,""time"":680925},{""event"":""focus"",""trial"":20,""time"":687880},{""event"":""blur"",""trial"":43,""time"":886497},{""event"":""focus"",""trial"":43,""time"":895807},{""event"":""fullscreenexit"",""trial"":43,""time"":900392},{""event"":""blur"",""trial"":47,""time"":966368},{""event"":""focus"",""trial"":47,""time"":969086},{""event"":""blur"",""trial"":47,""time"":978919},{""event"":""focus"",""trial"":47,""time"":982062},{""event"":""blur"",""trial"":47,""time"":996705},{""event"":""focus"",""trial"":47,""time"":1001782},{""event"":""blur"",""trial"":61,""time"":1172118},{""event"":""focus"",""trial"":61,""time"":1174094},{""event"":""blur"",""trial"":64,""time"":1201608},{""event"":""focus"",""trial"":64,""time"":1204135}]",NA,NA,NA,NA,NA,6,#1CD855,#FA92F8,10,10,1,40,0,1994.5,39,0,544.8000001907349,10,0,experiment,NA,NA,1,0.7,0.3,2,3,18,1,NA
fcp-trial,86,1315878,0.0-27.0-0.0,voc_e2,12287,"[{""event"":""fullscreenenter"",""trial"":1,""time"":2233},{""event"":""blur"",""trial"":9,""time"":62984},{""event"":""focus"",""trial"":9,""time"":92939},{""event"":""blur"",""trial"":9,""time"":123040},{""event"":""focus"",""trial"":9,""time"":135179},{""event"":""blur"",""trial"":10,""time"":137224},{""event"":""focus"",""trial"":10,""time"":145296},{""event"":""blur"",""trial"":20,""time"":356604},{""event"":""focus"",""trial"":20,""time"":443677},{""event"":""blur"",""trial"":20,""time"":630078},{""event"":""focus"",""trial"":20,""time"":680572},{""event"":""blur"",""trial"":20,""time"":680925},{""event"":""focus"",""trial"":20,""time"":687880},{""event"":""blur"",""trial"":43,""time"":886497},{""event"":""focus"",""trial"":43,""time"":895807},{""event"":""fullscreenexit"",""trial"":43,""time"":900392},{""event"":""blur"",""trial"":47,""time"":966368},{""event"":""focus"",""trial"":47,""time"":969086},{""event"":""blur"",""trial"":47,""time"":978919},{""event"":""focus"",""trial"":47,""time"":982062},{""event"":""blur"",""trial"":47,""time"":996705},{""event"":""focus"",""trial"":47,""time"":1001782},{""event"":""blur"",""trial"":61,""time"":1172118},{""event"":""focus"",""trial"":61,""time"":1174094},{""event"":""blur"",""trial"":64,""time"":1201608},{""event"":""focus"",""trial"":64,""time"":1204135}]",NA,NA,NA,NA,NA,0,#D8271C,#741CD8,0,0,1,38,1,1239,37,1,286.7999997138977,0,1,experiment,NA,NA,0,0.9,0.1,0,1,19,1,NA
fcp-trial,87,1319129,0.0-28.0-0.0,voc_e2,12287,"[{""event"":""fullscreenenter"",""trial"":1,""time"":2233},{""event"":""blur"",""trial"":9,""time"":62984},{""event"":""focus"",""trial"":9,""time"":92939},{""event"":""blur"",""trial"":9,""time"":123040},{""event"":""focus"",""trial"":9,""time"":135179},{""event"":""blur"",""trial"":10,""time"":137224},{""event"":""focus"",""trial"":10,""time"":145296},{""event"":""blur"",""trial"":20,""time"":356604},{""event"":""focus"",""trial"":20,""time"":443677},{""event"":""blur"",""trial"":20,""time"":630078},{""event"":""focus"",""trial"":20,""time"":680572},{""event"":""blur"",""trial"":20,""time"":680925},{""event"":""focus"",""trial"":20,""time"":687880},{""event"":""blur"",""trial"":43,""time"":886497},{""event"":""focus"",""trial"":43,""time"":895807},{""event"":""fullscreenexit"",""trial"":43,""time"":900392},{""event"":""blur"",""trial"":47,""time"":966368},{""event"":""focus"",""trial"":47,""time"":969086},{""event"":""blur"",""trial"":47,""time"":978919},{""event"":""focus"",""trial"":47,""time"":982062},{""event"":""blur"",""trial"":47,""time"":996705},{""event"":""focus"",""trial"":47,""time"":1001782},{""event"":""blur"",""trial"":61,""time"":1172118},{""event"":""focus"",""trial"":61,""time"":1174094},{""event"":""blur"",""trial"":64,""time"":1201608},{""event"":""focus"",""trial"":64,""time"":1204135}]",NA,NA,NA,NA,NA,3,#D8271C,#741CD8,10,0,1,38,1,1112.5999999046326,37,1,632.1999998092651,10,1,experiment,NA,NA,0,0.9,0.1,0,1,20,1,NA
fcp-trial,88,1322621,0.0-29.0-0.0,voc_e2,12287,"[{""event"":""fullscreenenter"",""trial"":1,""time"":2233},{""event"":""blur"",""trial"":9,""time"":62984},{""event"":""focus"",""trial"":9,""time"":92939},{""event"":""blur"",""trial"":9,""time"":123040},{""event"":""focus"",""trial"":9,""time"":135179},{""event"":""blur"",""trial"":10,""time"":137224},{""event"":""focus"",""trial"":10,""time"":145296},{""event"":""blur"",""trial"":20,""time"":356604},{""event"":""focus"",""trial"":20,""time"":443677},{""event"":""blur"",""trial"":20,""time"":630078},{""event"":""focus"",""trial"":20,""time"":680572},{""event"":""blur"",""trial"":20,""time"":680925},{""event"":""focus"",""trial"":20,""time"":687880},{""event"":""blur"",""trial"":43,""time"":886497},{""event"":""focus"",""trial"":43,""time"":895807},{""event"":""fullscreenexit"",""trial"":43,""time"":900392},{""event"":""blur"",""trial"":47,""time"":966368},{""event"":""focus"",""trial"":47,""time"":969086},{""event"":""blur"",""trial"":47,""time"":978919},{""event"":""focus"",""trial"":47,""time"":982062},{""event"":""blur"",""trial"":47,""time"":996705},{""event"":""focus"",""trial"":47,""time"":1001782},{""event"":""blur"",""trial"":61,""time"":1172118},{""event"":""focus"",""trial"":61,""time"":1174094},{""event"":""blur"",""trial"":64,""time"":1201608},{""event"":""focus"",""trial"":64,""time"":1204135}]",NA,NA,NA,NA,NA,4,#3386FF,#D89F1C,0,0,1,38,1,1459.2999997138977,39,0,524.8000001907349,0,0,experiment,NA,NA,2,0.5,0.5,4,5,21,1,NA
fcp-trial,89,1326629,0.0-30.0-0.0,voc_e2,12287,"[{""event"":""fullscreenenter"",""trial"":1,""time"":2233},{""event"":""blur"",""trial"":9,""time"":62984},{""event"":""focus"",""trial"":9,""time"":92939},{""event"":""blur"",""trial"":9,""time"":123040},{""event"":""focus"",""trial"":9,""time"":135179},{""event"":""blur"",""trial"":10,""time"":137224},{""event"":""focus"",""trial"":10,""time"":145296},{""event"":""blur"",""trial"":20,""time"":356604},{""event"":""focus"",""trial"":20,""time"":443677},{""event"":""blur"",""trial"":20,""time"":630078},{""event"":""focus"",""trial"":20,""time"":680572},{""event"":""blur"",""trial"":20,""time"":680925},{""event"":""focus"",""trial"":20,""time"":687880},{""event"":""blur"",""trial"":43,""time"":886497},{""event"":""focus"",""trial"":43,""time"":895807},{""event"":""fullscreenexit"",""trial"":43,""time"":900392},{""event"":""blur"",""trial"":47,""time"":966368},{""event"":""focus"",""trial"":47,""time"":969086},{""event"":""blur"",""trial"":47,""time"":978919},{""event"":""focus"",""trial"":47,""time"":982062},{""event"":""blur"",""trial"":47,""time"":996705},{""event"":""focus"",""trial"":47,""time"":1001782},{""event"":""blur"",""trial"":61,""time"":1172118},{""event"":""focus"",""trial"":61,""time"":1174094},{""event"":""blur"",""trial"":64,""time"":1201608},{""event"":""focus"",""trial"":64,""time"":1204135}]",NA,NA,NA,NA,NA,2,#FA92F8,#1CD855,10,10,0,38,1,2152.5,39,0,346.30000019073486,10,1,experiment,NA,NA,1,0.3,0.7,3,2,22,1,NA
fcp-trial,90,1329756,0.0-31.0-0.0,voc_e2,12287,"[{""event"":""fullscreenenter"",""trial"":1,""time"":2233},{""event"":""blur"",""trial"":9,""time"":62984},{""event"":""focus"",""trial"":9,""time"":92939},{""event"":""blur"",""trial"":9,""time"":123040},{""event"":""focus"",""trial"":9,""time"":135179},{""event"":""blur"",""trial"":10,""time"":137224},{""event"":""focus"",""trial"":10,""time"":145296},{""event"":""blur"",""trial"":20,""time"":356604},{""event"":""focus"",""trial"":20,""time"":443677},{""event"":""blur"",""trial"":20,""time"":630078},{""event"":""focus"",""trial"":20,""time"":680572},{""event"":""blur"",""trial"":20,""time"":680925},{""event"":""focus"",""trial"":20,""time"":687880},{""event"":""blur"",""trial"":43,""time"":886497},{""event"":""focus"",""trial"":43,""time"":895807},{""event"":""fullscreenexit"",""trial"":43,""time"":900392},{""event"":""blur"",""trial"":47,""time"":966368},{""event"":""focus"",""trial"":47,""time"":969086},{""event"":""blur"",""trial"":47,""time"":978919},{""event"":""focus"",""trial"":47,""time"":982062},{""event"":""blur"",""trial"":47,""time"":996705},{""event"":""focus"",""trial"":47,""time"":1001782},{""event"":""blur"",""trial"":61,""time"":1172118},{""event"":""focus"",""trial"":61,""time"":1174094},{""event"":""blur"",""trial"":64,""time"":1201608},{""event"":""focus"",""trial"":64,""time"":1204135}]",NA,NA,NA,NA,NA,4,#1CD855,#FA92F8,10,0,1,40,0,1260.4000000953674,37,1,358.8999996185303,10,1,experiment,NA,NA,1,0.7,0.3,2,3,23,1,NA
fcp-trial,91,1335164,0.0-32.0-0.0,voc_e2,12287,"[{""event"":""fullscreenenter"",""trial"":1,""time"":2233},{""event"":""blur"",""trial"":9,""time"":62984},{""event"":""focus"",""trial"":9,""time"":92939},{""event"":""blur"",""trial"":9,""time"":123040},{""event"":""focus"",""trial"":9,""time"":135179},{""event"":""blur"",""trial"":10,""time"":137224},{""event"":""focus"",""trial"":10,""time"":145296},{""event"":""blur"",""trial"":20,""time"":356604},{""event"":""focus"",""trial"":20,""time"":443677},{""event"":""blur"",""trial"":20,""time"":630078},{""event"":""focus"",""trial"":20,""time"":680572},{""event"":""blur"",""trial"":20,""time"":680925},{""event"":""focus"",""trial"":20,""time"":687880},{""event"":""blur"",""trial"":43,""time"":886497},{""event"":""focus"",""trial"":43,""time"":895807},{""event"":""fullscreenexit"",""trial"":43,""time"":900392},{""event"":""blur"",""trial"":47,""time"":966368},{""event"":""focus"",""trial"":47,""time"":969086},{""event"":""blur"",""trial"":47,""time"":978919},{""event"":""focus"",""trial"":47,""time"":982062},{""event"":""blur"",""trial"":47,""time"":996705},{""event"":""focus"",""trial"":47,""time"":1001782},{""event"":""blur"",""trial"":61,""time"":1172118},{""event"":""focus"",""trial"":61,""time"":1174094},{""event"":""blur"",""trial"":64,""time"":1201608},{""event"":""focus"",""trial"":64,""time"":1204135}]",NA,NA,NA,NA,NA,4,#3386FF,#D89F1C,0,10,1,40,0,3537.199999809265,39,0,360.19999980926514,10,0,experiment,NA,NA,2,0.5,0.5,4,5,24,1,NA
fcp-trial,92,1338135,0.0-33.0-0.0,voc_e2,12287,"[{""event"":""fullscreenenter"",""trial"":1,""time"":2233},{""event"":""blur"",""trial"":9,""time"":62984},{""event"":""focus"",""trial"":9,""time"":92939},{""event"":""blur"",""trial"":9,""time"":123040},{""event"":""focus"",""trial"":9,""time"":135179},{""event"":""blur"",""trial"":10,""time"":137224},{""event"":""focus"",""trial"":10,""time"":145296},{""event"":""blur"",""trial"":20,""time"":356604},{""event"":""focus"",""trial"":20,""time"":443677},{""event"":""blur"",""trial"":20,""time"":630078},{""event"":""focus"",""trial"":20,""time"":680572},{""event"":""blur"",""trial"":20,""time"":680925},{""event"":""focus"",""trial"":20,""time"":687880},{""event"":""blur"",""trial"":43,""time"":886497},{""event"":""focus"",""trial"":43,""time"":895807},{""event"":""fullscreenexit"",""trial"":43,""time"":900392},{""event"":""blur"",""trial"":47,""time"":966368},{""event"":""focus"",""trial"":47,""time"":969086},{""event"":""blur"",""trial"":47,""time"":978919},{""event"":""focus"",""trial"":47,""time"":982062},{""event"":""blur"",""trial"":47,""time"":996705},{""event"":""focus"",""trial"":47,""time"":1001782},{""event"":""blur"",""trial"":61,""time"":1172118},{""event"":""focus"",""trial"":61,""time"":1174094},{""event"":""blur"",""trial"":64,""time"":1201608},{""event"":""focus"",""trial"":64,""time"":1204135}]",NA,NA,NA,NA,NA,2,#741CD8,#D8271C,0,10,0,38,1,1148.0999999046326,39,0,314,10,1,experiment,NA,NA,0,0.1,0.9,1,0,25,1,NA
fcp-trial,93,1342087,0.0-34.0-0.0,voc_e2,12287,"[{""event"":""fullscreenenter"",""trial"":1,""time"":2233},{""event"":""blur"",""trial"":9,""time"":62984},{""event"":""focus"",""trial"":9,""time"":92939},{""event"":""blur"",""trial"":9,""time"":123040},{""event"":""focus"",""trial"":9,""time"":135179},{""event"":""blur"",""trial"":10,""time"":137224},{""event"":""focus"",""trial"":10,""time"":145296},{""event"":""blur"",""trial"":20,""time"":356604},{""event"":""focus"",""trial"":20,""time"":443677},{""event"":""blur"",""trial"":20,""time"":630078},{""event"":""focus"",""trial"":20,""time"":680572},{""event"":""blur"",""trial"":20,""time"":680925},{""event"":""focus"",""trial"":20,""time"":687880},{""event"":""blur"",""trial"":43,""time"":886497},{""event"":""focus"",""trial"":43,""time"":895807},{""event"":""fullscreenexit"",""trial"":43,""time"":900392},{""event"":""blur"",""trial"":47,""time"":966368},{""event"":""focus"",""trial"":47,""time"":969086},{""event"":""blur"",""trial"":47,""time"":978919},{""event"":""focus"",""trial"":47,""time"":982062},{""event"":""blur"",""trial"":47,""time"":996705},{""event"":""focus"",""trial"":47,""time"":1001782},{""event"":""blur"",""trial"":61,""time"":1172118},{""event"":""focus"",""trial"":61,""time"":1174094},{""event"":""blur"",""trial"":64,""time"":1201608},{""event"":""focus"",""trial"":64,""time"":1204135}]",NA,NA,NA,NA,NA,1,#FA92F8,#1CD855,0,10,0,38,1,1857.1999998092651,39,0,585.3000001907349,10,1,experiment,NA,NA,1,0.3,0.7,3,2,26,1,NA
