trial_type,trial_index,time_elapsed,internal_node_id,task_version,subject_id,interactions,success,rt,stimulus,key_press,button_pressed,offer,arcade_color_L,arcade_color_R,arcade_outcome_L,arcade_outcome_R,correct,stage_1_key,stage_1_choice,stage_1_rt,stage_2_key,stage_2_choice,stage_2_rt,stage_3_outcome,accuracy,phase,responses,num_errors,context,reward_prob_L,reward_prob_R,arcade_id_L,arcade_id_R,trial,block,response
pavlovia,0,6,0.0-0.0,voc_e2,11741,[],NA,NA,NA,NA,NA,NA,NA,NA,NA,NA,NA,NA,NA,NA,NA,NA,NA,NA,NA,NA,NA,NA,NA,NA,NA,NA,NA,NA,NA,NA
fullscreen,1,4610,0.0-1.0,voc_e2,11741,"[{""event"":""fullscreenenter"",""trial"":1,""time"":3622}]",TRUE,NA,NA,NA,NA,NA,NA,NA,NA,NA,NA,NA,NA,NA,NA,NA,NA,NA,NA,NA,NA,NA,NA,NA,NA,NA,NA,NA,NA,NA
audio-keyboard-response,2,16120,0.0-2.0,voc_e2,11741,"[{""event"":""fullscreenenter"",""trial"":1,""time"":3622}]",NA,11504,static/audio/beep_loop.wav,32,NA,NA,NA,NA,NA,NA,NA,NA,NA,NA,NA,NA,NA,NA,NA,NA,NA,NA,NA,NA,NA,NA,NA,NA,NA,NA
audio-test,3,20333,0.0-3.0,voc_e2,11741,"[{""event"":""fullscreenenter"",""trial"":1,""time"":3622}]",NA,NA,static/audio/turtle.wav,NA,3,NA,NA,NA,NA,NA,NA,NA,NA,NA,NA,NA,NA,NA,NA,NA,NA,NA,NA,NA,NA,NA,NA,NA,NA,NA
audio-test,4,25295,0.0-4.0,voc_e2,11741,"[{""event"":""fullscreenenter"",""trial"":1,""time"":3622}]",NA,NA,static/audio/shark.wav,NA,2,NA,NA,NA,NA,NA,NA,NA,NA,NA,NA,NA,NA,NA,NA,NA,NA,NA,NA,NA,NA,NA,NA,NA,NA,NA
audio-instructions,5,33502,0.0-5.0-0.0,voc_e2,11741,"[{""event"":""fullscreenenter"",""trial"":1,""time"":3622}]",NA,2409,static/audio/instructions1.wav,NA,0,NA,NA,NA,NA,NA,NA,NA,NA,NA,NA,NA,NA,NA,NA,NA,NA,NA,NA,NA,NA,NA,NA,NA,NA,NA
audio-instructions,6,42203,0.0-5.0-1.0,voc_e2,11741,"[{""event"":""fullscreenenter"",""trial"":1,""time"":3622}]",NA,1961,static/audio/instructions2.wav,NA,0,NA,NA,NA,NA,NA,NA,NA,NA,NA,NA,NA,NA,NA,NA,NA,NA,NA,NA,NA,NA,NA,NA,NA,NA,NA
audio-instructions,7,49445,0.0-5.0-2.0,voc_e2,11741,"[{""event"":""fullscreenenter"",""trial"":1,""time"":3622}]",NA,1436,static/audio/instructions3.wav,NA,0,NA,NA,NA,NA,NA,NA,NA,NA,NA,NA,NA,NA,NA,NA,NA,NA,NA,NA,NA,NA,NA,NA,NA,NA,NA
audio-instructions,8,64599,0.0-5.0-3.0,voc_e2,11741,"[{""event"":""fullscreenenter"",""trial"":1,""time"":3622}]",NA,1924,static/audio/instructions4.wav,NA,0,NA,NA,NA,NA,NA,NA,NA,NA,NA,NA,NA,NA,NA,NA,NA,NA,NA,NA,NA,NA,NA,NA,NA,NA,NA
audio-instructions,9,77587,0.0-5.0-4.0,voc_e2,11741,"[{""event"":""fullscreenenter"",""trial"":1,""time"":3622}]",NA,3600,static/audio/instructions5.wav,NA,0,NA,NA,NA,NA,NA,NA,NA,NA,NA,NA,NA,NA,NA,NA,NA,NA,NA,NA,NA,NA,NA,NA,NA,NA,NA
fcp-practice,10,82837,0.0-5.0-5.0-0.0,voc_e2,11741,"[{""event"":""fullscreenenter"",""trial"":1,""time"":3622}]",NA,NA,NA,NA,NA,NA,#EDC948,#46d3c8,10,0,1,null,null,null,37,1,3729,10,1,practice,NA,NA,NA,NA,NA,NA,NA,NA,NA,NA
fcp-practice,11,84449,0.0-5.0-5.0-1.0,voc_e2,11741,"[{""event"":""fullscreenenter"",""trial"":1,""time"":3622}]",NA,NA,NA,NA,NA,NA,#EDC948,#46d3c8,10,0,1,null,null,null,37,1,100,10,1,practice,NA,NA,NA,NA,NA,NA,NA,NA,NA,NA
fcp-practice,12,85974,0.0-5.0-5.0-2.0,voc_e2,11741,"[{""event"":""fullscreenenter"",""trial"":1,""time"":3622}]",NA,NA,NA,NA,NA,NA,#EDC948,#46d3c8,0,10,1,null,null,null,37,1,13,0,1,practice,NA,NA,NA,NA,NA,NA,NA,NA,NA,NA
fcp-practice,13,87772,0.0-5.0-5.0-3.0,voc_e2,11741,"[{""event"":""fullscreenenter"",""trial"":1,""time"":3622}]",NA,NA,NA,NA,NA,NA,#EDC948,#46d3c8,10,0,1,null,null,null,37,1,288,10,1,practice,NA,NA,NA,NA,NA,NA,NA,NA,NA,NA
fcp-practice,14,89461,0.0-5.0-5.0-4.0,voc_e2,11741,"[{""event"":""fullscreenenter"",""trial"":1,""time"":3622}]",NA,NA,NA,NA,NA,NA,#EDC948,#46d3c8,10,0,1,null,null,null,37,1,181,10,1,practice,NA,NA,NA,NA,NA,NA,NA,NA,NA,NA
audio-instructions,15,109937,0.0-5.0-6.0,voc_e2,11741,"[{""event"":""fullscreenenter"",""trial"":1,""time"":3622}]",NA,2469,static/audio/instructions6.wav,NA,0,NA,NA,NA,NA,NA,NA,NA,NA,NA,NA,NA,NA,NA,NA,NA,NA,NA,NA,NA,NA,NA,NA,NA,NA,NA
audio-instructions,16,130311,0.0-5.0-7.0,voc_e2,11741,"[{""event"":""fullscreenenter"",""trial"":1,""time"":3622}]",NA,1175,static/audio/instructions7.wav,NA,0,NA,NA,NA,NA,NA,NA,NA,NA,NA,NA,NA,NA,NA,NA,NA,NA,NA,NA,NA,NA,NA,NA,NA,NA,NA
audio-instructions,17,140474,0.0-5.0-8.0,voc_e2,11741,"[{""event"":""fullscreenenter"",""trial"":1,""time"":3622},{""event"":""blur"",""trial"":17,""time"":132171},{""event"":""focus"",""trial"":17,""time"":132584}]",NA,693,static/audio/instructions8.wav,NA,0,NA,NA,NA,NA,NA,NA,NA,NA,NA,NA,NA,NA,NA,NA,NA,NA,NA,NA,NA,NA,NA,NA,NA,NA,NA
fcp-comprehension,18,152331,0.0-5.0-9.0,voc_e2,11741,"[{""event"":""fullscreenenter"",""trial"":1,""time"":3622},{""event"":""blur"",""trial"":17,""time"":132171},{""event"":""focus"",""trial"":17,""time"":132584}]",NA,11854,NA,NA,NA,NA,NA,NA,NA,NA,NA,NA,NA,NA,NA,NA,NA,NA,NA,NA,"true,true",0,NA,NA,NA,NA,NA,NA,NA,NA
audio-instructions,19,160761,0.0-6.0-0.0,voc_e2,11741,"[{""event"":""fullscreenenter"",""trial"":1,""time"":3622},{""event"":""blur"",""trial"":17,""time"":132171},{""event"":""focus"",""trial"":17,""time"":132584}]",NA,2880,static/audio/instructions9.wav,NA,0,NA,NA,NA,NA,NA,NA,NA,NA,NA,NA,NA,NA,NA,NA,NA,NA,NA,NA,NA,NA,NA,NA,NA,NA,NA
audio-instructions,20,175313,0.0-6.0-1.0,voc_e2,11741,"[{""event"":""fullscreenenter"",""trial"":1,""time"":3622},{""event"":""blur"",""trial"":17,""time"":132171},{""event"":""focus"",""trial"":17,""time"":132584}]",NA,2432,static/audio/instructions10.wav,NA,0,NA,NA,NA,NA,NA,NA,NA,NA,NA,NA,NA,NA,NA,NA,NA,NA,NA,NA,NA,NA,NA,NA,NA,NA,NA
fcp-trial,21,184246,0.0-6.0-2.0,voc_e2,11741,"[{""event"":""fullscreenenter"",""trial"":1,""time"":3622},{""event"":""blur"",""trial"":17,""time"":132171},{""event"":""focus"",""trial"":17,""time"":132584}]",NA,NA,NA,NA,NA,0,#EDC948,#46d3c8,10,10,1,38,1,5842,37,1,1566,10,1,practice,NA,NA,NA,NA,NA,NA,NA,NA,NA,NA
audio-instructions,22,196183,0.0-6.0-3.0,voc_e2,11741,"[{""event"":""fullscreenenter"",""trial"":1,""time"":3622},{""event"":""blur"",""trial"":17,""time"":132171},{""event"":""focus"",""trial"":17,""time"":132584}]",NA,928,static/audio/instructions11.wav,NA,0,NA,NA,NA,NA,NA,NA,NA,NA,NA,NA,NA,NA,NA,NA,NA,NA,NA,NA,NA,NA,NA,NA,NA,NA,NA
fcp-trial,23,202167,0.0-6.0-4.0,voc_e2,11741,"[{""event"":""fullscreenenter"",""trial"":1,""time"":3622},{""event"":""blur"",""trial"":17,""time"":132171},{""event"":""focus"",""trial"":17,""time"":132584}]",NA,NA,NA,NA,NA,6,#EDC948,#46d3c8,10,10,1,40,0,1800,39,0,2668,10,0,practice,NA,NA,NA,NA,NA,NA,NA,NA,NA,NA
audio-instructions,24,222398,0.0-6.0-5.0,voc_e2,11741,"[{""event"":""fullscreenenter"",""trial"":1,""time"":3622},{""event"":""blur"",""trial"":17,""time"":132171},{""event"":""focus"",""trial"":17,""time"":132584}]",NA,1542,static/audio/instructions12.wav,NA,0,NA,NA,NA,NA,NA,NA,NA,NA,NA,NA,NA,NA,NA,NA,NA,NA,NA,NA,NA,NA,NA,NA,NA,NA,NA
audio-instructions,25,230433,0.0-6.0-6.0,voc_e2,11741,"[{""event"":""fullscreenenter"",""trial"":1,""time"":3622},{""event"":""blur"",""trial"":17,""time"":132171},{""event"":""focus"",""trial"":17,""time"":132584}]",NA,441,static/audio/instructions13.wav,NA,0,NA,NA,NA,NA,NA,NA,NA,NA,NA,NA,NA,NA,NA,NA,NA,NA,NA,NA,NA,NA,NA,NA,NA,NA,NA
audio-instructions,26,239650,0.0-6.0-7.0,voc_e2,11741,"[{""event"":""fullscreenenter"",""trial"":1,""time"":3622},{""event"":""blur"",""trial"":17,""time"":132171},{""event"":""focus"",""trial"":17,""time"":132584}]",NA,769,static/audio/instructions14.wav,NA,0,NA,NA,NA,NA,NA,NA,NA,NA,NA,NA,NA,NA,NA,NA,NA,NA,NA,NA,NA,NA,NA,NA,NA,NA,NA
audio-instructions,27,247304,0.0-7.0-0.0,voc_e2,11741,"[{""event"":""fullscreenenter"",""trial"":1,""time"":3622},{""event"":""blur"",""trial"":17,""time"":132171},{""event"":""focus"",""trial"":17,""time"":132584}]",NA,744,static/audio/instructions15.wav,NA,0,NA,NA,NA,NA,NA,NA,NA,NA,NA,NA,NA,NA,NA,NA,NA,NA,NA,NA,NA,NA,NA,NA,NA,NA,NA
audio-instructions,28,254815,0.0-7.0-1.0,voc_e2,11741,"[{""event"":""fullscreenenter"",""trial"":1,""time"":3622},{""event"":""blur"",""trial"":17,""time"":132171},{""event"":""focus"",""trial"":17,""time"":132584}]",NA,681,static/audio/instructions16.wav,NA,0,NA,NA,NA,NA,NA,NA,NA,NA,NA,NA,NA,NA,NA,NA,NA,NA,NA,NA,NA,NA,NA,NA,NA,NA,NA
audio-instructions,29,263138,0.0-7.0-2.0,voc_e2,11741,"[{""event"":""fullscreenenter"",""trial"":1,""time"":3622},{""event"":""blur"",""trial"":17,""time"":132171},{""event"":""focus"",""trial"":17,""time"":132584}]",NA,643,static/audio/instructions17.wav,NA,0,NA,NA,NA,NA,NA,NA,NA,NA,NA,NA,NA,NA,NA,NA,NA,NA,NA,NA,NA,NA,NA,NA,NA,NA,NA
audio-instructions,30,272000,0.0-7.0-3.0,voc_e2,11741,"[{""event"":""fullscreenenter"",""trial"":1,""time"":3622},{""event"":""blur"",""trial"":17,""time"":132171},{""event"":""focus"",""trial"":17,""time"":132584}]",NA,1094,static/audio/instructions18.wav,NA,0,NA,NA,NA,NA,NA,NA,NA,NA,NA,NA,NA,NA,NA,NA,NA,NA,NA,NA,NA,NA,NA,NA,NA,NA,NA
audio-instructions,31,279446,0.0-7.0-4.0,voc_e2,11741,"[{""event"":""fullscreenenter"",""trial"":1,""time"":3622},{""event"":""blur"",""trial"":17,""time"":132171},{""event"":""focus"",""trial"":17,""time"":132584}]",NA,706,static/audio/instructions19.wav,NA,0,NA,NA,NA,NA,NA,NA,NA,NA,NA,NA,NA,NA,NA,NA,NA,NA,NA,NA,NA,NA,NA,NA,NA,NA,NA
fcp-comprehension,32,316972,0.0-7.0-5.0,voc_e2,11741,"[{""event"":""fullscreenenter"",""trial"":1,""time"":3622},{""event"":""blur"",""trial"":17,""time"":132171},{""event"":""focus"",""trial"":17,""time"":132584}]",NA,37521,NA,NA,NA,NA,NA,NA,NA,NA,NA,NA,NA,NA,NA,NA,NA,NA,NA,NA,"false,false,false,true",0,NA,NA,NA,NA,NA,NA,NA,NA
audio-instructions,33,327505,0.0-8.0,voc_e2,11741,"[{""event"":""fullscreenenter"",""trial"":1,""time"":3622},{""event"":""blur"",""trial"":17,""time"":132171},{""event"":""focus"",""trial"":17,""time"":132584}]",NA,1294,static/audio/ready.wav,NA,0,NA,NA,NA,NA,NA,NA,NA,NA,NA,NA,NA,NA,NA,NA,NA,NA,NA,NA,NA,NA,NA,NA,NA,NA,NA
fcp-trial,34,332059,0.0-9.0-0.0,voc_e2,11741,"[{""event"":""fullscreenenter"",""trial"":1,""time"":3622},{""event"":""blur"",""trial"":17,""time"":132171},{""event"":""focus"",""trial"":17,""time"":132584}]",NA,NA,NA,NA,NA,6,#1CD855,#FA92F8,10,0,1,38,1,1198,39,0,1842,0,0,experiment,NA,NA,0,0.9,0.1,0,1,1,1,NA
fcp-trial,35,339404,0.0-10.0-0.0,voc_e2,11741,"[{""event"":""fullscreenenter"",""trial"":1,""time"":3622},{""event"":""blur"",""trial"":17,""time"":132171},{""event"":""focus"",""trial"":17,""time"":132584}]",NA,NA,NA,NA,NA,5,#741CD8,#D8271C,0,0,1,40,0,3448,39,0,2379,0,0,experiment,NA,NA,1,0.7,0.3,2,3,2,1,NA
fcp-trial,36,343369,0.0-11.0-0.0,voc_e2,11741,"[{""event"":""fullscreenenter"",""trial"":1,""time"":3622},{""event"":""blur"",""trial"":17,""time"":132171},{""event"":""focus"",""trial"":17,""time"":132584}]",NA,NA,NA,NA,NA,6,#3386FF,#D89F1C,10,0,1,38,1,1675,37,1,776,10,1,experiment,NA,NA,2,0.5,0.5,4,5,3,1,NA
fcp-trial,37,347846,0.0-12.0-0.0,voc_e2,11741,"[{""event"":""fullscreenenter"",""trial"":1,""time"":3622},{""event"":""blur"",""trial"":17,""time"":132171},{""event"":""focus"",""trial"":17,""time"":132584}]",NA,NA,NA,NA,NA,3,#1CD855,#FA92F8,10,0,1,40,0,1931,39,0,1034,0,0,experiment,NA,NA,0,0.9,0.1,0,1,4,1,NA
fcp-trial,38,352758,0.0-13.0-0.0,voc_e2,11741,"[{""event"":""fullscreenenter"",""trial"":1,""time"":3622},{""event"":""blur"",""trial"":17,""time"":132171},{""event"":""focus"",""trial"":17,""time"":132584}]",NA,NA,NA,NA,NA,2,#D89F1C,#3386FF,0,10,0,38,1,1924,37,1,1471,0,0,experiment,NA,NA,2,0.5,0.5,5,4,5,1,NA
fcp-trial,39,357568,0.0-14.0-0.0,voc_e2,11741,"[{""event"":""fullscreenenter"",""trial"":1,""time"":3622},{""event"":""blur"",""trial"":17,""time"":132171},{""event"":""focus"",""trial"":17,""time"":132584}]",NA,NA,NA,NA,NA,5,#FA92F8,#1CD855,0,10,0,40,0,2070,37,1,1226,0,0,experiment,NA,NA,0,0.1,0.9,1,0,6,1,NA
fcp-trial,40,361357,0.0-15.0-0.0,voc_e2,11741,"[{""event"":""fullscreenenter"",""trial"":1,""time"":3622},{""event"":""blur"",""trial"":17,""time"":132171},{""event"":""focus"",""trial"":17,""time"":132584}]",NA,NA,NA,NA,NA,2,#D8271C,#741CD8,0,0,0,38,1,1638,39,0,634,0,1,experiment,NA,NA,1,0.3,0.7,3,2,7,1,NA
fcp-trial,41,365185,0.0-16.0-0.0,voc_e2,11741,"[{""event"":""fullscreenenter"",""trial"":1,""time"":3622},{""event"":""blur"",""trial"":17,""time"":132171},{""event"":""focus"",""trial"":17,""time"":132584}]",NA,NA,NA,NA,NA,2,#FA92F8,#1CD855,0,10,0,40,0,1024,39,0,1290,10,1,experiment,NA,NA,0,0.1,0.9,1,0,8,1,NA
fcp-trial,42,369407,0.0-17.0-0.0,voc_e2,11741,"[{""event"":""fullscreenenter"",""trial"":1,""time"":3622},{""event"":""blur"",""trial"":17,""time"":132171},{""event"":""focus"",""trial"":17,""time"":132584}]",NA,NA,NA,NA,NA,4,#3386FF,#D89F1C,0,0,1,40,0,1616,37,1,1091,0,1,experiment,NA,NA,2,0.5,0.5,4,5,9,1,NA
fcp-trial,43,374019,0.0-18.0-0.0,voc_e2,11741,"[{""event"":""fullscreenenter"",""trial"":1,""time"":3622},{""event"":""blur"",""trial"":17,""time"":132171},{""event"":""focus"",""trial"":17,""time"":132584}]",NA,NA,NA,NA,NA,1,#D8271C,#741CD8,10,10,0,38,1,2029,37,1,1072,10,0,experiment,NA,NA,1,0.3,0.7,3,2,10,1,NA
fcp-trial,44,379926,0.0-19.0-0.0,voc_e2,11741,"[{""event"":""fullscreenenter"",""trial"":1,""time"":3622},{""event"":""blur"",""trial"":17,""time"":132171},{""event"":""focus"",""trial"":17,""time"":132584}]",NA,NA,NA,NA,NA,4,#FA92F8,#1CD855,0,10,0,40,0,3133,37,1,1265,0,0,experiment,NA,NA,0,0.1,0.9,1,0,11,1,NA
fcp-trial,45,383994,0.0-20.0-0.0,voc_e2,11741,"[{""event"":""fullscreenenter"",""trial"":1,""time"":3622},{""event"":""blur"",""trial"":17,""time"":132171},{""event"":""focus"",""trial"":17,""time"":132584}]",NA,NA,NA,NA,NA,0,#D89F1C,#3386FF,10,10,0,38,1,1778,39,0,776,10,1,experiment,NA,NA,2,0.5,0.5,5,4,12,1,NA
fcp-trial,46,388368,0.0-21.0-0.0,voc_e2,11741,"[{""event"":""fullscreenenter"",""trial"":1,""time"":3622},{""event"":""blur"",""trial"":17,""time"":132171},{""event"":""focus"",""trial"":17,""time"":132584}]",NA,NA,NA,NA,NA,6,#741CD8,#D8271C,0,0,1,40,0,1995,37,1,867,0,1,experiment,NA,NA,1,0.7,0.3,2,3,13,1,NA
fcp-trial,47,392445,0.0-22.0-0.0,voc_e2,11741,"[{""event"":""fullscreenenter"",""trial"":1,""time"":3622},{""event"":""blur"",""trial"":17,""time"":132171},{""event"":""focus"",""trial"":17,""time"":132584}]",NA,NA,NA,NA,NA,5,#D89F1C,#3386FF,0,10,0,40,0,1615,39,0,949,10,1,experiment,NA,NA,2,0.5,0.5,5,4,14,1,NA
fcp-trial,48,397248,0.0-23.0-0.0,voc_e2,11741,"[{""event"":""fullscreenenter"",""trial"":1,""time"":3622},{""event"":""blur"",""trial"":17,""time"":132171},{""event"":""focus"",""trial"":17,""time"":132584}]",NA,NA,NA,NA,NA,1,#3386FF,#D89F1C,0,10,1,38,1,2008,39,0,1286,10,0,experiment,NA,NA,2,0.5,0.5,4,5,15,1,NA
fcp-trial,49,402172,0.0-24.0-0.0,voc_e2,11741,"[{""event"":""fullscreenenter"",""trial"":1,""time"":3622},{""event"":""blur"",""trial"":17,""time"":132171},{""event"":""focus"",""trial"":17,""time"":132584}]",NA,NA,NA,NA,NA,1,#FA92F8,#1CD855,0,10,0,38,1,2155,39,0,1257,10,1,experiment,NA,NA,0,0.1,0.9,1,0,16,1,NA
fcp-trial,50,407737,0.0-25.0-0.0,voc_e2,11741,"[{""event"":""fullscreenenter"",""trial"":1,""time"":3622},{""event"":""blur"",""trial"":17,""time"":132171},{""event"":""focus"",""trial"":17,""time"":132584}]",NA,NA,NA,NA,NA,3,#D89F1C,#3386FF,0,10,0,38,1,3586,37,1,466,0,0,experiment,NA,NA,2,0.5,0.5,5,4,17,1,NA
fcp-trial,51,411067,0.0-26.0-0.0,voc_e2,11741,"[{""event"":""fullscreenenter"",""trial"":1,""time"":3622},{""event"":""blur"",""trial"":17,""time"":132171},{""event"":""focus"",""trial"":17,""time"":132584}]",NA,NA,NA,NA,NA,4,#741CD8,#D8271C,0,0,1,40,0,1212,39,0,603,0,0,experiment,NA,NA,1,0.7,0.3,2,3,18,1,NA
fcp-trial,52,414506,0.0-27.0-0.0,voc_e2,11741,"[{""event"":""fullscreenenter"",""trial"":1,""time"":3622},{""event"":""blur"",""trial"":17,""time"":132171},{""event"":""focus"",""trial"":17,""time"":132584}]",NA,NA,NA,NA,NA,3,#741CD8,#D8271C,10,10,1,40,0,1355,37,1,564,10,1,experiment,NA,NA,1,0.7,0.3,2,3,19,1,NA
fcp-trial,53,419096,0.0-28.0-0.0,voc_e2,11741,"[{""event"":""fullscreenenter"",""trial"":1,""time"":3622},{""event"":""blur"",""trial"":17,""time"":132171},{""event"":""focus"",""trial"":17,""time"":132584}]",NA,NA,NA,NA,NA,0,#741CD8,#D8271C,10,0,1,38,1,1450,37,1,1627,10,1,experiment,NA,NA,1,0.7,0.3,2,3,20,1,NA
fcp-trial,54,423837,0.0-29.0-0.0,voc_e2,11741,"[{""event"":""fullscreenenter"",""trial"":1,""time"":3622},{""event"":""blur"",""trial"":17,""time"":132171},{""event"":""focus"",""trial"":17,""time"":132584}]",NA,NA,NA,NA,NA,0,#FA92F8,#1CD855,0,10,0,38,1,1811,39,0,1416,10,1,experiment,NA,NA,0,0.1,0.9,1,0,21,1,NA
fcp-trial,55,428914,0.0-30.0-0.0,voc_e2,11741,"[{""event"":""fullscreenenter"",""trial"":1,""time"":3622},{""event"":""blur"",""trial"":17,""time"":132171},{""event"":""focus"",""trial"":17,""time"":132584}]",NA,NA,NA,NA,NA,5,#3386FF,#D89F1C,10,10,1,38,1,2022,37,1,1544,10,1,experiment,NA,NA,2,0.5,0.5,4,5,22,1,NA
fcp-trial,56,432853,0.0-31.0-0.0,voc_e2,11741,"[{""event"":""fullscreenenter"",""trial"":1,""time"":3622},{""event"":""blur"",""trial"":17,""time"":132171},{""event"":""focus"",""trial"":17,""time"":132584}]",NA,NA,NA,NA,NA,6,#D8271C,#741CD8,0,0,0,40,0,1652,37,1,775,0,0,experiment,NA,NA,1,0.3,0.7,3,2,23,1,NA
fcp-trial,57,436870,0.0-32.0-0.0,voc_e2,11741,"[{""event"":""fullscreenenter"",""trial"":1,""time"":3622},{""event"":""blur"",""trial"":17,""time"":132171},{""event"":""focus"",""trial"":17,""time"":132584}]",NA,NA,NA,NA,NA,4,#3386FF,#D89F1C,10,0,1,40,0,1320,37,1,1184,10,1,experiment,NA,NA,2,0.5,0.5,4,5,24,1,NA
fcp-trial,58,440966,0.0-33.0-0.0,voc_e2,11741,"[{""event"":""fullscreenenter"",""trial"":1,""time"":3622},{""event"":""blur"",""trial"":17,""time"":132171},{""event"":""focus"",""trial"":17,""time"":132584}]",NA,NA,NA,NA,NA,4,#1CD855,#FA92F8,10,0,1,40,0,1497,39,0,1087,0,0,experiment,NA,NA,0,0.9,0.1,0,1,25,1,NA
fcp-trial,59,444590,0.0-34.0-0.0,voc_e2,11741,"[{""event"":""fullscreenenter"",""trial"":1,""time"":3622},{""event"":""blur"",""trial"":17,""time"":132171},{""event"":""focus"",""trial"":17,""time"":132584}]",NA,NA,NA,NA,NA,2,#1CD855,#FA92F8,10,0,1,38,1,979,37,1,1136,10,1,experiment,NA,NA,0,0.9,0.1,0,1,26,1,NA
fcp-trial,60,448341,0.0-35.0-0.0,voc_e2,11741,"[{""event"":""fullscreenenter"",""trial"":1,""time"":3622},{""event"":""blur"",""trial"":17,""time"":132171},{""event"":""focus"",""trial"":17,""time"":132584}]",NA,NA,NA,NA,NA,0,#FA92F8,#1CD855,0,0,0,38,1,1728,39,0,508,0,1,experiment,NA,NA,0,0.1,0.9,1,0,27,1,NA
fcp-trial,61,452403,0.0-36.0-0.0,voc_e2,11741,"[{""event"":""fullscreenenter"",""trial"":1,""time"":3622},{""event"":""blur"",""trial"":17,""time"":132171},{""event"":""focus"",""trial"":17,""time"":132584}]",NA,NA,NA,NA,NA,1,#741CD8,#D8271C,10,0,1,38,1,1510,39,0,1037,0,0,experiment,NA,NA,1,0.7,0.3,2,3,28,1,NA
fcp-trial,62,456236,0.0-37.0-0.0,voc_e2,11741,"[{""event"":""fullscreenenter"",""trial"":1,""time"":3622},{""event"":""blur"",""trial"":17,""time"":132171},{""event"":""focus"",""trial"":17,""time"":132584}]",NA,NA,NA,NA,NA,6,#D89F1C,#3386FF,0,10,0,40,0,1167,39,0,1155,10,1,experiment,NA,NA,2,0.5,0.5,5,4,29,1,NA
fcp-trial,63,460194,0.0-38.0-0.0,voc_e2,11741,"[{""event"":""fullscreenenter"",""trial"":1,""time"":3622},{""event"":""blur"",""trial"":17,""time"":132171},{""event"":""focus"",""trial"":17,""time"":132584}]",NA,NA,NA,NA,NA,6,#1CD855,#FA92F8,10,0,1,40,0,1717,39,0,723,0,0,experiment,NA,NA,0,0.9,0.1,0,1,30,1,NA
fcp-trial,64,463870,0.0-39.0-0.0,voc_e2,11741,"[{""event"":""fullscreenenter"",""trial"":1,""time"":3622},{""event"":""blur"",""trial"":17,""time"":132171},{""event"":""focus"",""trial"":17,""time"":132584}]",NA,NA,NA,NA,NA,5,#D8271C,#741CD8,0,10,0,40,0,1531,37,1,636,0,0,experiment,NA,NA,1,0.3,0.7,3,2,31,1,NA
fcp-trial,65,468516,0.0-40.0-0.0,voc_e2,11741,"[{""event"":""fullscreenenter"",""trial"":1,""time"":3622},{""event"":""blur"",""trial"":17,""time"":132171},{""event"":""focus"",""trial"":17,""time"":132584}]",NA,NA,NA,NA,NA,0,#741CD8,#D8271C,10,0,1,38,1,1482,39,0,1644,0,0,experiment,NA,NA,1,0.7,0.3,2,3,32,1,NA
fcp-trial,66,473500,0.0-41.0-0.0,voc_e2,11741,"[{""event"":""fullscreenenter"",""trial"":1,""time"":3622},{""event"":""blur"",""trial"":17,""time"":132171},{""event"":""focus"",""trial"":17,""time"":132584}]",NA,NA,NA,NA,NA,2,#3386FF,#D89F1C,0,0,1,38,1,3050,37,1,423,0,1,experiment,NA,NA,2,0.5,0.5,4,5,33,1,NA
fcp-trial,67,478097,0.0-42.0-0.0,voc_e2,11741,"[{""event"":""fullscreenenter"",""trial"":1,""time"":3622},{""event"":""blur"",""trial"":17,""time"":132171},{""event"":""focus"",""trial"":17,""time"":132584}]",NA,NA,NA,NA,NA,5,#1CD855,#FA92F8,10,0,1,40,0,1812,39,0,1273,0,0,experiment,NA,NA,0,0.9,0.1,0,1,34,1,NA
fcp-trial,68,483369,0.0-43.0-0.0,voc_e2,11741,"[{""event"":""fullscreenenter"",""trial"":1,""time"":3622},{""event"":""blur"",""trial"":17,""time"":132171},{""event"":""focus"",""trial"":17,""time"":132584}]",NA,NA,NA,NA,NA,1,#3386FF,#D89F1C,0,10,1,38,1,3355,37,1,408,0,1,experiment,NA,NA,2,0.5,0.5,4,5,35,1,NA
fcp-trial,69,486986,0.0-44.0-0.0,voc_e2,11741,"[{""event"":""fullscreenenter"",""trial"":1,""time"":3622},{""event"":""blur"",""trial"":17,""time"":132171},{""event"":""focus"",""trial"":17,""time"":132584}]",NA,NA,NA,NA,NA,3,#3386FF,#D89F1C,0,10,1,40,0,1334,37,1,770,0,1,experiment,NA,NA,2,0.5,0.5,4,5,36,1,NA
fcp-trial,70,491563,0.0-45.0-0.0,voc_e2,11741,"[{""event"":""fullscreenenter"",""trial"":1,""time"":3622},{""event"":""blur"",""trial"":17,""time"":132171},{""event"":""focus"",""trial"":17,""time"":132584}]",NA,NA,NA,NA,NA,2,#D8271C,#741CD8,10,10,0,38,1,2084,37,1,978,10,0,experiment,NA,NA,1,0.3,0.7,3,2,37,1,NA
fcp-trial,71,495889,0.0-46.0-0.0,voc_e2,11741,"[{""event"":""fullscreenenter"",""trial"":1,""time"":3622},{""event"":""blur"",""trial"":17,""time"":132171},{""event"":""focus"",""trial"":17,""time"":132584}]",NA,NA,NA,NA,NA,3,#FA92F8,#1CD855,0,10,0,40,0,2033,37,1,777,0,0,experiment,NA,NA,0,0.1,0.9,1,0,38,1,NA
fcp-trial,72,500096,0.0-47.0-0.0,voc_e2,11741,"[{""event"":""fullscreenenter"",""trial"":1,""time"":3622},{""event"":""blur"",""trial"":17,""time"":132171},{""event"":""focus"",""trial"":17,""time"":132584}]",NA,NA,NA,NA,NA,0,#3386FF,#D89F1C,0,10,1,38,1,1389,39,0,1308,10,0,experiment,NA,NA,2,0.5,0.5,4,5,39,1,NA
fcp-trial,73,504189,0.0-48.0-0.0,voc_e2,11741,"[{""event"":""fullscreenenter"",""trial"":1,""time"":3622},{""event"":""blur"",""trial"":17,""time"":132171},{""event"":""focus"",""trial"":17,""time"":132584}]",NA,NA,NA,NA,NA,4,#741CD8,#D8271C,10,0,1,40,0,1617,39,0,962,0,0,experiment,NA,NA,1,0.7,0.3,2,3,40,1,NA
fcp-trial,74,507666,0.0-49.0-0.0,voc_e2,11741,"[{""event"":""fullscreenenter"",""trial"":1,""time"":3622},{""event"":""blur"",""trial"":17,""time"":132171},{""event"":""focus"",""trial"":17,""time"":132584}]",NA,NA,NA,NA,NA,1,#1CD855,#FA92F8,10,0,1,38,1,1110,37,1,855,10,1,experiment,NA,NA,0,0.9,0.1,0,1,41,1,NA
fcp-trial,75,512153,0.0-50.0-0.0,voc_e2,11741,"[{""event"":""fullscreenenter"",""trial"":1,""time"":3622},{""event"":""blur"",""trial"":17,""time"":132171},{""event"":""focus"",""trial"":17,""time"":132584}]",NA,NA,NA,NA,NA,3,#D8271C,#741CD8,0,10,0,38,1,1874,37,1,1100,0,0,experiment,NA,NA,1,0.3,0.7,3,2,42,1,NA
fcp-trial,76,515777,0.0-51.0-0.0,voc_e2,11741,"[{""event"":""fullscreenenter"",""trial"":1,""time"":3622},{""event"":""blur"",""trial"":17,""time"":132171},{""event"":""focus"",""trial"":17,""time"":132584}]",NA,NA,NA,NA,NA,2,#D89F1C,#3386FF,0,0,0,38,1,1216,37,1,870,0,0,experiment,NA,NA,2,0.5,0.5,5,4,43,1,NA
fcp-trial,77,519907,0.0-52.0-0.0,voc_e2,11741,"[{""event"":""fullscreenenter"",""trial"":1,""time"":3622},{""event"":""blur"",""trial"":17,""time"":132171},{""event"":""focus"",""trial"":17,""time"":132584}]",NA,NA,NA,NA,NA,5,#741CD8,#D8271C,10,10,1,40,0,1714,37,1,901,10,1,experiment,NA,NA,1,0.7,0.3,2,3,44,1,NA
fcp-trial,78,524735,0.0-53.0-0.0,voc_e2,11741,"[{""event"":""fullscreenenter"",""trial"":1,""time"":3622},{""event"":""blur"",""trial"":17,""time"":132171},{""event"":""focus"",""trial"":17,""time"":132584}]",NA,NA,NA,NA,NA,0,#1CD855,#FA92F8,10,0,1,38,1,1706,37,1,1607,10,1,experiment,NA,NA,0,0.9,0.1,0,1,45,1,NA
fcp-trial,79,528318,0.0-54.0-0.0,voc_e2,11741,"[{""event"":""fullscreenenter"",""trial"":1,""time"":3622},{""event"":""blur"",""trial"":17,""time"":132171},{""event"":""focus"",""trial"":17,""time"":132584}]",NA,NA,NA,NA,NA,4,#FA92F8,#1CD855,0,10,0,40,0,1337,39,0,738,10,1,experiment,NA,NA,0,0.1,0.9,1,0,46,2,NA
fcp-trial,80,532166,0.0-55.0-0.0,voc_e2,11741,"[{""event"":""fullscreenenter"",""trial"":1,""time"":3622},{""event"":""blur"",""trial"":17,""time"":132171},{""event"":""focus"",""trial"":17,""time"":132584}]",NA,NA,NA,NA,NA,3,#D89F1C,#3386FF,10,0,0,38,1,1937,37,1,396,10,0,experiment,NA,NA,2,0.5,0.5,5,4,47,2,NA
fcp-trial,81,536529,0.0-56.0-0.0,voc_e2,11741,"[{""event"":""fullscreenenter"",""trial"":1,""time"":3622},{""event"":""blur"",""trial"":17,""time"":132171},{""event"":""focus"",""trial"":17,""time"":132584}]",NA,NA,NA,NA,NA,6,#741CD8,#D8271C,10,0,1,40,0,2107,39,0,741,0,0,experiment,NA,NA,1,0.7,0.3,2,3,48,2,NA
fcp-trial,82,540709,0.0-57.0-0.0,voc_e2,11741,"[{""event"":""fullscreenenter"",""trial"":1,""time"":3622},{""event"":""blur"",""trial"":17,""time"":132171},{""event"":""focus"",""trial"":17,""time"":132584}]",NA,NA,NA,NA,NA,3,#FA92F8,#1CD855,0,0,0,38,1,1628,39,0,1034,0,1,experiment,NA,NA,0,0.1,0.9,1,0,49,2,NA
fcp-trial,83,545362,0.0-58.0-0.0,voc_e2,11741,"[{""event"":""fullscreenenter"",""trial"":1,""time"":3622},{""event"":""blur"",""trial"":17,""time"":132171},{""event"":""focus"",""trial"":17,""time"":132584}]",NA,NA,NA,NA,NA,1,#D89F1C,#3386FF,0,10,0,38,1,1509,37,1,1634,0,0,experiment,NA,NA,2,0.5,0.5,5,4,50,2,NA
fcp-trial,84,550794,0.0-59.0-0.0,voc_e2,11741,"[{""event"":""fullscreenenter"",""trial"":1,""time"":3622},{""event"":""blur"",""trial"":17,""time"":132171},{""event"":""focus"",""trial"":17,""time"":132584}]",NA,NA,NA,NA,NA,4,#D8271C,#741CD8,0,10,0,38,1,3639,37,1,282,0,0,experiment,NA,NA,1,0.3,0.7,3,2,51,2,NA
fcp-trial,85,554159,0.0-60.0-0.0,voc_e2,11741,"[{""event"":""fullscreenenter"",""trial"":1,""time"":3622},{""event"":""blur"",""trial"":17,""time"":132171},{""event"":""focus"",""trial"":17,""time"":132584}]",NA,NA,NA,NA,NA,5,#1CD855,#FA92F8,10,0,1,38,1,1496,37,1,361,10,1,experiment,NA,NA,0,0.9,0.1,0,1,52,2,NA
fcp-trial,86,558823,0.0-61.0-0.0,voc_e2,11741,"[{""event"":""fullscreenenter"",""trial"":1,""time"":3622},{""event"":""blur"",""trial"":17,""time"":132171},{""event"":""focus"",""trial"":17,""time"":132584}]",NA,NA,NA,NA,NA,4,#3386FF,#D89F1C,0,0,1,38,1,2762,39,0,391,0,0,experiment,NA,NA,2,0.5,0.5,4,5,53,2,NA
fcp-trial,87,564765,0.0-62.0-0.0,voc_e2,11741,"[{""event"":""fullscreenenter"",""trial"":1,""time"":3622},{""event"":""blur"",""trial"":17,""time"":132171},{""event"":""focus"",""trial"":17,""time"":132584}]",NA,NA,NA,NA,NA,5,#D89F1C,#3386FF,10,10,0,40,0,3599,37,1,830,10,0,experiment,NA,NA,2,0.5,0.5,5,4,54,2,NA
fcp-trial,88,569117,0.0-63.0-0.0,voc_e2,11741,"[{""event"":""fullscreenenter"",""trial"":1,""time"":3622},{""event"":""blur"",""trial"":17,""time"":132171},{""event"":""focus"",""trial"":17,""time"":132584}]",NA,NA,NA,NA,NA,2,#1CD855,#FA92F8,10,0,1,38,1,2347,37,1,491,10,1,experiment,NA,NA,0,0.9,0.1,0,1,55,2,NA
fcp-trial,89,574779,0.0-64.0-0.0,voc_e2,11741,"[{""event"":""fullscreenenter"",""trial"":1,""time"":3622},{""event"":""blur"",""trial"":17,""time"":132171},{""event"":""focus"",""trial"":17,""time"":132584}]",NA,NA,NA,NA,NA,2,#741CD8,#D8271C,10,10,1,40,0,3446,39,0,705,10,0,experiment,NA,NA,1,0.7,0.3,2,3,56,2,NA
fcp-trial,90,579072,0.0-65.0-0.0,voc_e2,11741,"[{""event"":""fullscreenenter"",""trial"":1,""time"":3622},{""event"":""blur"",""trial"":17,""time"":132171},{""event"":""focus"",""trial"":17,""time"":132584}]",NA,NA,NA,NA,NA,6,#D89F1C,#3386FF,10,0,0,40,0,2162,37,1,620,10,0,experiment,NA,NA,2,0.5,0.5,5,4,57,2,NA
fcp-trial,91,585948,0.0-66.0-0.0,voc_e2,11741,"[{""event"":""fullscreenenter"",""trial"":1,""time"":3622},{""event"":""blur"",""trial"":17,""time"":132171},{""event"":""focus"",""trial"":17,""time"":132584}]",NA,NA,NA,NA,NA,0,#741CD8,#D8271C,10,10,1,38,1,4834,39,0,524,10,0,experiment,NA,NA,1,0.7,0.3,2,3,58,2,NA
fcp-trial,92,590260,0.0-67.0-0.0,voc_e2,11741,"[{""event"":""fullscreenenter"",""trial"":1,""time"":3622},{""event"":""blur"",""trial"":17,""time"":132171},{""event"":""focus"",""trial"":17,""time"":132584}]",NA,NA,NA,NA,NA,0,#3386FF,#D89F1C,10,10,1,38,1,1823,39,0,977,10,0,experiment,NA,NA,2,0.5,0.5,4,5,59,2,NA
fcp-trial,93,595458,0.0-68.0-0.0,voc_e2,11741,"[{""event"":""fullscreenenter"",""trial"":1,""time"":3622},{""event"":""blur"",""trial"":17,""time"":132171},{""event"":""focus"",""trial"":17,""time"":132584}]",NA,NA,NA,NA,NA,1,#FA92F8,#1CD855,0,10,0,40,0,2456,37,1,1226,0,0,experiment,NA,NA,0,0.1,0.9,1,0,60,2,NA
fcp-trial,94,599846,0.0-69.0-0.0,voc_e2,11741,"[{""event"":""fullscreenenter"",""trial"":1,""time"":3622},{""event"":""blur"",""trial"":17,""time"":132171},{""event"":""focus"",""trial"":17,""time"":132584}]",NA,NA,NA,NA,NA,1,#741CD8,#D8271C,10,0,1,38,1,2273,39,0,601,0,0,experiment,NA,NA,1,0.7,0.3,2,3,61,2,NA
fcp-trial,95,603239,0.0-70.0-0.0,voc_e2,11741,"[{""event"":""fullscreenenter"",""trial"":1,""time"":3622},{""event"":""blur"",""trial"":17,""time"":132171},{""event"":""focus"",""trial"":17,""time"":132584}]",NA,NA,NA,NA,NA,3,#D8271C,#741CD8,0,10,0,40,0,1185,37,1,692,0,0,experiment,NA,NA,1,0.3,0.7,3,2,62,2,NA
fcp-trial,96,607715,0.0-71.0-0.0,voc_e2,11741,"[{""event"":""fullscreenenter"",""trial"":1,""time"":3622},{""event"":""blur"",""trial"":17,""time"":132171},{""event"":""focus"",""trial"":17,""time"":132584}]",NA,NA,NA,NA,NA,6,#1CD855,#FA92F8,0,0,1,40,0,2053,39,0,912,0,0,experiment,NA,NA,0,0.9,0.1,0,1,63,2,NA
fcp-trial,97,611595,0.0-72.0-0.0,voc_e2,11741,"[{""event"":""fullscreenenter"",""trial"":1,""time"":3622},{""event"":""blur"",""trial"":17,""time"":132171},{""event"":""focus"",""trial"":17,""time"":132584}]",NA,NA,NA,NA,NA,5,#3386FF,#D89F1C,0,0,1,40,0,1669,37,1,697,0,1,experiment,NA,NA,2,0.5,0.5,4,5,64,2,NA
fcp-trial,98,616094,0.0-73.0-0.0,voc_e2,11741,"[{""event"":""fullscreenenter"",""trial"":1,""time"":3622},{""event"":""blur"",""trial"":17,""time"":132171},{""event"":""focus"",""trial"":17,""time"":132584}]",NA,NA,NA,NA,NA,0,#3386FF,#D89F1C,0,10,1,38,1,1638,39,0,1347,10,0,experiment,NA,NA,2,0.5,0.5,4,5,65,2,NA
fcp-trial,99,620218,0.0-74.0-0.0,voc_e2,11741,"[{""event"":""fullscreenenter"",""trial"":1,""time"":3622},{""event"":""blur"",""trial"":17,""time"":132171},{""event"":""focus"",""trial"":17,""time"":132584}]",NA,NA,NA,NA,NA,1,#3386FF,#D89F1C,10,0,1,40,0,2073,39,0,538,0,0,experiment,NA,NA,2,0.5,0.5,4,5,66,2,NA
fcp-trial,100,623933,0.0-75.0-0.0,voc_e2,11741,"[{""event"":""fullscreenenter"",""trial"":1,""time"":3622},{""event"":""blur"",""trial"":17,""time"":132171},{""event"":""focus"",""trial"":17,""time"":132584}]",NA,NA,NA,NA,NA,4,#741CD8,#D8271C,10,10,1,40,0,1357,37,1,845,10,1,experiment,NA,NA,1,0.7,0.3,2,3,67,2,NA
fcp-trial,101,627487,0.0-76.0-0.0,voc_e2,11741,"[{""event"":""fullscreenenter"",""trial"":1,""time"":3622},{""event"":""blur"",""trial"":17,""time"":132171},{""event"":""focus"",""trial"":17,""time"":132584}]",NA,NA,NA,NA,NA,1,#1CD855,#FA92F8,10,10,1,38,1,1704,37,1,333,10,1,experiment,NA,NA,0,0.9,0.1,0,1,68,2,NA
fcp-trial,102,632215,0.0-77.0-0.0,voc_e2,11741,"[{""event"":""fullscreenenter"",""trial"":1,""time"":3622},{""event"":""blur"",""trial"":17,""time"":132171},{""event"":""focus"",""trial"":17,""time"":132584}]",NA,NA,NA,NA,NA,6,#1CD855,#FA92F8,10,0,1,40,0,2372,39,0,844,0,0,experiment,NA,NA,0,0.9,0.1,0,1,69,2,NA
fcp-trial,103,635794,0.0-78.0-0.0,voc_e2,11741,"[{""event"":""fullscreenenter"",""trial"":1,""time"":3622},{""event"":""blur"",""trial"":17,""time"":132171},{""event"":""focus"",""trial"":17,""time"":132584}]",NA,NA,NA,NA,NA,4,#D89F1C,#3386FF,0,10,0,40,0,1466,39,0,597,10,1,experiment,NA,NA,2,0.5,0.5,5,4,70,2,NA
fcp-trial,104,639147,0.0-79.0-0.0,voc_e2,11741,"[{""event"":""fullscreenenter"",""trial"":1,""time"":3622},{""event"":""blur"",""trial"":17,""time"":132171},{""event"":""focus"",""trial"":17,""time"":132584}]",NA,NA,NA,NA,NA,5,#1CD855,#FA92F8,10,0,1,40,0,1434,37,1,402,10,1,experiment,NA,NA,0,0.9,0.1,0,1,71,2,NA
fcp-trial,105,642767,0.0-80.0-0.0,voc_e2,11741,"[{""event"":""fullscreenenter"",""trial"":1,""time"":3622},{""event"":""blur"",""trial"":17,""time"":132171},{""event"":""focus"",""trial"":17,""time"":132584}]",NA,NA,NA,NA,NA,2,#D8271C,#741CD8,0,10,0,38,1,1835,37,1,273,0,0,experiment,NA,NA,1,0.3,0.7,3,2,72,2,NA
fcp-trial,106,646935,0.0-81.0-0.0,voc_e2,11741,"[{""event"":""fullscreenenter"",""trial"":1,""time"":3622},{""event"":""blur"",""trial"":17,""time"":132171},{""event"":""focus"",""trial"":17,""time"":132584}]",NA,NA,NA,NA,NA,4,#FA92F8,#1CD855,0,10,0,38,1,1684,39,0,974,10,1,experiment,NA,NA,0,0.1,0.9,1,0,73,2,NA
fcp-trial,107,650834,0.0-82.0-0.0,voc_e2,11741,"[{""event"":""fullscreenenter"",""trial"":1,""time"":3622},{""event"":""blur"",""trial"":17,""time"":132171},{""event"":""focus"",""trial"":17,""time"":132584}]",NA,NA,NA,NA,NA,3,#FA92F8,#1CD855,0,10,0,38,1,2046,39,0,336,10,1,experiment,NA,NA,0,0.1,0.9,1,0,74,2,NA
fcp-trial,108,655342,0.0-83.0-0.0,voc_e2,11741,"[{""event"":""fullscreenenter"",""trial"":1,""time"":3622},{""event"":""blur"",""trial"":17,""time"":132171},{""event"":""focus"",""trial"":17,""time"":132584}]",NA,NA,NA,NA,NA,2,#3386FF,#D89F1C,10,0,1,40,0,1784,39,0,1209,0,0,experiment,NA,NA,2,0.5,0.5,4,5,75,2,NA
fcp-trial,109,658828,0.0-84.0-0.0,voc_e2,11741,"[{""event"":""fullscreenenter"",""trial"":1,""time"":3622},{""event"":""blur"",""trial"":17,""time"":132171},{""event"":""focus"",""trial"":17,""time"":132584}]",NA,NA,NA,NA,NA,6,#741CD8,#D8271C,10,0,1,40,0,1298,39,0,677,0,0,experiment,NA,NA,1,0.7,0.3,2,3,76,2,NA
fcp-trial,110,662293,0.0-85.0-0.0,voc_e2,11741,"[{""event"":""fullscreenenter"",""trial"":1,""time"":3622},{""event"":""blur"",""trial"":17,""time"":132171},{""event"":""focus"",""trial"":17,""time"":132584}]",NA,NA,NA,NA,NA,6,#D89F1C,#3386FF,10,10,0,40,0,1048,39,0,903,10,1,experiment,NA,NA,2,0.5,0.5,5,4,77,2,NA
fcp-trial,111,665292,0.0-86.0-0.0,voc_e2,11741,"[{""event"":""fullscreenenter"",""trial"":1,""time"":3622},{""event"":""blur"",""trial"":17,""time"":132171},{""event"":""focus"",""trial"":17,""time"":132584}]",NA,NA,NA,NA,NA,1,#741CD8,#D8271C,10,10,1,38,1,1154,37,1,329,10,1,experiment,NA,NA,1,0.7,0.3,2,3,78,2,NA
fcp-trial,112,668752,0.0-87.0-0.0,voc_e2,11741,"[{""event"":""fullscreenenter"",""trial"":1,""time"":3622},{""event"":""blur"",""trial"":17,""time"":132171},{""event"":""focus"",""trial"":17,""time"":132584}]",NA,NA,NA,NA,NA,0,#1CD855,#FA92F8,0,0,1,38,1,1095,37,1,850,0,1,experiment,NA,NA,0,0.9,0.1,0,1,79,2,NA
fcp-trial,113,672347,0.0-88.0-0.0,voc_e2,11741,"[{""event"":""fullscreenenter"",""trial"":1,""time"":3622},{""event"":""blur"",""trial"":17,""time"":132171},{""event"":""focus"",""trial"":17,""time"":132584}]",NA,NA,NA,NA,NA,3,#741CD8,#D8271C,0,0,1,38,1,1688,39,0,392,0,0,experiment,NA,NA,1,0.7,0.3,2,3,80,2,NA
fcp-trial,114,676701,0.0-89.0-0.0,voc_e2,11741,"[{""event"":""fullscreenenter"",""trial"":1,""time"":3622},{""event"":""blur"",""trial"":17,""time"":132171},{""event"":""focus"",""trial"":17,""time"":132584}]",NA,NA,NA,NA,NA,3,#D89F1C,#3386FF,10,10,0,38,1,1900,37,1,943,10,0,experiment,NA,NA,2,0.5,0.5,5,4,81,2,NA
fcp-trial,115,679503,0.0-90.0-0.0,voc_e2,11741,"[{""event"":""fullscreenenter"",""trial"":1,""time"":3622},{""event"":""blur"",""trial"":17,""time"":132171},{""event"":""focus"",""trial"":17,""time"":132584}]",NA,NA,NA,NA,NA,2,#1CD855,#FA92F8,10,0,1,38,1,905,37,1,385,10,1,experiment,NA,NA,0,0.9,0.1,0,1,82,2,NA
fcp-trial,116,682206,0.0-91.0-0.0,voc_e2,11741,"[{""event"":""fullscreenenter"",""trial"":1,""time"":3622},{""event"":""blur"",""trial"":17,""time"":132171},{""event"":""focus"",""trial"":17,""time"":132584}]",NA,NA,NA,NA,NA,0,#D8271C,#741CD8,0,10,0,38,1,892,37,1,301,0,0,experiment,NA,NA,1,0.3,0.7,3,2,83,2,NA
fcp-trial,117,685780,0.0-92.0-0.0,voc_e2,11741,"[{""event"":""fullscreenenter"",""trial"":1,""time"":3622},{""event"":""blur"",""trial"":17,""time"":132171},{""event"":""focus"",""trial"":17,""time"":132584}]",NA,NA,NA,NA,NA,5,#D8271C,#741CD8,0,10,0,38,1,1182,39,0,880,10,1,experiment,NA,NA,1,0.3,0.7,3,2,84,2,NA
fcp-trial,118,689310,0.0-93.0-0.0,voc_e2,11741,"[{""event"":""fullscreenenter"",""trial"":1,""time"":3622},{""event"":""blur"",""trial"":17,""time"":132171},{""event"":""focus"",""trial"":17,""time"":132584}]",NA,NA,NA,NA,NA,4,#FA92F8,#1CD855,0,10,0,38,1,1675,39,0,341,10,1,experiment,NA,NA,0,0.1,0.9,1,0,85,2,NA
fcp-trial,119,694084,0.0-94.0-0.0,voc_e2,11741,"[{""event"":""fullscreenenter"",""trial"":1,""time"":3622},{""event"":""blur"",""trial"":17,""time"":132171},{""event"":""focus"",""trial"":17,""time"":132584}]",NA,NA,NA,NA,NA,6,#D8271C,#741CD8,10,10,0,40,0,2464,37,1,797,10,0,experiment,NA,NA,1,0.3,0.7,3,2,86,2,NA
fcp-trial,120,697731,0.0-95.0-0.0,voc_e2,11741,"[{""event"":""fullscreenenter"",""trial"":1,""time"":3622},{""event"":""blur"",""trial"":17,""time"":132171},{""event"":""focus"",""trial"":17,""time"":132584}]",NA,NA,NA,NA,NA,5,#D8271C,#741CD8,0,10,0,40,0,1475,37,1,661,0,0,experiment,NA,NA,1,0.3,0.7,3,2,87,2,NA
fcp-trial,121,702364,0.0-96.0-0.0,voc_e2,11741,"[{""event"":""fullscreenenter"",""trial"":1,""time"":3622},{""event"":""blur"",""trial"":17,""time"":132171},{""event"":""focus"",""trial"":17,""time"":132584}]",NA,NA,NA,NA,NA,3,#FA92F8,#1CD855,0,10,0,38,1,2774,39,0,344,10,1,experiment,NA,NA,0,0.1,0.9,1,0,88,2,NA
fcp-trial,122,706655,0.0-97.0-0.0,voc_e2,11741,"[{""event"":""fullscreenenter"",""trial"":1,""time"":3622},{""event"":""blur"",""trial"":17,""time"":132171},{""event"":""focus"",""trial"":17,""time"":132584}]",NA,NA,NA,NA,NA,2,#D89F1C,#3386FF,10,10,0,38,1,1996,37,1,784,10,0,experiment,NA,NA,2,0.5,0.5,5,4,89,2,NA
fcp-trial,123,710972,0.0-98.0-0.0,voc_e2,11741,"[{""event"":""fullscreenenter"",""trial"":1,""time"":3622},{""event"":""blur"",""trial"":17,""time"":132171},{""event"":""focus"",""trial"":17,""time"":132584}]",NA,NA,NA,NA,NA,1,#1CD855,#FA92F8,10,0,1,38,1,1664,37,1,1139,10,1,experiment,NA,NA,0,0.9,0.1,0,1,90,2,NA
fcp-trial,124,714237,0.0-99.0-0.0,voc_e2,11741,"[{""event"":""fullscreenenter"",""trial"":1,""time"":3622},{""event"":""blur"",""trial"":17,""time"":132171},{""event"":""focus"",""trial"":17,""time"":132584}]",NA,NA,NA,NA,NA,0,#741CD8,#D8271C,0,0,1,38,1,1291,39,0,458,0,0,experiment,NA,NA,1,0.7,0.3,2,3,91,3,NA
fcp-trial,125,718176,0.0-100.0-0.0,voc_e2,11741,"[{""event"":""fullscreenenter"",""trial"":1,""time"":3622},{""event"":""blur"",""trial"":17,""time"":132171},{""event"":""focus"",""trial"":17,""time"":132584}]",NA,NA,NA,NA,NA,5,#FA92F8,#1CD855,0,10,0,40,0,1509,37,1,919,0,0,experiment,NA,NA,0,0.1,0.9,1,0,92,3,NA
fcp-trial,126,721953,0.0-101.0-0.0,voc_e2,11741,"[{""event"":""fullscreenenter"",""trial"":1,""time"":3622},{""event"":""blur"",""trial"":17,""time"":132171},{""event"":""focus"",""trial"":17,""time"":132584}]",NA,NA,NA,NA,NA,3,#D89F1C,#3386FF,0,10,0,38,1,1974,39,0,288,10,1,experiment,NA,NA,2,0.5,0.5,5,4,93,3,NA
fcp-trial,127,725777,0.0-102.0-0.0,voc_e2,11741,"[{""event"":""fullscreenenter"",""trial"":1,""time"":3622},{""event"":""blur"",""trial"":17,""time"":132171},{""event"":""focus"",""trial"":17,""time"":132584}]",NA,NA,NA,NA,NA,4,#741CD8,#D8271C,10,0,1,40,0,1766,37,1,544,10,1,experiment,NA,NA,1,0.7,0.3,2,3,94,3,NA
fcp-trial,128,728940,0.0-103.0-0.0,voc_e2,11741,"[{""event"":""fullscreenenter"",""trial"":1,""time"":3622},{""event"":""blur"",""trial"":17,""time"":132171},{""event"":""focus"",""trial"":17,""time"":132584}]",NA,NA,NA,NA,NA,0,#1CD855,#FA92F8,10,0,1,38,1,1303,37,1,349,10,1,experiment,NA,NA,0,0.9,0.1,0,1,95,3,NA
fcp-trial,129,732029,0.0-104.0-0.0,voc_e2,11741,"[{""event"":""fullscreenenter"",""trial"":1,""time"":3622},{""event"":""blur"",""trial"":17,""time"":132171},{""event"":""focus"",""trial"":17,""time"":132584}]",NA,NA,NA,NA,NA,4,#D89F1C,#3386FF,10,0,0,38,1,1267,37,1,310,10,0,experiment,NA,NA,2,0.5,0.5,5,4,96,3,NA
fcp-trial,130,735293,0.0-105.0-0.0,voc_e2,11741,"[{""event"":""fullscreenenter"",""trial"":1,""time"":3622},{""event"":""blur"",""trial"":17,""time"":132171},{""event"":""focus"",""trial"":17,""time"":132584}]",NA,NA,NA,NA,NA,5,#D89F1C,#3386FF,0,10,0,40,0,1233,37,1,515,0,0,experiment,NA,NA,2,0.5,0.5,5,4,97,3,NA
fcp-trial,131,738993,0.0-106.0-0.0,voc_e2,11741,"[{""event"":""fullscreenenter"",""trial"":1,""time"":3622},{""event"":""blur"",""trial"":17,""time"":132171},{""event"":""focus"",""trial"":17,""time"":132584}]",NA,NA,NA,NA,NA,2,#D8271C,#741CD8,10,10,0,38,1,1860,37,1,324,10,0,experiment,NA,NA,1,0.3,0.7,3,2,98,3,NA
fcp-trial,132,742218,0.0-107.0-0.0,voc_e2,11741,"[{""event"":""fullscreenenter"",""trial"":1,""time"":3622},{""event"":""blur"",""trial"":17,""time"":132171},{""event"":""focus"",""trial"":17,""time"":132584}]",NA,NA,NA,NA,NA,0,#3386FF,#D89F1C,10,10,1,38,1,1429,37,1,282,10,1,experiment,NA,NA,2,0.5,0.5,4,5,99,3,NA
fcp-trial,133,745813,0.0-108.0-0.0,voc_e2,11741,"[{""event"":""fullscreenenter"",""trial"":1,""time"":3622},{""event"":""blur"",""trial"":17,""time"":132171},{""event"":""focus"",""trial"":17,""time"":132584}]",NA,NA,NA,NA,NA,2,#FA92F8,#1CD855,0,10,0,38,1,1071,39,0,1002,10,1,experiment,NA,NA,0,0.1,0.9,1,0,100,3,NA
fcp-trial,134,748545,0.0-109.0-0.0,voc_e2,11741,"[{""event"":""fullscreenenter"",""trial"":1,""time"":3622},{""event"":""blur"",""trial"":17,""time"":132171},{""event"":""focus"",""trial"":17,""time"":132584}]",NA,NA,NA,NA,NA,3,#741CD8,#D8271C,10,0,1,38,1,957,37,1,262,10,1,experiment,NA,NA,1,0.7,0.3,2,3,101,3,NA
fcp-trial,135,753360,0.0-110.0-0.0,voc_e2,11741,"[{""event"":""fullscreenenter"",""trial"":1,""time"":3622},{""event"":""blur"",""trial"":17,""time"":132171},{""event"":""focus"",""trial"":17,""time"":132584}]",NA,NA,NA,NA,NA,6,#3386FF,#D89F1C,0,0,1,40,0,2410,37,1,885,0,1,experiment,NA,NA,2,0.5,0.5,4,5,102,3,NA
fcp-trial,136,756136,0.0-111.0-0.0,voc_e2,11741,"[{""event"":""fullscreenenter"",""trial"":1,""time"":3622},{""event"":""blur"",""trial"":17,""time"":132171},{""event"":""focus"",""trial"":17,""time"":132584}]",NA,NA,NA,NA,NA,6,#FA92F8,#1CD855,0,10,0,38,1,986,39,0,280,10,1,experiment,NA,NA,0,0.1,0.9,1,0,103,3,NA
fcp-trial,137,759252,0.0-112.0-0.0,voc_e2,11741,"[{""event"":""fullscreenenter"",""trial"":1,""time"":3622},{""event"":""blur"",""trial"":17,""time"":132171},{""event"":""focus"",""trial"":17,""time"":132584}]",NA,NA,NA,NA,NA,1,#741CD8,#D8271C,0,10,1,38,1,877,37,1,727,0,1,experiment,NA,NA,1,0.7,0.3,2,3,104,3,NA
fcp-trial,138,762072,0.0-113.0-0.0,voc_e2,11741,"[{""event"":""fullscreenenter"",""trial"":1,""time"":3622},{""event"":""blur"",""trial"":17,""time"":132171},{""event"":""focus"",""trial"":17,""time"":132584}]",NA,NA,NA,NA,NA,1,#3386FF,#D89F1C,0,10,1,38,1,784,39,0,524,10,0,experiment,NA,NA,2,0.5,0.5,4,5,105,3,NA
audio-instructions,139,767643,0.0-114.0,voc_e2,11741,"[{""event"":""fullscreenenter"",""trial"":1,""time"":3622},{""event"":""blur"",""trial"":17,""time"":132171},{""event"":""focus"",""trial"":17,""time"":132584}]",NA,1115,static/audio/pause.wav,NA,0,NA,NA,NA,NA,NA,NA,NA,NA,NA,NA,NA,NA,NA,NA,NA,NA,NA,NA,NA,NA,NA,NA,NA,NA,NA
fcp-trial,140,772268,0.0-115.0-0.0,voc_e2,11741,"[{""event"":""fullscreenenter"",""trial"":1,""time"":3622},{""event"":""blur"",""trial"":17,""time"":132171},{""event"":""focus"",""trial"":17,""time"":132584}]",NA,NA,NA,NA,NA,4,#741CD8,#D8271C,0,0,1,40,0,2212,37,1,897,0,1,experiment,NA,NA,1,0.7,0.3,2,3,106,3,NA
fcp-trial,141,775300,0.0-116.0-0.0,voc_e2,11741,"[{""event"":""fullscreenenter"",""trial"":1,""time"":3622},{""event"":""blur"",""trial"":17,""time"":132171},{""event"":""focus"",""trial"":17,""time"":132584}]",NA,NA,NA,NA,NA,0,#741CD8,#D8271C,10,0,1,38,1,1003,39,0,512,0,0,experiment,NA,NA,1,0.7,0.3,2,3,107,3,NA
fcp-trial,142,778236,0.0-117.0-0.0,voc_e2,11741,"[{""event"":""fullscreenenter"",""trial"":1,""time"":3622},{""event"":""blur"",""trial"":17,""time"":132171},{""event"":""focus"",""trial"":17,""time"":132584}]",NA,NA,NA,NA,NA,0,#1CD855,#FA92F8,10,0,1,38,1,1152,37,1,269,10,1,experiment,NA,NA,0,0.9,0.1,0,1,108,3,NA
fcp-trial,143,780815,0.0-118.0-0.0,voc_e2,11741,"[{""event"":""fullscreenenter"",""trial"":1,""time"":3622},{""event"":""blur"",""trial"":17,""time"":132171},{""event"":""focus"",""trial"":17,""time"":132584}]",NA,NA,NA,NA,NA,2,#3386FF,#D89F1C,0,0,1,38,1,765,39,0,304,0,0,experiment,NA,NA,2,0.5,0.5,4,5,109,3,NA
fcp-trial,144,783969,0.0-119.0-0.0,voc_e2,11741,"[{""event"":""fullscreenenter"",""trial"":1,""time"":3622},{""event"":""blur"",""trial"":17,""time"":132171},{""event"":""focus"",""trial"":17,""time"":132584}]",NA,NA,NA,NA,NA,1,#1CD855,#FA92F8,10,0,1,38,1,874,37,1,770,10,1,experiment,NA,NA,0,0.9,0.1,0,1,110,3,NA
fcp-trial,145,786499,0.0-120.0-0.0,voc_e2,11741,"[{""event"":""fullscreenenter"",""trial"":1,""time"":3622},{""event"":""blur"",""trial"":17,""time"":132171},{""event"":""focus"",""trial"":17,""time"":132584}]",NA,NA,NA,NA,NA,2,#1CD855,#FA92F8,10,0,1,38,1,730,37,1,285,10,1,experiment,NA,NA,0,0.9,0.1,0,1,111,3,NA
fcp-trial,146,790737,0.0-121.0-0.0,voc_e2,11741,"[{""event"":""fullscreenenter"",""trial"":1,""time"":3622},{""event"":""blur"",""trial"":17,""time"":132171},{""event"":""focus"",""trial"":17,""time"":132584}]",NA,NA,NA,NA,NA,2,#741CD8,#D8271C,0,0,1,38,1,1113,39,0,1612,0,0,experiment,NA,NA,1,0.7,0.3,2,3,112,3,NA
fcp-trial,147,794083,0.0-122.0-0.0,voc_e2,11741,"[{""event"":""fullscreenenter"",""trial"":1,""time"":3622},{""event"":""blur"",""trial"":17,""time"":132171},{""event"":""focus"",""trial"":17,""time"":132584}]",NA,NA,NA,NA,NA,6,#FA92F8,#1CD855,0,0,0,38,1,1145,39,0,686,0,1,experiment,NA,NA,0,0.1,0.9,1,0,113,3,NA
fcp-trial,148,798514,0.0-123.0-0.0,voc_e2,11741,"[{""event"":""fullscreenenter"",""trial"":1,""time"":3622},{""event"":""blur"",""trial"":17,""time"":132171},{""event"":""focus"",""trial"":17,""time"":132584}]",NA,NA,NA,NA,NA,3,#D89F1C,#3386FF,10,0,0,38,1,1733,37,1,1178,10,0,experiment,NA,NA,2,0.5,0.5,5,4,114,3,NA
fcp-trial,149,802937,0.0-124.0-0.0,voc_e2,11741,"[{""event"":""fullscreenenter"",""trial"":1,""time"":3622},{""event"":""blur"",""trial"":17,""time"":132171},{""event"":""focus"",""trial"":17,""time"":132584}]",NA,NA,NA,NA,NA,1,#741CD8,#D8271C,10,0,1,38,1,2152,39,0,755,0,0,experiment,NA,NA,1,0.7,0.3,2,3,115,3,NA
fcp-trial,150,807274,0.0-125.0-0.0,voc_e2,11741,"[{""event"":""fullscreenenter"",""trial"":1,""time"":3622},{""event"":""blur"",""trial"":17,""time"":132171},{""event"":""focus"",""trial"":17,""time"":132584}]",NA,NA,NA,NA,NA,0,#3386FF,#D89F1C,0,10,1,38,1,1982,37,1,848,0,1,experiment,NA,NA,2,0.5,0.5,4,5,116,3,NA
fcp-trial,151,810505,0.0-126.0-0.0,voc_e2,11741,"[{""event"":""fullscreenenter"",""trial"":1,""time"":3622},{""event"":""blur"",""trial"":17,""time"":132171},{""event"":""focus"",""trial"":17,""time"":132584}]",NA,NA,NA,NA,NA,3,#1CD855,#FA92F8,10,0,1,40,0,1178,37,1,539,10,1,experiment,NA,NA,0,0.9,0.1,0,1,117,3,NA
fcp-trial,152,814511,0.0-127.0-0.0,voc_e2,11741,"[{""event"":""fullscreenenter"",""trial"":1,""time"":3622},{""event"":""blur"",""trial"":17,""time"":132171},{""event"":""focus"",""trial"":17,""time"":132584}]",NA,NA,NA,NA,NA,6,#3386FF,#D89F1C,10,0,1,40,0,1719,37,1,771,10,1,experiment,NA,NA,2,0.5,0.5,4,5,118,3,NA
fcp-trial,153,818318,0.0-128.0-0.0,voc_e2,11741,"[{""event"":""fullscreenenter"",""trial"":1,""time"":3622},{""event"":""blur"",""trial"":17,""time"":132171},{""event"":""focus"",""trial"":17,""time"":132584}]",NA,NA,NA,NA,NA,6,#741CD8,#D8271C,10,0,1,40,0,1678,37,1,621,10,1,experiment,NA,NA,1,0.7,0.3,2,3,119,3,NA
fcp-trial,154,822084,0.0-129.0-0.0,voc_e2,11741,"[{""event"":""fullscreenenter"",""trial"":1,""time"":3622},{""event"":""blur"",""trial"":17,""time"":132171},{""event"":""focus"",""trial"":17,""time"":132584}]",NA,NA,NA,NA,NA,5,#741CD8,#D8271C,10,10,1,40,0,1498,39,0,749,10,0,experiment,NA,NA,1,0.7,0.3,2,3,120,3,NA
fcp-trial,155,825886,0.0-130.0-0.0,voc_e2,11741,"[{""event"":""fullscreenenter"",""trial"":1,""time"":3622},{""event"":""blur"",""trial"":17,""time"":132171},{""event"":""focus"",""trial"":17,""time"":132584}]",NA,NA,NA,NA,NA,4,#1CD855,#FA92F8,10,10,1,40,0,1424,37,1,866,10,1,experiment,NA,NA,0,0.9,0.1,0,1,121,3,NA
fcp-trial,156,829611,0.0-131.0-0.0,voc_e2,11741,"[{""event"":""fullscreenenter"",""trial"":1,""time"":3622},{""event"":""blur"",""trial"":17,""time"":132171},{""event"":""focus"",""trial"":17,""time"":132584}]",NA,NA,NA,NA,NA,5,#D89F1C,#3386FF,0,0,0,40,0,1358,39,0,858,0,1,experiment,NA,NA,2,0.5,0.5,5,4,122,3,NA
fcp-trial,157,833224,0.0-132.0-0.0,voc_e2,11741,"[{""event"":""fullscreenenter"",""trial"":1,""time"":3622},{""event"":""blur"",""trial"":17,""time"":132171},{""event"":""focus"",""trial"":17,""time"":132584}]",NA,NA,NA,NA,NA,5,#1CD855,#FA92F8,10,0,1,40,0,1475,37,1,629,10,1,experiment,NA,NA,0,0.9,0.1,0,1,123,3,NA
fcp-trial,158,836771,0.0-133.0-0.0,voc_e2,11741,"[{""event"":""fullscreenenter"",""trial"":1,""time"":3622},{""event"":""blur"",""trial"":17,""time"":132171},{""event"":""focus"",""trial"":17,""time"":132584}]",NA,NA,NA,NA,NA,3,#741CD8,#D8271C,10,0,1,40,0,1049,39,0,979,0,0,experiment,NA,NA,1,0.7,0.3,2,3,124,3,NA
fcp-trial,159,840087,0.0-134.0-0.0,voc_e2,11741,"[{""event"":""fullscreenenter"",""trial"":1,""time"":3622},{""event"":""blur"",""trial"":17,""time"":132171},{""event"":""focus"",""trial"":17,""time"":132584}]",NA,NA,NA,NA,NA,4,#3386FF,#D89F1C,0,10,1,40,0,1276,39,0,526,10,0,experiment,NA,NA,2,0.5,0.5,4,5,125,3,NA
fcp-trial,160,844998,0.0-135.0-0.0,voc_e2,11741,"[{""event"":""fullscreenenter"",""trial"":1,""time"":3622},{""event"":""blur"",""trial"":17,""time"":132171},{""event"":""focus"",""trial"":17,""time"":132584}]",NA,NA,NA,NA,NA,1,#D89F1C,#3386FF,0,10,0,40,0,2554,37,1,842,0,0,experiment,NA,NA,2,0.5,0.5,5,4,126,3,NA
fcp-trial,161,848595,0.0-136.0-0.0,voc_e2,11741,"[{""event"":""fullscreenenter"",""trial"":1,""time"":3622},{""event"":""blur"",""trial"":17,""time"":132171},{""event"":""focus"",""trial"":17,""time"":132584}]",NA,NA,NA,NA,NA,6,#FA92F8,#1CD855,0,10,0,40,0,1375,37,1,705,0,0,experiment,NA,NA,0,0.1,0.9,1,0,127,3,NA
fcp-trial,162,852986,0.0-137.0-0.0,voc_e2,11741,"[{""event"":""fullscreenenter"",""trial"":1,""time"":3622},{""event"":""blur"",""trial"":17,""time"":132171},{""event"":""focus"",""trial"":17,""time"":132584}]",NA,NA,NA,NA,NA,5,#741CD8,#D8271C,0,0,1,40,0,1536,37,1,1341,0,1,experiment,NA,NA,1,0.7,0.3,2,3,128,3,NA
fcp-trial,163,856776,0.0-138.0-0.0,voc_e2,11741,"[{""event"":""fullscreenenter"",""trial"":1,""time"":3622},{""event"":""blur"",""trial"":17,""time"":132171},{""event"":""focus"",""trial"":17,""time"":132584}]",NA,NA,NA,NA,NA,0,#FA92F8,#1CD855,0,10,0,38,1,1904,39,0,376,10,1,experiment,NA,NA,0,0.1,0.9,1,0,129,3,NA
fcp-trial,164,861220,0.0-139.0-0.0,voc_e2,11741,"[{""event"":""fullscreenenter"",""trial"":1,""time"":3622},{""event"":""blur"",""trial"":17,""time"":132171},{""event"":""focus"",""trial"":17,""time"":132584}]",NA,NA,NA,NA,NA,1,#741CD8,#D8271C,0,0,1,38,1,2127,37,1,799,0,1,experiment,NA,NA,1,0.7,0.3,2,3,130,3,NA
fcp-trial,165,864539,0.0-140.0-0.0,voc_e2,11741,"[{""event"":""fullscreenenter"",""trial"":1,""time"":3622},{""event"":""blur"",""trial"":17,""time"":132171},{""event"":""focus"",""trial"":17,""time"":132584}]",NA,NA,NA,NA,NA,3,#741CD8,#D8271C,10,10,1,40,0,936,37,1,873,10,1,experiment,NA,NA,1,0.7,0.3,2,3,131,3,NA
fcp-trial,166,868779,0.0-141.0-0.0,voc_e2,11741,"[{""event"":""fullscreenenter"",""trial"":1,""time"":3622},{""event"":""blur"",""trial"":17,""time"":132171},{""event"":""focus"",""trial"":17,""time"":132584}]",NA,NA,NA,NA,NA,2,#1CD855,#FA92F8,0,0,1,38,1,2125,39,0,602,0,0,experiment,NA,NA,0,0.9,0.1,0,1,132,3,NA
fcp-trial,167,873652,0.0-142.0-0.0,voc_e2,11741,"[{""event"":""fullscreenenter"",""trial"":1,""time"":3622},{""event"":""blur"",""trial"":17,""time"":132171},{""event"":""focus"",""trial"":17,""time"":132584}]",NA,NA,NA,NA,NA,2,#3386FF,#D89F1C,0,0,1,38,1,2845,39,0,515,0,0,experiment,NA,NA,2,0.5,0.5,4,5,133,3,NA
fcp-trial,168,878124,0.0-143.0-0.0,voc_e2,11741,"[{""event"":""fullscreenenter"",""trial"":1,""time"":3622},{""event"":""blur"",""trial"":17,""time"":132171},{""event"":""focus"",""trial"":17,""time"":132584}]",NA,NA,NA,NA,NA,1,#FA92F8,#1CD855,0,0,0,40,0,1297,39,0,1664,0,1,experiment,NA,NA,0,0.1,0.9,1,0,134,3,NA
fcp-trial,169,881608,0.0-144.0-0.0,voc_e2,11741,"[{""event"":""fullscreenenter"",""trial"":1,""time"":3622},{""event"":""blur"",""trial"":17,""time"":132171},{""event"":""focus"",""trial"":17,""time"":132584}]",NA,NA,NA,NA,NA,6,#741CD8,#D8271C,10,0,1,40,0,1460,37,1,504,10,1,experiment,NA,NA,1,0.7,0.3,2,3,135,3,NA
fcp-trial,170,884759,0.0-145.0-0.0,voc_e2,11741,"[{""event"":""fullscreenenter"",""trial"":1,""time"":3622},{""event"":""blur"",""trial"":17,""time"":132171},{""event"":""focus"",""trial"":17,""time"":132584}]",NA,NA,NA,NA,NA,1,#3386FF,#D89F1C,0,10,1,40,0,798,37,1,840,0,1,experiment,NA,NA,2,0.5,0.5,4,5,136,4,NA
fcp-trial,171,888203,0.0-146.0-0.0,voc_e2,11741,"[{""event"":""fullscreenenter"",""trial"":1,""time"":3622},{""event"":""blur"",""trial"":17,""time"":132171},{""event"":""focus"",""trial"":17,""time"":132584}]",NA,NA,NA,NA,NA,4,#741CD8,#D8271C,10,0,1,40,0,1312,37,1,620,10,1,experiment,NA,NA,1,0.7,0.3,2,3,137,4,NA
fcp-trial,172,892820,0.0-147.0-0.0,voc_e2,11741,"[{""event"":""fullscreenenter"",""trial"":1,""time"":3622},{""event"":""blur"",""trial"":17,""time"":132171},{""event"":""focus"",""trial"":17,""time"":132584}]",NA,NA,NA,NA,NA,6,#3386FF,#D89F1C,0,0,1,40,0,1028,37,1,2074,0,1,experiment,NA,NA,2,0.5,0.5,4,5,138,4,NA
fcp-trial,173,895713,0.0-148.0-0.0,voc_e2,11741,"[{""event"":""fullscreenenter"",""trial"":1,""time"":3622},{""event"":""blur"",""trial"":17,""time"":132171},{""event"":""focus"",""trial"":17,""time"":132584}]",NA,NA,NA,NA,NA,3,#FA92F8,#1CD855,0,10,0,40,0,930,37,1,449,0,0,experiment,NA,NA,0,0.1,0.9,1,0,139,4,NA
fcp-trial,174,899075,0.0-149.0-0.0,voc_e2,11741,"[{""event"":""fullscreenenter"",""trial"":1,""time"":3622},{""event"":""blur"",""trial"":17,""time"":132171},{""event"":""focus"",""trial"":17,""time"":132584}]",NA,NA,NA,NA,NA,4,#3386FF,#D89F1C,10,0,1,40,0,916,39,0,931,0,0,experiment,NA,NA,2,0.5,0.5,4,5,140,4,NA
fcp-trial,175,902961,0.0-150.0-0.0,voc_e2,11741,"[{""event"":""fullscreenenter"",""trial"":1,""time"":3622},{""event"":""blur"",""trial"":17,""time"":132171},{""event"":""focus"",""trial"":17,""time"":132584}]",NA,NA,NA,NA,NA,5,#3386FF,#D89F1C,10,10,1,40,0,1625,39,0,748,10,0,experiment,NA,NA,2,0.5,0.5,4,5,141,4,NA
fcp-trial,176,906584,0.0-151.0-0.0,voc_e2,11741,"[{""event"":""fullscreenenter"",""trial"":1,""time"":3622},{""event"":""blur"",""trial"":17,""time"":132171},{""event"":""focus"",""trial"":17,""time"":132584}]",NA,NA,NA,NA,NA,2,#D8271C,#741CD8,0,10,0,38,1,1485,37,1,619,0,0,experiment,NA,NA,1,0.3,0.7,3,2,142,4,NA
fcp-trial,177,909539,0.0-152.0-0.0,voc_e2,11741,"[{""event"":""fullscreenenter"",""trial"":1,""time"":3622},{""event"":""blur"",""trial"":17,""time"":132171},{""event"":""focus"",""trial"":17,""time"":132584}]",NA,NA,NA,NA,NA,4,#FA92F8,#1CD855,10,10,0,38,1,794,39,0,649,10,1,experiment,NA,NA,0,0.1,0.9,1,0,143,4,NA
fcp-trial,178,912675,0.0-153.0-0.0,voc_e2,11741,"[{""event"":""fullscreenenter"",""trial"":1,""time"":3622},{""event"":""blur"",""trial"":17,""time"":132171},{""event"":""focus"",""trial"":17,""time"":132584}]",NA,NA,NA,NA,NA,0,#741CD8,#D8271C,0,0,1,38,1,1330,37,1,292,0,1,experiment,NA,NA,1,0.7,0.3,2,3,144,4,NA
fcp-trial,179,915747,0.0-154.0-0.0,voc_e2,11741,"[{""event"":""fullscreenenter"",""trial"":1,""time"":3622},{""event"":""blur"",""trial"":17,""time"":132171},{""event"":""focus"",""trial"":17,""time"":132584}]",NA,NA,NA,NA,NA,0,#3386FF,#D89F1C,10,10,1,38,1,844,37,1,717,10,1,experiment,NA,NA,2,0.5,0.5,4,5,145,4,NA
fcp-trial,180,918584,0.0-155.0-0.0,voc_e2,11741,"[{""event"":""fullscreenenter"",""trial"":1,""time"":3622},{""event"":""blur"",""trial"":17,""time"":132171},{""event"":""focus"",""trial"":17,""time"":132584}]",NA,NA,NA,NA,NA,3,#3386FF,#D89F1C,10,10,1,38,1,867,39,0,454,10,0,experiment,NA,NA,2,0.5,0.5,4,5,146,4,NA
fcp-trial,181,921652,0.0-156.0-0.0,voc_e2,11741,"[{""event"":""fullscreenenter"",""trial"":1,""time"":3622},{""event"":""blur"",""trial"":17,""time"":132171},{""event"":""focus"",""trial"":17,""time"":132584}]",NA,NA,NA,NA,NA,5,#1CD855,#FA92F8,10,10,1,38,1,757,37,1,801,10,1,experiment,NA,NA,0,0.9,0.1,0,1,147,4,NA
fcp-trial,182,925071,0.0-157.0-0.0,voc_e2,11741,"[{""event"":""fullscreenenter"",""trial"":1,""time"":3622},{""event"":""blur"",""trial"":17,""time"":132171},{""event"":""focus"",""trial"":17,""time"":132584}]",NA,NA,NA,NA,NA,0,#1CD855,#FA92F8,10,0,1,38,1,1046,39,0,865,0,0,experiment,NA,NA,0,0.9,0.1,0,1,148,4,NA
fcp-trial,183,927938,0.0-158.0-0.0,voc_e2,11741,"[{""event"":""fullscreenenter"",""trial"":1,""time"":3622},{""event"":""blur"",""trial"":17,""time"":132171},{""event"":""focus"",""trial"":17,""time"":132584}]",NA,NA,NA,NA,NA,4,#741CD8,#D8271C,10,0,1,38,1,693,37,1,662,10,1,experiment,NA,NA,1,0.7,0.3,2,3,149,4,NA
fcp-trial,184,930485,0.0-159.0-0.0,voc_e2,11741,"[{""event"":""fullscreenenter"",""trial"":1,""time"":3622},{""event"":""blur"",""trial"":17,""time"":132171},{""event"":""focus"",""trial"":17,""time"":132584}]",NA,NA,NA,NA,NA,5,#D8271C,#741CD8,0,10,0,38,1,671,39,0,362,10,1,experiment,NA,NA,1,0.3,0.7,3,2,150,4,NA
fcp-trial,185,933127,0.0-160.0-0.0,voc_e2,11741,"[{""event"":""fullscreenenter"",""trial"":1,""time"":3622},{""event"":""blur"",""trial"":17,""time"":132171},{""event"":""focus"",""trial"":17,""time"":132584}]",NA,NA,NA,NA,NA,2,#3386FF,#D89F1C,10,10,1,38,1,783,37,1,345,10,1,experiment,NA,NA,2,0.5,0.5,4,5,151,4,NA
fcp-trial,186,936688,0.0-161.0-0.0,voc_e2,11741,"[{""event"":""fullscreenenter"",""trial"":1,""time"":3622},{""event"":""blur"",""trial"":17,""time"":132171},{""event"":""focus"",""trial"":17,""time"":132584}]",NA,NA,NA,NA,NA,6,#FA92F8,#1CD855,0,10,0,38,1,1045,39,0,1007,10,1,experiment,NA,NA,0,0.1,0.9,1,0,152,4,NA
fcp-trial,187,939866,0.0-162.0-0.0,voc_e2,11741,"[{""event"":""fullscreenenter"",""trial"":1,""time"":3622},{""event"":""blur"",""trial"":17,""time"":132171},{""event"":""focus"",""trial"":17,""time"":132584}]",NA,NA,NA,NA,NA,0,#D8271C,#741CD8,10,10,0,38,1,568,39,0,1098,10,1,experiment,NA,NA,1,0.3,0.7,3,2,153,4,NA
fcp-trial,188,942964,0.0-163.0-0.0,voc_e2,11741,"[{""event"":""fullscreenenter"",""trial"":1,""time"":3622},{""event"":""blur"",""trial"":17,""time"":132171},{""event"":""focus"",""trial"":17,""time"":132584}]",NA,NA,NA,NA,NA,0,#D89F1C,#3386FF,0,10,0,38,1,605,37,1,980,0,0,experiment,NA,NA,2,0.5,0.5,5,4,154,4,NA
fcp-trial,189,945466,0.0-164.0-0.0,voc_e2,11741,"[{""event"":""fullscreenenter"",""trial"":1,""time"":3622},{""event"":""blur"",""trial"":17,""time"":132171},{""event"":""focus"",""trial"":17,""time"":132584}]",NA,NA,NA,NA,NA,5,#1CD855,#FA92F8,0,0,1,38,1,689,37,1,302,0,1,experiment,NA,NA,0,0.9,0.1,0,1,155,4,NA
fcp-trial,190,947746,0.0-165.0-0.0,voc_e2,11741,"[{""event"":""fullscreenenter"",""trial"":1,""time"":3622},{""event"":""blur"",""trial"":17,""time"":132171},{""event"":""focus"",""trial"":17,""time"":132584}]",NA,NA,NA,NA,NA,3,#1CD855,#FA92F8,10,0,1,38,1,175,37,1,593,10,1,experiment,NA,NA,0,0.9,0.1,0,1,156,4,NA
fcp-trial,191,951101,0.0-166.0-0.0,voc_e2,11741,"[{""event"":""fullscreenenter"",""trial"":1,""time"":3622},{""event"":""blur"",""trial"":17,""time"":132171},{""event"":""focus"",""trial"":17,""time"":132584}]",NA,NA,NA,NA,NA,3,#D89F1C,#3386FF,0,0,0,38,1,1135,39,0,706,0,1,experiment,NA,NA,2,0.5,0.5,5,4,157,4,NA
fcp-trial,192,953510,0.0-167.0-0.0,voc_e2,11741,"[{""event"":""fullscreenenter"",""trial"":1,""time"":3622},{""event"":""blur"",""trial"":17,""time"":132171},{""event"":""focus"",""trial"":17,""time"":132584}]",NA,NA,NA,NA,NA,3,#D8271C,#741CD8,0,0,0,38,1,477,39,0,411,0,1,experiment,NA,NA,1,0.3,0.7,3,2,158,4,NA
fcp-trial,193,956564,0.0-168.0-0.0,voc_e2,11741,"[{""event"":""fullscreenenter"",""trial"":1,""time"":3622},{""event"":""blur"",""trial"":17,""time"":132171},{""event"":""focus"",""trial"":17,""time"":132584}]",NA,NA,NA,NA,NA,6,#741CD8,#D8271C,10,0,1,40,0,749,37,1,794,10,1,experiment,NA,NA,1,0.7,0.3,2,3,159,4,NA
fcp-trial,194,959866,0.0-169.0-0.0,voc_e2,11741,"[{""event"":""fullscreenenter"",""trial"":1,""time"":3622},{""event"":""blur"",""trial"":17,""time"":132171},{""event"":""focus"",""trial"":17,""time"":132584}]",NA,NA,NA,NA,NA,1,#D89F1C,#3386FF,10,10,0,38,1,1494,37,1,296,10,0,experiment,NA,NA,2,0.5,0.5,5,4,160,4,NA
fcp-trial,195,962268,0.0-170.0-0.0,voc_e2,11741,"[{""event"":""fullscreenenter"",""trial"":1,""time"":3622},{""event"":""blur"",""trial"":17,""time"":132171},{""event"":""focus"",""trial"":17,""time"":132584}]",NA,NA,NA,NA,NA,4,#FA92F8,#1CD855,0,10,0,38,1,504,39,0,383,10,1,experiment,NA,NA,0,0.1,0.9,1,0,161,4,NA
fcp-trial,196,965499,0.0-171.0-0.0,voc_e2,11741,"[{""event"":""fullscreenenter"",""trial"":1,""time"":3622},{""event"":""blur"",""trial"":17,""time"":132171},{""event"":""focus"",""trial"":17,""time"":132584}]",NA,NA,NA,NA,NA,6,#3386FF,#D89F1C,0,0,1,38,1,776,37,1,942,0,1,experiment,NA,NA,2,0.5,0.5,4,5,162,4,NA
fcp-trial,197,968275,0.0-172.0-0.0,voc_e2,11741,"[{""event"":""fullscreenenter"",""trial"":1,""time"":3622},{""event"":""blur"",""trial"":17,""time"":132171},{""event"":""focus"",""trial"":17,""time"":132584}]",NA,NA,NA,NA,NA,2,#741CD8,#D8271C,10,0,1,38,1,823,39,0,438,0,0,experiment,NA,NA,1,0.7,0.3,2,3,163,4,NA
fcp-trial,198,971206,0.0-173.0-0.0,voc_e2,11741,"[{""event"":""fullscreenenter"",""trial"":1,""time"":3622},{""event"":""blur"",""trial"":17,""time"":132171},{""event"":""focus"",""trial"":17,""time"":132584}]",NA,NA,NA,NA,NA,1,#1CD855,#FA92F8,10,0,1,38,1,1062,37,1,354,10,1,experiment,NA,NA,0,0.9,0.1,0,1,164,4,NA
fcp-trial,199,974739,0.0-174.0-0.0,voc_e2,11741,"[{""event"":""fullscreenenter"",""trial"":1,""time"":3622},{""event"":""blur"",""trial"":17,""time"":132171},{""event"":""focus"",""trial"":17,""time"":132584}]",NA,NA,NA,NA,NA,1,#741CD8,#D8271C,10,0,1,38,1,1051,37,1,970,10,1,experiment,NA,NA,1,0.7,0.3,2,3,165,4,NA
fcp-trial,200,977888,0.0-175.0-0.0,voc_e2,11741,"[{""event"":""fullscreenenter"",""trial"":1,""time"":3622},{""event"":""blur"",""trial"":17,""time"":132171},{""event"":""focus"",""trial"":17,""time"":132584}]",NA,NA,NA,NA,NA,5,#D89F1C,#3386FF,10,0,0,38,1,1056,37,1,581,10,0,experiment,NA,NA,2,0.5,0.5,5,4,166,4,NA
fcp-trial,201,981008,0.0-176.0-0.0,voc_e2,11741,"[{""event"":""fullscreenenter"",""trial"":1,""time"":3622},{""event"":""blur"",""trial"":17,""time"":132171},{""event"":""focus"",""trial"":17,""time"":132584}]",NA,NA,NA,NA,NA,4,#D89F1C,#3386FF,0,10,0,38,1,1317,37,1,287,0,0,experiment,NA,NA,2,0.5,0.5,5,4,167,4,NA
fcp-trial,202,983414,0.0-177.0-0.0,voc_e2,11741,"[{""event"":""fullscreenenter"",""trial"":1,""time"":3622},{""event"":""blur"",""trial"":17,""time"":132171},{""event"":""focus"",""trial"":17,""time"":132584}]",NA,NA,NA,NA,NA,2,#FA92F8,#1CD855,0,10,0,38,1,602,39,0,293,10,1,experiment,NA,NA,0,0.1,0.9,1,0,168,4,NA
fcp-trial,203,987567,0.0-178.0-0.0,voc_e2,11741,"[{""event"":""fullscreenenter"",""trial"":1,""time"":3622},{""event"":""blur"",""trial"":17,""time"":132171},{""event"":""focus"",""trial"":17,""time"":132584}]",NA,NA,NA,NA,NA,6,#FA92F8,#1CD855,0,10,0,40,0,2038,39,0,604,10,1,experiment,NA,NA,0,0.1,0.9,1,0,169,4,NA
fcp-trial,204,990702,0.0-179.0-0.0,voc_e2,11741,"[{""event"":""fullscreenenter"",""trial"":1,""time"":3622},{""event"":""blur"",""trial"":17,""time"":132171},{""event"":""focus"",""trial"":17,""time"":132584}]",NA,NA,NA,NA,NA,0,#FA92F8,#1CD855,0,10,0,38,1,1209,39,0,416,10,1,experiment,NA,NA,0,0.1,0.9,1,0,170,4,NA
fcp-trial,205,994088,0.0-180.0-0.0,voc_e2,11741,"[{""event"":""fullscreenenter"",""trial"":1,""time"":3622},{""event"":""blur"",""trial"":17,""time"":132171},{""event"":""focus"",""trial"":17,""time"":132584}]",NA,NA,NA,NA,NA,2,#1CD855,#FA92F8,10,0,1,38,1,1049,37,1,826,10,1,experiment,NA,NA,0,0.9,0.1,0,1,171,4,NA
fcp-trial,206,998506,0.0-181.0-0.0,voc_e2,11741,"[{""event"":""fullscreenenter"",""trial"":1,""time"":3622},{""event"":""blur"",""trial"":17,""time"":132171},{""event"":""focus"",""trial"":17,""time"":132584}]",NA,NA,NA,NA,NA,6,#741CD8,#D8271C,10,10,1,38,1,1764,39,0,1140,10,0,experiment,NA,NA,1,0.7,0.3,2,3,172,4,NA
fcp-trial,207,1002487,0.0-182.0-0.0,voc_e2,11741,"[{""event"":""fullscreenenter"",""trial"":1,""time"":3622},{""event"":""blur"",""trial"":17,""time"":132171},{""event"":""focus"",""trial"":17,""time"":132584}]",NA,NA,NA,NA,NA,5,#741CD8,#D8271C,10,10,1,40,0,1625,39,0,838,10,0,experiment,NA,NA,1,0.7,0.3,2,3,173,4,NA
fcp-trial,208,1005371,0.0-183.0-0.0,voc_e2,11741,"[{""event"":""fullscreenenter"",""trial"":1,""time"":3622},{""event"":""blur"",""trial"":17,""time"":132171},{""event"":""focus"",""trial"":17,""time"":132584}]",NA,NA,NA,NA,NA,1,#1CD855,#FA92F8,10,10,1,38,1,1028,37,1,342,10,1,experiment,NA,NA,0,0.9,0.1,0,1,174,4,NA
fcp-trial,209,1008515,0.0-184.0-0.0,voc_e2,11741,"[{""event"":""fullscreenenter"",""trial"":1,""time"":3622},{""event"":""blur"",""trial"":17,""time"":132171},{""event"":""focus"",""trial"":17,""time"":132584}]",NA,NA,NA,NA,NA,2,#D8271C,#741CD8,0,0,0,40,0,815,37,1,819,0,0,experiment,NA,NA,1,0.3,0.7,3,2,175,4,NA
fcp-trial,210,1011684,0.0-185.0-0.0,voc_e2,11741,"[{""event"":""fullscreenenter"",""trial"":1,""time"":3622},{""event"":""blur"",""trial"":17,""time"":132171},{""event"":""focus"",""trial"":17,""time"":132584}]",NA,NA,NA,NA,NA,2,#D89F1C,#3386FF,10,0,0,38,1,841,39,0,816,0,1,experiment,NA,NA,2,0.5,0.5,5,4,176,4,NA
fcp-trial,211,1015127,0.0-186.0-0.0,voc_e2,11741,"[{""event"":""fullscreenenter"",""trial"":1,""time"":3622},{""event"":""blur"",""trial"":17,""time"":132171},{""event"":""focus"",""trial"":17,""time"":132584}]",NA,NA,NA,NA,NA,5,#1CD855,#FA92F8,0,0,1,40,0,1568,37,1,361,0,1,experiment,NA,NA,0,0.9,0.1,0,1,177,4,NA
fcp-trial,212,1018465,0.0-187.0-0.0,voc_e2,11741,"[{""event"":""fullscreenenter"",""trial"":1,""time"":3622},{""event"":""blur"",""trial"":17,""time"":132171},{""event"":""focus"",""trial"":17,""time"":132584}]",NA,NA,NA,NA,NA,1,#741CD8,#D8271C,10,0,1,40,0,1257,39,0,566,0,0,experiment,NA,NA,1,0.7,0.3,2,3,178,4,NA
fcp-trial,213,1021235,0.0-188.0-0.0,voc_e2,11741,"[{""event"":""fullscreenenter"",""trial"":1,""time"":3622},{""event"":""blur"",""trial"":17,""time"":132171},{""event"":""focus"",""trial"":17,""time"":132584}]",NA,NA,NA,NA,NA,3,#3386FF,#D89F1C,0,10,1,40,0,950,37,1,309,0,1,experiment,NA,NA,2,0.5,0.5,4,5,179,4,NA
fcp-trial,214,1023967,0.0-189.0-0.0,voc_e2,11741,"[{""event"":""fullscreenenter"",""trial"":1,""time"":3622},{""event"":""blur"",""trial"":17,""time"":132171},{""event"":""focus"",""trial"":17,""time"":132584}]",NA,NA,NA,NA,NA,6,#3386FF,#D89F1C,0,10,1,40,0,599,39,0,624,10,0,experiment,NA,NA,2,0.5,0.5,4,5,180,4,NA
fcp-trial,215,1027232,0.0-190.0-0.0,voc_e2,11741,"[{""event"":""fullscreenenter"",""trial"":1,""time"":3622},{""event"":""blur"",""trial"":17,""time"":132171},{""event"":""focus"",""trial"":17,""time"":132584}]",NA,NA,NA,NA,NA,1,#3386FF,#D89F1C,10,10,1,40,0,1132,37,1,624,10,1,experiment,NA,NA,2,0.5,0.5,4,5,181,5,NA
fcp-trial,216,1030969,0.0-191.0-0.0,voc_e2,11741,"[{""event"":""fullscreenenter"",""trial"":1,""time"":3622},{""event"":""blur"",""trial"":17,""time"":132171},{""event"":""focus"",""trial"":17,""time"":132584}]",NA,NA,NA,NA,NA,3,#FA92F8,#1CD855,0,10,0,40,0,1333,37,1,895,0,0,experiment,NA,NA,0,0.1,0.9,1,0,182,5,NA
fcp-trial,217,1036417,0.0-192.0-0.0,voc_e2,11741,"[{""event"":""fullscreenenter"",""trial"":1,""time"":3622},{""event"":""blur"",""trial"":17,""time"":132171},{""event"":""focus"",""trial"":17,""time"":132584}]",NA,NA,NA,NA,NA,0,#D8271C,#741CD8,0,10,0,38,1,2748,37,1,1191,0,0,experiment,NA,NA,1,0.3,0.7,3,2,183,5,NA
fcp-trial,218,1039614,0.0-193.0-0.0,voc_e2,11741,"[{""event"":""fullscreenenter"",""trial"":1,""time"":3622},{""event"":""blur"",""trial"":17,""time"":132171},{""event"":""focus"",""trial"":17,""time"":132584}]",NA,NA,NA,NA,NA,4,#D89F1C,#3386FF,0,10,0,40,0,1229,37,1,464,0,0,experiment,NA,NA,2,0.5,0.5,5,4,184,5,NA
fcp-trial,219,1042656,0.0-194.0-0.0,voc_e2,11741,"[{""event"":""fullscreenenter"",""trial"":1,""time"":3622},{""event"":""blur"",""trial"":17,""time"":132171},{""event"":""focus"",""trial"":17,""time"":132584}]",NA,NA,NA,NA,NA,4,#FA92F8,#1CD855,0,10,0,40,0,1171,39,0,358,10,1,experiment,NA,NA,0,0.1,0.9,1,0,185,5,NA
fcp-trial,220,1045703,0.0-195.0-0.0,voc_e2,11741,"[{""event"":""fullscreenenter"",""trial"":1,""time"":3622},{""event"":""blur"",""trial"":17,""time"":132171},{""event"":""focus"",""trial"":17,""time"":132584}]",NA,NA,NA,NA,NA,0,#D89F1C,#3386FF,10,0,0,38,1,1022,37,1,514,10,0,experiment,NA,NA,2,0.5,0.5,5,4,186,5,NA
fcp-trial,221,1048845,0.0-196.0-0.0,voc_e2,11741,"[{""event"":""fullscreenenter"",""trial"":1,""time"":3622},{""event"":""blur"",""trial"":17,""time"":132171},{""event"":""focus"",""trial"":17,""time"":132584}]",NA,NA,NA,NA,NA,5,#D89F1C,#3386FF,10,0,0,40,0,941,37,1,686,10,0,experiment,NA,NA,2,0.5,0.5,5,4,187,5,NA
fcp-trial,222,1052216,0.0-197.0-0.0,voc_e2,11741,"[{""event"":""fullscreenenter"",""trial"":1,""time"":3622},{""event"":""blur"",""trial"":17,""time"":132171},{""event"":""focus"",""trial"":17,""time"":132584}]",NA,NA,NA,NA,NA,4,#741CD8,#D8271C,10,10,1,40,0,1458,39,0,404,10,0,experiment,NA,NA,1,0.7,0.3,2,3,188,5,NA
fcp-trial,223,1055349,0.0-198.0-0.0,voc_e2,11741,"[{""event"":""fullscreenenter"",""trial"":1,""time"":3622},{""event"":""blur"",""trial"":17,""time"":132171},{""event"":""focus"",""trial"":17,""time"":132584}]",NA,NA,NA,NA,NA,3,#741CD8,#D8271C,10,0,1,40,0,972,39,0,644,0,0,experiment,NA,NA,1,0.7,0.3,2,3,189,5,NA
fcp-trial,224,1058599,0.0-199.0-0.0,voc_e2,11741,"[{""event"":""fullscreenenter"",""trial"":1,""time"":3622},{""event"":""blur"",""trial"":17,""time"":132171},{""event"":""focus"",""trial"":17,""time"":132584}]",NA,NA,NA,NA,NA,6,#1CD855,#FA92F8,10,0,1,40,0,976,39,0,758,0,0,experiment,NA,NA,0,0.9,0.1,0,1,190,5,NA
fcp-trial,225,1062400,0.0-200.0-0.0,voc_e2,11741,"[{""event"":""fullscreenenter"",""trial"":1,""time"":3622},{""event"":""blur"",""trial"":17,""time"":132171},{""event"":""focus"",""trial"":17,""time"":132584}]",NA,NA,NA,NA,NA,0,#D8271C,#741CD8,0,10,0,40,0,1004,39,0,1281,10,1,experiment,NA,NA,1,0.3,0.7,3,2,191,5,NA
fcp-trial,226,1067549,0.0-201.0-0.0,voc_e2,11741,"[{""event"":""fullscreenenter"",""trial"":1,""time"":3622},{""event"":""blur"",""trial"":17,""time"":132171},{""event"":""focus"",""trial"":17,""time"":132584}]",NA,NA,NA,NA,NA,2,#D8271C,#741CD8,0,10,0,38,1,2717,37,1,918,0,0,experiment,NA,NA,1,0.3,0.7,3,2,192,5,NA
fcp-trial,227,1070677,0.0-202.0-0.0,voc_e2,11741,"[{""event"":""fullscreenenter"",""trial"":1,""time"":3622},{""event"":""blur"",""trial"":17,""time"":132171},{""event"":""focus"",""trial"":17,""time"":132584}]",NA,NA,NA,NA,NA,3,#D89F1C,#3386FF,0,0,0,40,0,784,37,1,832,0,0,experiment,NA,NA,2,0.5,0.5,5,4,193,5,NA
fcp-trial,228,1073810,0.0-203.0-0.0,voc_e2,11741,"[{""event"":""fullscreenenter"",""trial"":1,""time"":3622},{""event"":""blur"",""trial"":17,""time"":132171},{""event"":""focus"",""trial"":17,""time"":132584}]",NA,NA,NA,NA,NA,4,#741CD8,#D8271C,10,0,1,40,0,1186,39,0,433,0,0,experiment,NA,NA,1,0.7,0.3,2,3,194,5,NA
fcp-trial,229,1077286,0.0-204.0-0.0,voc_e2,11741,"[{""event"":""fullscreenenter"",""trial"":1,""time"":3622},{""event"":""blur"",""trial"":17,""time"":132171},{""event"":""focus"",""trial"":17,""time"":132584}]",NA,NA,NA,NA,NA,4,#FA92F8,#1CD855,10,10,0,40,0,1379,37,1,584,10,0,experiment,NA,NA,0,0.1,0.9,1,0,195,5,NA
fcp-trial,230,1080754,0.0-205.0-0.0,voc_e2,11741,"[{""event"":""fullscreenenter"",""trial"":1,""time"":3622},{""event"":""blur"",""trial"":17,""time"":132171},{""event"":""focus"",""trial"":17,""time"":132584}]",NA,NA,NA,NA,NA,1,#D8271C,#741CD8,10,10,0,40,0,1559,39,0,396,10,1,experiment,NA,NA,1,0.3,0.7,3,2,196,5,NA
fcp-trial,231,1084062,0.0-206.0-0.0,voc_e2,11741,"[{""event"":""fullscreenenter"",""trial"":1,""time"":3622},{""event"":""blur"",""trial"":17,""time"":132171},{""event"":""focus"",""trial"":17,""time"":132584}]",NA,NA,NA,NA,NA,0,#3386FF,#D89F1C,10,10,1,38,1,1433,37,1,363,10,1,experiment,NA,NA,2,0.5,0.5,4,5,197,5,NA
fcp-trial,232,1087312,0.0-207.0-0.0,voc_e2,11741,"[{""event"":""fullscreenenter"",""trial"":1,""time"":3622},{""event"":""blur"",""trial"":17,""time"":132171},{""event"":""focus"",""trial"":17,""time"":132584}]",NA,NA,NA,NA,NA,6,#3386FF,#D89F1C,0,10,1,40,0,1048,39,0,686,10,0,experiment,NA,NA,2,0.5,0.5,4,5,198,5,NA
fcp-trial,233,1091375,0.0-208.0-0.0,voc_e2,11741,"[{""event"":""fullscreenenter"",""trial"":1,""time"":3622},{""event"":""blur"",""trial"":17,""time"":132171},{""event"":""focus"",""trial"":17,""time"":132584}]",NA,NA,NA,NA,NA,6,#741CD8,#D8271C,0,10,1,40,0,1151,39,0,1393,10,0,experiment,NA,NA,1,0.7,0.3,2,3,199,5,NA
fcp-trial,234,1094391,0.0-209.0-0.0,voc_e2,11741,"[{""event"":""fullscreenenter"",""trial"":1,""time"":3622},{""event"":""blur"",""trial"":17,""time"":132171},{""event"":""focus"",""trial"":17,""time"":132584}]",NA,NA,NA,NA,NA,3,#1CD855,#FA92F8,10,0,1,40,0,1154,37,1,354,10,1,experiment,NA,NA,0,0.9,0.1,0,1,200,5,NA
fcp-trial,235,1097483,0.0-210.0-0.0,voc_e2,11741,"[{""event"":""fullscreenenter"",""trial"":1,""time"":3622},{""event"":""blur"",""trial"":17,""time"":132171},{""event"":""focus"",""trial"":17,""time"":132584}]",NA,NA,NA,NA,NA,5,#D8271C,#741CD8,10,0,0,40,0,802,37,1,776,10,0,experiment,NA,NA,1,0.3,0.7,3,2,201,5,NA
fcp-trial,236,1101657,0.0-211.0-0.0,voc_e2,11741,"[{""event"":""fullscreenenter"",""trial"":1,""time"":3622},{""event"":""blur"",""trial"":17,""time"":132171},{""event"":""focus"",""trial"":17,""time"":132584}]",NA,NA,NA,NA,NA,5,#3386FF,#D89F1C,0,10,1,40,0,1424,39,0,1237,10,0,experiment,NA,NA,2,0.5,0.5,4,5,202,5,NA
fcp-trial,237,1105160,0.0-212.0-0.0,voc_e2,11741,"[{""event"":""fullscreenenter"",""trial"":1,""time"":3622},{""event"":""blur"",""trial"":17,""time"":132171},{""event"":""focus"",""trial"":17,""time"":132584}]",NA,NA,NA,NA,NA,1,#FA92F8,#1CD855,0,10,0,40,0,911,39,0,1080,10,1,experiment,NA,NA,0,0.1,0.9,1,0,203,5,NA
fcp-trial,238,1108830,0.0-213.0-0.0,voc_e2,11741,"[{""event"":""fullscreenenter"",""trial"":1,""time"":3622},{""event"":""blur"",""trial"":17,""time"":132171},{""event"":""focus"",""trial"":17,""time"":132584}]",NA,NA,NA,NA,NA,1,#3386FF,#D89F1C,10,0,1,40,0,1310,39,0,847,0,0,experiment,NA,NA,2,0.5,0.5,4,5,204,5,NA
fcp-trial,239,1112222,0.0-214.0-0.0,voc_e2,11741,"[{""event"":""fullscreenenter"",""trial"":1,""time"":3622},{""event"":""blur"",""trial"":17,""time"":132171},{""event"":""focus"",""trial"":17,""time"":132584}]",NA,NA,NA,NA,NA,2,#3386FF,#D89F1C,10,10,1,40,0,1124,39,0,753,10,0,experiment,NA,NA,2,0.5,0.5,4,5,205,5,NA
fcp-trial,240,1115485,0.0-215.0-0.0,voc_e2,11741,"[{""event"":""fullscreenenter"",""trial"":1,""time"":3622},{""event"":""blur"",""trial"":17,""time"":132171},{""event"":""focus"",""trial"":17,""time"":132584}]",NA,NA,NA,NA,NA,3,#D8271C,#741CD8,10,10,0,40,0,1022,39,0,730,10,1,experiment,NA,NA,1,0.3,0.7,3,2,206,5,NA
fcp-trial,241,1118608,0.0-216.0-0.0,voc_e2,11741,"[{""event"":""fullscreenenter"",""trial"":1,""time"":3622},{""event"":""blur"",""trial"":17,""time"":132171},{""event"":""focus"",""trial"":17,""time"":132584}]",NA,NA,NA,NA,NA,5,#1CD855,#FA92F8,0,0,1,40,0,942,37,1,665,0,1,experiment,NA,NA,0,0.9,0.1,0,1,207,5,NA
fcp-trial,242,1121594,0.0-217.0-0.0,voc_e2,11741,"[{""event"":""fullscreenenter"",""trial"":1,""time"":3622},{""event"":""blur"",""trial"":17,""time"":132171},{""event"":""focus"",""trial"":17,""time"":132584}]",NA,NA,NA,NA,NA,4,#D89F1C,#3386FF,10,0,0,40,0,885,37,1,588,10,0,experiment,NA,NA,2,0.5,0.5,5,4,208,5,NA
fcp-trial,243,1124873,0.0-218.0-0.0,voc_e2,11741,"[{""event"":""fullscreenenter"",""trial"":1,""time"":3622},{""event"":""blur"",""trial"":17,""time"":132171},{""event"":""focus"",""trial"":17,""time"":132584}]",NA,NA,NA,NA,NA,0,#FA92F8,#1CD855,0,0,0,40,0,1147,37,1,621,0,0,experiment,NA,NA,0,0.1,0.9,1,0,209,5,NA
fcp-trial,244,1128529,0.0-219.0-0.0,voc_e2,11741,"[{""event"":""fullscreenenter"",""trial"":1,""time"":3622},{""event"":""blur"",""trial"":17,""time"":132171},{""event"":""focus"",""trial"":17,""time"":132584}]",NA,NA,NA,NA,NA,2,#1CD855,#FA92F8,10,0,1,40,0,1492,37,1,651,10,1,experiment,NA,NA,0,0.9,0.1,0,1,210,5,NA
audio-instructions,245,1133489,0.0-220.0,voc_e2,11741,"[{""event"":""fullscreenenter"",""trial"":1,""time"":3622},{""event"":""blur"",""trial"":17,""time"":132171},{""event"":""focus"",""trial"":17,""time"":132584}]",NA,502,static/audio/pause.wav,NA,0,NA,NA,NA,NA,NA,NA,NA,NA,NA,NA,NA,NA,NA,NA,NA,NA,NA,NA,NA,NA,NA,NA,NA,NA,NA
fcp-trial,246,1138080,0.0-221.0-0.0,voc_e2,11741,"[{""event"":""fullscreenenter"",""trial"":1,""time"":3622},{""event"":""blur"",""trial"":17,""time"":132171},{""event"":""focus"",""trial"":17,""time"":132584}]",NA,NA,NA,NA,NA,2,#FA92F8,#1CD855,0,0,0,40,0,1645,37,1,1428,0,0,experiment,NA,NA,0,0.1,0.9,1,0,211,5,NA
fcp-trial,247,1140978,0.0-222.0-0.0,voc_e2,11741,"[{""event"":""fullscreenenter"",""trial"":1,""time"":3622},{""event"":""blur"",""trial"":17,""time"":132171},{""event"":""focus"",""trial"":17,""time"":132584}]",NA,NA,NA,NA,NA,2,#741CD8,#D8271C,0,10,1,40,0,850,37,1,533,0,1,experiment,NA,NA,1,0.7,0.3,2,3,212,5,NA
fcp-trial,248,1145724,0.0-223.0-0.0,voc_e2,11741,"[{""event"":""fullscreenenter"",""trial"":1,""time"":3622},{""event"":""blur"",""trial"":17,""time"":132171},{""event"":""focus"",""trial"":17,""time"":132584}]",NA,NA,NA,NA,NA,0,#3386FF,#D89F1C,0,10,1,38,1,1846,39,0,1386,10,0,experiment,NA,NA,2,0.5,0.5,4,5,213,5,NA
fcp-trial,249,1148948,0.0-224.0-0.0,voc_e2,11741,"[{""event"":""fullscreenenter"",""trial"":1,""time"":3622},{""event"":""blur"",""trial"":17,""time"":132171},{""event"":""focus"",""trial"":17,""time"":132584}]",NA,NA,NA,NA,NA,0,#741CD8,#D8271C,10,0,1,40,0,945,39,0,765,0,0,experiment,NA,NA,1,0.7,0.3,2,3,214,5,NA
fcp-trial,250,1151950,0.0-225.0-0.0,voc_e2,11741,"[{""event"":""fullscreenenter"",""trial"":1,""time"":3622},{""event"":""blur"",""trial"":17,""time"":132171},{""event"":""focus"",""trial"":17,""time"":132584}]",NA,NA,NA,NA,NA,4,#1CD855,#FA92F8,10,0,1,40,0,976,37,1,513,10,1,experiment,NA,NA,0,0.9,0.1,0,1,215,5,NA
fcp-trial,251,1154768,0.0-226.0-0.0,voc_e2,11741,"[{""event"":""fullscreenenter"",""trial"":1,""time"":3622},{""event"":""blur"",""trial"":17,""time"":132171},{""event"":""focus"",""trial"":17,""time"":132584}]",NA,NA,NA,NA,NA,3,#3386FF,#D89F1C,0,10,1,40,0,713,39,0,586,10,0,experiment,NA,NA,2,0.5,0.5,4,5,216,5,NA
fcp-trial,252,1157980,0.0-227.0-0.0,voc_e2,11741,"[{""event"":""fullscreenenter"",""trial"":1,""time"":3622},{""event"":""blur"",""trial"":17,""time"":132171},{""event"":""focus"",""trial"":17,""time"":132584}]",NA,NA,NA,NA,NA,5,#D8271C,#741CD8,10,10,0,40,0,1123,39,0,573,10,1,experiment,NA,NA,1,0.3,0.7,3,2,217,5,NA
fcp-trial,253,1161609,0.0-228.0-0.0,voc_e2,11741,"[{""event"":""fullscreenenter"",""trial"":1,""time"":3622},{""event"":""blur"",""trial"":17,""time"":132171},{""event"":""focus"",""trial"":17,""time"":132584}]",NA,NA,NA,NA,NA,4,#3386FF,#D89F1C,10,0,1,40,0,850,37,1,1258,10,1,experiment,NA,NA,2,0.5,0.5,4,5,218,5,NA
fcp-trial,254,1166045,0.0-229.0-0.0,voc_e2,11741,"[{""event"":""fullscreenenter"",""trial"":1,""time"":3622},{""event"":""blur"",""trial"":17,""time"":132171},{""event"":""focus"",""trial"":17,""time"":132584}]",NA,NA,NA,NA,NA,1,#3386FF,#D89F1C,0,0,1,40,0,2243,37,1,677,0,1,experiment,NA,NA,2,0.5,0.5,4,5,219,5,NA
fcp-trial,255,1169268,0.0-230.0-0.0,voc_e2,11741,"[{""event"":""fullscreenenter"",""trial"":1,""time"":3622},{""event"":""blur"",""trial"":17,""time"":132171},{""event"":""focus"",""trial"":17,""time"":132584}]",NA,NA,NA,NA,NA,5,#1CD855,#FA92F8,10,0,1,40,0,1100,39,0,612,0,0,experiment,NA,NA,0,0.9,0.1,0,1,220,5,NA
fcp-trial,256,1172569,0.0-231.0-0.0,voc_e2,11741,"[{""event"":""fullscreenenter"",""trial"":1,""time"":3622},{""event"":""blur"",""trial"":17,""time"":132171},{""event"":""focus"",""trial"":17,""time"":132584}]",NA,NA,NA,NA,NA,1,#D8271C,#741CD8,0,10,0,40,0,1040,39,0,745,10,1,experiment,NA,NA,1,0.3,0.7,3,2,221,5,NA
fcp-trial,257,1176537,0.0-232.0-0.0,voc_e2,11741,"[{""event"":""fullscreenenter"",""trial"":1,""time"":3622},{""event"":""blur"",""trial"":17,""time"":132171},{""event"":""focus"",""trial"":17,""time"":132584}]",NA,NA,NA,NA,NA,6,#D8271C,#741CD8,0,10,0,40,0,1753,39,0,698,10,1,experiment,NA,NA,1,0.3,0.7,3,2,222,5,NA
fcp-trial,258,1181239,0.0-233.0-0.0,voc_e2,11741,"[{""event"":""fullscreenenter"",""trial"":1,""time"":3622},{""event"":""blur"",""trial"":17,""time"":132171},{""event"":""focus"",""trial"":17,""time"":132584}]",NA,NA,NA,NA,NA,3,#1CD855,#FA92F8,10,0,1,38,1,1966,37,1,1223,10,1,experiment,NA,NA,0,0.9,0.1,0,1,223,5,NA
fcp-trial,259,1185092,0.0-234.0-0.0,voc_e2,11741,"[{""event"":""fullscreenenter"",""trial"":1,""time"":3622},{""event"":""blur"",""trial"":17,""time"":132171},{""event"":""focus"",""trial"":17,""time"":132584}]",NA,NA,NA,NA,NA,6,#D89F1C,#3386FF,10,0,0,40,0,1260,37,1,1082,10,0,experiment,NA,NA,2,0.5,0.5,5,4,224,5,NA
fcp-trial,260,1189096,0.0-235.0-0.0,voc_e2,11741,"[{""event"":""fullscreenenter"",""trial"":1,""time"":3622},{""event"":""blur"",""trial"":17,""time"":132171},{""event"":""focus"",""trial"":17,""time"":132584}]",NA,NA,NA,NA,NA,1,#FA92F8,#1CD855,0,10,0,38,1,1221,39,0,1270,10,1,experiment,NA,NA,0,0.1,0.9,1,0,225,5,NA
fcp-trial,261,1193092,0.0-236.0-0.0,voc_e2,11741,"[{""event"":""fullscreenenter"",""trial"":1,""time"":3622},{""event"":""blur"",""trial"":17,""time"":132171},{""event"":""focus"",""trial"":17,""time"":132584}]",NA,NA,NA,NA,NA,2,#D89F1C,#3386FF,10,0,0,40,0,1967,37,1,514,10,0,experiment,NA,NA,2,0.5,0.5,5,4,226,6,NA
fcp-trial,262,1196505,0.0-237.0-0.0,voc_e2,11741,"[{""event"":""fullscreenenter"",""trial"":1,""time"":3622},{""event"":""blur"",""trial"":17,""time"":132171},{""event"":""focus"",""trial"":17,""time"":132584}]",NA,NA,NA,NA,NA,4,#D8271C,#741CD8,0,10,0,40,0,1381,37,1,522,0,0,experiment,NA,NA,1,0.3,0.7,3,2,227,6,NA
fcp-trial,263,1200741,0.0-238.0-0.0,voc_e2,11741,"[{""event"":""fullscreenenter"",""trial"":1,""time"":3622},{""event"":""blur"",""trial"":17,""time"":132171},{""event"":""focus"",""trial"":17,""time"":132584}]",NA,NA,NA,NA,NA,0,#1CD855,#FA92F8,10,0,1,38,1,1964,37,1,761,10,1,experiment,NA,NA,0,0.9,0.1,0,1,228,6,NA
fcp-trial,264,1204561,0.0-239.0-0.0,voc_e2,11741,"[{""event"":""fullscreenenter"",""trial"":1,""time"":3622},{""event"":""blur"",""trial"":17,""time"":132171},{""event"":""focus"",""trial"":17,""time"":132584}]",NA,NA,NA,NA,NA,5,#D89F1C,#3386FF,10,10,0,38,1,1157,39,0,1150,10,1,experiment,NA,NA,2,0.5,0.5,5,4,229,6,NA
fcp-trial,265,1208334,0.0-240.0-0.0,voc_e2,11741,"[{""event"":""fullscreenenter"",""trial"":1,""time"":3622},{""event"":""blur"",""trial"":17,""time"":132171},{""event"":""focus"",""trial"":17,""time"":132584}]",NA,NA,NA,NA,NA,6,#1CD855,#FA92F8,10,0,1,40,0,1479,39,0,776,0,0,experiment,NA,NA,0,0.9,0.1,0,1,230,6,NA
fcp-trial,266,1212261,0.0-241.0-0.0,voc_e2,11741,"[{""event"":""fullscreenenter"",""trial"":1,""time"":3622},{""event"":""blur"",""trial"":17,""time"":132171},{""event"":""focus"",""trial"":17,""time"":132584}]",NA,NA,NA,NA,NA,3,#D8271C,#741CD8,0,10,0,38,1,1978,37,1,438,0,0,experiment,NA,NA,1,0.3,0.7,3,2,231,6,NA
fcp-trial,267,1216281,0.0-242.0-0.0,voc_e2,11741,"[{""event"":""fullscreenenter"",""trial"":1,""time"":3622},{""event"":""blur"",""trial"":17,""time"":132171},{""event"":""focus"",""trial"":17,""time"":132584}]",NA,NA,NA,NA,NA,1,#D89F1C,#3386FF,10,0,0,38,1,1414,39,0,1097,0,1,experiment,NA,NA,2,0.5,0.5,5,4,232,6,NA
fcp-trial,268,1219610,0.0-243.0-0.0,voc_e2,11741,"[{""event"":""fullscreenenter"",""trial"":1,""time"":3622},{""event"":""blur"",""trial"":17,""time"":132171},{""event"":""focus"",""trial"":17,""time"":132584}]",NA,NA,NA,NA,NA,4,#D8271C,#741CD8,0,10,0,40,0,1165,39,0,656,10,1,experiment,NA,NA,1,0.3,0.7,3,2,233,6,NA
fcp-trial,269,1223730,0.0-244.0-0.0,voc_e2,11741,"[{""event"":""fullscreenenter"",""trial"":1,""time"":3622},{""event"":""blur"",""trial"":17,""time"":132171},{""event"":""focus"",""trial"":17,""time"":132584}]",NA,NA,NA,NA,NA,5,#D8271C,#741CD8,0,0,0,40,0,1686,39,0,924,0,1,experiment,NA,NA,1,0.3,0.7,3,2,234,6,NA
fcp-trial,270,1227505,0.0-245.0-0.0,voc_e2,11741,"[{""event"":""fullscreenenter"",""trial"":1,""time"":3622},{""event"":""blur"",""trial"":17,""time"":132171},{""event"":""focus"",""trial"":17,""time"":132584}]",NA,NA,NA,NA,NA,6,#3386FF,#D89F1C,0,0,1,40,0,1580,39,0,682,0,0,experiment,NA,NA,2,0.5,0.5,4,5,235,6,NA
fcp-trial,271,1232546,0.0-246.0-0.0,voc_e2,11741,"[{""event"":""fullscreenenter"",""trial"":1,""time"":3622},{""event"":""blur"",""trial"":17,""time"":132171},{""event"":""focus"",""trial"":17,""time"":132584}]",NA,NA,NA,NA,NA,4,#1CD855,#FA92F8,10,0,1,40,0,1961,37,1,1567,10,1,experiment,NA,NA,0,0.9,0.1,0,1,236,6,NA
fcp-trial,272,1236522,0.0-247.0-0.0,voc_e2,11741,"[{""event"":""fullscreenenter"",""trial"":1,""time"":3622},{""event"":""blur"",""trial"":17,""time"":132171},{""event"":""focus"",""trial"":17,""time"":132584}]",NA,NA,NA,NA,NA,5,#D89F1C,#3386FF,0,10,0,40,0,1615,37,1,849,0,0,experiment,NA,NA,2,0.5,0.5,5,4,237,6,NA
fcp-trial,273,1240570,0.0-248.0-0.0,voc_e2,11741,"[{""event"":""fullscreenenter"",""trial"":1,""time"":3622},{""event"":""blur"",""trial"":17,""time"":132171},{""event"":""focus"",""trial"":17,""time"":132584}]",NA,NA,NA,NA,NA,3,#1CD855,#FA92F8,10,10,1,40,0,1388,39,0,1146,10,0,experiment,NA,NA,0,0.9,0.1,0,1,238,6,NA
fcp-trial,274,1244496,0.0-249.0-0.0,voc_e2,11741,"[{""event"":""fullscreenenter"",""trial"":1,""time"":3622},{""event"":""blur"",""trial"":17,""time"":132171},{""event"":""focus"",""trial"":17,""time"":132584}]",NA,NA,NA,NA,NA,1,#741CD8,#D8271C,10,10,1,38,1,1685,39,0,720,10,0,experiment,NA,NA,1,0.7,0.3,2,3,239,6,NA
fcp-trial,275,1248620,0.0-250.0-0.0,voc_e2,11741,"[{""event"":""fullscreenenter"",""trial"":1,""time"":3622},{""event"":""blur"",""trial"":17,""time"":132171},{""event"":""focus"",""trial"":17,""time"":132584}]",NA,NA,NA,NA,NA,5,#FA92F8,#1CD855,0,10,0,40,0,1850,39,0,760,10,1,experiment,NA,NA,0,0.1,0.9,1,0,240,6,NA
fcp-trial,276,1252778,0.0-251.0-0.0,voc_e2,11741,"[{""event"":""fullscreenenter"",""trial"":1,""time"":3622},{""event"":""blur"",""trial"":17,""time"":132171},{""event"":""focus"",""trial"":17,""time"":132584}]",NA,NA,NA,NA,NA,2,#FA92F8,#1CD855,0,10,0,40,0,1618,39,0,1027,10,1,experiment,NA,NA,0,0.1,0.9,1,0,241,6,NA
fcp-trial,277,1256786,0.0-252.0-0.0,voc_e2,11741,"[{""event"":""fullscreenenter"",""trial"":1,""time"":3622},{""event"":""blur"",""trial"":17,""time"":132171},{""event"":""focus"",""trial"":17,""time"":132584}]",NA,NA,NA,NA,NA,2,#3386FF,#D89F1C,10,0,1,40,0,1586,39,0,908,0,0,experiment,NA,NA,2,0.5,0.5,4,5,242,6,NA
fcp-trial,278,1260299,0.0-253.0-0.0,voc_e2,11741,"[{""event"":""fullscreenenter"",""trial"":1,""time"":3622},{""event"":""blur"",""trial"":17,""time"":132171},{""event"":""focus"",""trial"":17,""time"":132584}]",NA,NA,NA,NA,NA,6,#D8271C,#741CD8,10,10,0,40,0,1213,37,1,789,10,0,experiment,NA,NA,1,0.3,0.7,3,2,243,6,NA
fcp-trial,279,1263479,0.0-254.0-0.0,voc_e2,11741,"[{""event"":""fullscreenenter"",""trial"":1,""time"":3622},{""event"":""blur"",""trial"":17,""time"":132171},{""event"":""focus"",""trial"":17,""time"":132584}]",NA,NA,NA,NA,NA,3,#D8271C,#741CD8,10,0,0,40,0,1055,39,0,614,0,1,experiment,NA,NA,1,0.3,0.7,3,2,244,6,NA
fcp-trial,280,1266509,0.0-255.0-0.0,voc_e2,11741,"[{""event"":""fullscreenenter"",""trial"":1,""time"":3622},{""event"":""blur"",""trial"":17,""time"":132171},{""event"":""focus"",""trial"":17,""time"":132584}]",NA,NA,NA,NA,NA,6,#FA92F8,#1CD855,0,10,0,40,0,872,37,1,648,0,0,experiment,NA,NA,0,0.1,0.9,1,0,245,6,NA
fcp-trial,281,1270138,0.0-256.0-0.0,voc_e2,11741,"[{""event"":""fullscreenenter"",""trial"":1,""time"":3622},{""event"":""blur"",""trial"":17,""time"":132171},{""event"":""focus"",""trial"":17,""time"":132584}]",NA,NA,NA,NA,NA,0,#D89F1C,#3386FF,10,0,0,38,1,1146,39,0,971,0,1,experiment,NA,NA,2,0.5,0.5,5,4,246,6,NA
fcp-trial,282,1273719,0.0-257.0-0.0,voc_e2,11741,"[{""event"":""fullscreenenter"",""trial"":1,""time"":3622},{""event"":""blur"",""trial"":17,""time"":132171},{""event"":""focus"",""trial"":17,""time"":132584}]",NA,NA,NA,NA,NA,2,#741CD8,#D8271C,10,0,1,40,0,1318,37,1,752,10,1,experiment,NA,NA,1,0.7,0.3,2,3,247,6,NA
fcp-trial,283,1277728,0.0-258.0-0.0,voc_e2,11741,"[{""event"":""fullscreenenter"",""trial"":1,""time"":3622},{""event"":""blur"",""trial"":17,""time"":132171},{""event"":""focus"",""trial"":17,""time"":132584}]",NA,NA,NA,NA,NA,4,#3386FF,#D89F1C,0,0,1,40,0,1611,39,0,888,0,0,experiment,NA,NA,2,0.5,0.5,4,5,248,6,NA
fcp-trial,284,1283008,0.0-259.0-0.0,voc_e2,11741,"[{""event"":""fullscreenenter"",""trial"":1,""time"":3622},{""event"":""blur"",""trial"":17,""time"":132171},{""event"":""focus"",""trial"":17,""time"":132584}]",NA,NA,NA,NA,NA,1,#1CD855,#FA92F8,10,0,1,40,0,1930,39,0,1834,0,0,experiment,NA,NA,0,0.9,0.1,0,1,249,6,NA
fcp-trial,285,1286708,0.0-260.0-0.0,voc_e2,11741,"[{""event"":""fullscreenenter"",""trial"":1,""time"":3622},{""event"":""blur"",""trial"":17,""time"":132171},{""event"":""focus"",""trial"":17,""time"":132584}]",NA,NA,NA,NA,NA,0,#1CD855,#FA92F8,10,0,1,38,1,1501,37,1,680,10,1,experiment,NA,NA,0,0.9,0.1,0,1,250,6,NA
fcp-trial,286,1290246,0.0-261.0-0.0,voc_e2,11741,"[{""event"":""fullscreenenter"",""trial"":1,""time"":3622},{""event"":""blur"",""trial"":17,""time"":132171},{""event"":""focus"",""trial"":17,""time"":132584}]",NA,NA,NA,NA,NA,3,#3386FF,#D89F1C,0,10,1,38,1,1608,37,1,409,0,1,experiment,NA,NA,2,0.5,0.5,4,5,251,6,NA
fcp-trial,287,1294405,0.0-262.0-0.0,voc_e2,11741,"[{""event"":""fullscreenenter"",""trial"":1,""time"":3622},{""event"":""blur"",""trial"":17,""time"":132171},{""event"":""focus"",""trial"":17,""time"":132584}]",NA,NA,NA,NA,NA,0,#741CD8,#D8271C,0,10,1,38,1,1519,39,0,1128,10,0,experiment,NA,NA,1,0.7,0.3,2,3,252,6,NA
fcp-trial,288,1298118,0.0-263.0-0.0,voc_e2,11741,"[{""event"":""fullscreenenter"",""trial"":1,""time"":3622},{""event"":""blur"",""trial"":17,""time"":132171},{""event"":""focus"",""trial"":17,""time"":132584}]",NA,NA,NA,NA,NA,0,#FA92F8,#1CD855,0,10,0,38,1,1741,39,0,461,10,1,experiment,NA,NA,0,0.1,0.9,1,0,253,6,NA
fcp-trial,289,1301927,0.0-264.0-0.0,voc_e2,11741,"[{""event"":""fullscreenenter"",""trial"":1,""time"":3622},{""event"":""blur"",""trial"":17,""time"":132171},{""event"":""focus"",""trial"":17,""time"":132584}]",NA,NA,NA,NA,NA,0,#741CD8,#D8271C,10,10,1,40,0,1193,39,0,1105,10,0,experiment,NA,NA,1,0.7,0.3,2,3,254,6,NA
fcp-trial,290,1308731,0.0-265.0-0.0,voc_e2,11741,"[{""event"":""fullscreenenter"",""trial"":1,""time"":3622},{""event"":""blur"",""trial"":17,""time"":132171},{""event"":""focus"",""trial"":17,""time"":132584}]",NA,NA,NA,NA,NA,6,#D8271C,#741CD8,0,0,0,40,0,2565,37,1,2723,0,0,experiment,NA,NA,1,0.3,0.7,3,2,255,6,NA
fcp-trial,291,1313669,0.0-266.0-0.0,voc_e2,11741,"[{""event"":""fullscreenenter"",""trial"":1,""time"":3622},{""event"":""blur"",""trial"":17,""time"":132171},{""event"":""focus"",""trial"":17,""time"":132584}]",NA,NA,NA,NA,NA,3,#3386FF,#D89F1C,10,0,1,38,1,2241,37,1,1186,10,1,experiment,NA,NA,2,0.5,0.5,4,5,256,6,NA
fcp-trial,292,1318519,0.0-267.0-0.0,voc_e2,11741,"[{""event"":""fullscreenenter"",""trial"":1,""time"":3622},{""event"":""blur"",""trial"":17,""time"":132171},{""event"":""focus"",""trial"":17,""time"":132584}]",NA,NA,NA,NA,NA,6,#FA92F8,#1CD855,0,10,0,40,0,1497,37,1,1836,0,0,experiment,NA,NA,0,0.1,0.9,1,0,257,6,NA
fcp-trial,293,1321872,0.0-268.0-0.0,voc_e2,11741,"[{""event"":""fullscreenenter"",""trial"":1,""time"":3622},{""event"":""blur"",""trial"":17,""time"":132171},{""event"":""focus"",""trial"":17,""time"":132584}]",NA,NA,NA,NA,NA,4,#741CD8,#D8271C,10,10,1,40,0,984,39,0,857,10,0,experiment,NA,NA,1,0.7,0.3,2,3,258,6,NA
fcp-trial,294,1325660,0.0-269.0-0.0,voc_e2,11741,"[{""event"":""fullscreenenter"",""trial"":1,""time"":3622},{""event"":""blur"",""trial"":17,""time"":132171},{""event"":""focus"",""trial"":17,""time"":132584}]",NA,NA,NA,NA,NA,5,#FA92F8,#1CD855,10,10,0,40,0,951,39,0,1325,10,1,experiment,NA,NA,0,0.1,0.9,1,0,259,6,NA
fcp-trial,295,1329475,0.0-270.0-0.0,voc_e2,11741,"[{""event"":""fullscreenenter"",""trial"":1,""time"":3622},{""event"":""blur"",""trial"":17,""time"":132171},{""event"":""focus"",""trial"":17,""time"":132584}]",NA,NA,NA,NA,NA,0,#3386FF,#D89F1C,0,10,1,38,1,1403,39,0,892,10,0,experiment,NA,NA,2,0.5,0.5,4,5,260,6,NA
fcp-trial,296,1333380,0.0-271.0-0.0,voc_e2,11741,"[{""event"":""fullscreenenter"",""trial"":1,""time"":3622},{""event"":""blur"",""trial"":17,""time"":132171},{""event"":""focus"",""trial"":17,""time"":132584}]",NA,NA,NA,NA,NA,2,#741CD8,#D8271C,10,10,1,40,0,1099,39,0,1291,10,0,experiment,NA,NA,1,0.7,0.3,2,3,261,6,NA
fcp-trial,297,1337023,0.0-272.0-0.0,voc_e2,11741,"[{""event"":""fullscreenenter"",""trial"":1,""time"":3622},{""event"":""blur"",""trial"":17,""time"":132171},{""event"":""focus"",""trial"":17,""time"":132584}]",NA,NA,NA,NA,NA,6,#3386FF,#D89F1C,0,0,1,40,0,942,39,0,1188,0,0,experiment,NA,NA,2,0.5,0.5,4,5,262,6,NA
fcp-trial,298,1340766,0.0-273.0-0.0,voc_e2,11741,"[{""event"":""fullscreenenter"",""trial"":1,""time"":3622},{""event"":""blur"",""trial"":17,""time"":132171},{""event"":""focus"",""trial"":17,""time"":132584}]",NA,NA,NA,NA,NA,4,#D89F1C,#3386FF,10,0,0,40,0,1591,37,1,643,10,0,experiment,NA,NA,2,0.5,0.5,5,4,263,6,NA
fcp-trial,299,1344014,0.0-274.0-0.0,voc_e2,11741,"[{""event"":""fullscreenenter"",""trial"":1,""time"":3622},{""event"":""blur"",""trial"":17,""time"":132171},{""event"":""focus"",""trial"":17,""time"":132584}]",NA,NA,NA,NA,NA,2,#FA92F8,#1CD855,0,10,0,40,0,840,37,1,890,0,0,experiment,NA,NA,0,0.1,0.9,1,0,264,6,NA
fcp-trial,300,1347214,0.0-275.0-0.0,voc_e2,11741,"[{""event"":""fullscreenenter"",""trial"":1,""time"":3622},{""event"":""blur"",""trial"":17,""time"":132171},{""event"":""focus"",""trial"":17,""time"":132584}]",NA,NA,NA,NA,NA,5,#741CD8,#D8271C,10,0,1,40,0,818,37,1,866,10,1,experiment,NA,NA,1,0.7,0.3,2,3,265,6,NA
fcp-trial,301,1350874,0.0-276.0-0.0,voc_e2,11741,"[{""event"":""fullscreenenter"",""trial"":1,""time"":3622},{""event"":""blur"",""trial"":17,""time"":132171},{""event"":""focus"",""trial"":17,""time"":132584}]",NA,NA,NA,NA,NA,1,#D8271C,#741CD8,10,10,0,40,0,1000,39,0,1143,10,1,experiment,NA,NA,1,0.3,0.7,3,2,266,6,NA
fcp-trial,302,1354747,0.0-277.0-0.0,voc_e2,11741,"[{""event"":""fullscreenenter"",""trial"":1,""time"":3622},{""event"":""blur"",""trial"":17,""time"":132171},{""event"":""focus"",""trial"":17,""time"":132584}]",NA,NA,NA,NA,NA,5,#3386FF,#D89F1C,0,10,1,40,0,1164,39,0,1198,10,0,experiment,NA,NA,2,0.5,0.5,4,5,267,6,NA
fcp-trial,303,1358414,0.0-278.0-0.0,voc_e2,11741,"[{""event"":""fullscreenenter"",""trial"":1,""time"":3622},{""event"":""blur"",""trial"":17,""time"":132171},{""event"":""focus"",""trial"":17,""time"":132584}]",NA,NA,NA,NA,NA,1,#3386FF,#D89F1C,0,10,1,40,0,1394,39,0,763,10,0,experiment,NA,NA,2,0.5,0.5,4,5,268,6,NA
fcp-trial,304,1362948,0.0-279.0-0.0,voc_e2,11741,"[{""event"":""fullscreenenter"",""trial"":1,""time"":3622},{""event"":""blur"",""trial"":17,""time"":132171},{""event"":""focus"",""trial"":17,""time"":132584}]",NA,NA,NA,NA,NA,4,#1CD855,#FA92F8,10,10,1,40,0,1082,37,1,1940,10,1,experiment,NA,NA,0,0.9,0.1,0,1,269,6,NA
fcp-trial,305,1366504,0.0-280.0-0.0,voc_e2,11741,"[{""event"":""fullscreenenter"",""trial"":1,""time"":3622},{""event"":""blur"",""trial"":17,""time"":132171},{""event"":""focus"",""trial"":17,""time"":132584}]",NA,NA,NA,NA,NA,2,#D89F1C,#3386FF,0,0,0,40,0,1263,37,1,779,0,0,experiment,NA,NA,2,0.5,0.5,5,4,270,6,NA
fcp-trial,306,1370018,0.0-281.0-0.0,voc_e2,11741,"[{""event"":""fullscreenenter"",""trial"":1,""time"":3622},{""event"":""blur"",""trial"":17,""time"":132171},{""event"":""focus"",""trial"":17,""time"":132584}]",NA,NA,NA,NA,NA,3,#741CD8,#D8271C,10,0,1,40,0,1000,37,1,1003,10,1,experiment,NA,NA,1,0.7,0.3,2,3,271,7,NA
fcp-trial,307,1373711,0.0-282.0-0.0,voc_e2,11741,"[{""event"":""fullscreenenter"",""trial"":1,""time"":3622},{""event"":""blur"",""trial"":17,""time"":132171},{""event"":""focus"",""trial"":17,""time"":132584}]",NA,NA,NA,NA,NA,1,#1CD855,#FA92F8,10,10,1,40,0,1184,37,1,994,10,1,experiment,NA,NA,0,0.9,0.1,0,1,272,7,NA
fcp-trial,308,1376441,0.0-283.0-0.0,voc_e2,11741,"[{""event"":""fullscreenenter"",""trial"":1,""time"":3622},{""event"":""blur"",""trial"":17,""time"":132171},{""event"":""focus"",""trial"":17,""time"":132584}]",NA,NA,NA,NA,NA,3,#FA92F8,#1CD855,0,10,0,40,0,521,39,0,694,10,1,experiment,NA,NA,0,0.1,0.9,1,0,273,7,NA
fcp-trial,309,1379735,0.0-284.0-0.0,voc_e2,11741,"[{""event"":""fullscreenenter"",""trial"":1,""time"":3622},{""event"":""blur"",""trial"":17,""time"":132171},{""event"":""focus"",""trial"":17,""time"":132584}]",NA,NA,NA,NA,NA,1,#1CD855,#FA92F8,0,0,1,40,0,1042,37,1,735,0,1,experiment,NA,NA,0,0.9,0.1,0,1,274,7,NA
fcp-trial,310,1382807,0.0-285.0-0.0,voc_e2,11741,"[{""event"":""fullscreenenter"",""trial"":1,""time"":3622},{""event"":""blur"",""trial"":17,""time"":132171},{""event"":""focus"",""trial"":17,""time"":132584}]",NA,NA,NA,NA,NA,5,#3386FF,#D89F1C,0,0,1,40,0,865,39,0,697,0,0,experiment,NA,NA,2,0.5,0.5,4,5,275,7,NA
fcp-trial,311,1386685,0.0-286.0-0.0,voc_e2,11741,"[{""event"":""fullscreenenter"",""trial"":1,""time"":3622},{""event"":""blur"",""trial"":17,""time"":132171},{""event"":""focus"",""trial"":17,""time"":132584}]",NA,NA,NA,NA,NA,6,#741CD8,#D8271C,0,0,1,40,0,880,39,0,1486,0,0,experiment,NA,NA,1,0.7,0.3,2,3,276,7,NA
fcp-trial,312,1390386,0.0-287.0-0.0,voc_e2,11741,"[{""event"":""fullscreenenter"",""trial"":1,""time"":3622},{""event"":""blur"",""trial"":17,""time"":132171},{""event"":""focus"",""trial"":17,""time"":132584}]",NA,NA,NA,NA,NA,0,#FA92F8,#1CD855,0,10,0,38,1,1321,39,0,863,10,1,experiment,NA,NA,0,0.1,0.9,1,0,277,7,NA
fcp-trial,313,1393721,0.0-288.0-0.0,voc_e2,11741,"[{""event"":""fullscreenenter"",""trial"":1,""time"":3622},{""event"":""blur"",""trial"":17,""time"":132171},{""event"":""focus"",""trial"":17,""time"":132584}]",NA,NA,NA,NA,NA,4,#741CD8,#D8271C,10,0,1,40,0,1235,37,1,589,10,1,experiment,NA,NA,1,0.7,0.3,2,3,278,7,NA
fcp-trial,314,1397403,0.0-289.0-0.0,voc_e2,11741,"[{""event"":""fullscreenenter"",""trial"":1,""time"":3622},{""event"":""blur"",""trial"":17,""time"":132171},{""event"":""focus"",""trial"":17,""time"":132584}]",NA,NA,NA,NA,NA,4,#1CD855,#FA92F8,10,0,1,40,0,1530,39,0,641,0,0,experiment,NA,NA,0,0.9,0.1,0,1,279,7,NA
fcp-trial,315,1400694,0.0-290.0-0.0,voc_e2,11741,"[{""event"":""fullscreenenter"",""trial"":1,""time"":3622},{""event"":""blur"",""trial"":17,""time"":132171},{""event"":""focus"",""trial"":17,""time"":132584}]",NA,NA,NA,NA,NA,1,#D89F1C,#3386FF,10,10,0,38,1,1232,37,1,545,10,0,experiment,NA,NA,2,0.5,0.5,5,4,280,7,NA
fcp-trial,316,1403706,0.0-291.0-0.0,voc_e2,11741,"[{""event"":""fullscreenenter"",""trial"":1,""time"":3622},{""event"":""blur"",""trial"":17,""time"":132171},{""event"":""focus"",""trial"":17,""time"":132584}]",NA,NA,NA,NA,NA,3,#D89F1C,#3386FF,0,0,0,40,0,987,37,1,516,0,0,experiment,NA,NA,2,0.5,0.5,5,4,281,7,NA
fcp-trial,317,1408126,0.0-292.0-0.0,voc_e2,11741,"[{""event"":""fullscreenenter"",""trial"":1,""time"":3622},{""event"":""blur"",""trial"":17,""time"":132171},{""event"":""focus"",""trial"":17,""time"":132584}]",NA,NA,NA,NA,NA,2,#D8271C,#741CD8,0,10,0,38,1,1342,37,1,1567,0,0,experiment,NA,NA,1,0.3,0.7,3,2,282,7,NA
fcp-trial,318,1411390,0.0-293.0-0.0,voc_e2,11741,"[{""event"":""fullscreenenter"",""trial"":1,""time"":3622},{""event"":""blur"",""trial"":17,""time"":132171},{""event"":""focus"",""trial"":17,""time"":132584}]",NA,NA,NA,NA,NA,5,#FA92F8,#1CD855,0,10,0,40,0,1262,39,0,484,10,1,experiment,NA,NA,0,0.1,0.9,1,0,283,7,NA
fcp-trial,319,1414663,0.0-294.0-0.0,voc_e2,11741,"[{""event"":""fullscreenenter"",""trial"":1,""time"":3622},{""event"":""blur"",""trial"":17,""time"":132171},{""event"":""focus"",""trial"":17,""time"":132584}]",NA,NA,NA,NA,NA,4,#D89F1C,#3386FF,0,0,0,40,0,963,37,1,800,0,0,experiment,NA,NA,2,0.5,0.5,5,4,284,7,NA
fcp-trial,320,1418429,0.0-295.0-0.0,voc_e2,11741,"[{""event"":""fullscreenenter"",""trial"":1,""time"":3622},{""event"":""blur"",""trial"":17,""time"":132171},{""event"":""focus"",""trial"":17,""time"":132584}]",NA,NA,NA,NA,NA,0,#D8271C,#741CD8,0,10,0,40,0,816,39,0,1430,10,1,experiment,NA,NA,1,0.3,0.7,3,2,285,7,NA
