trial_type,trial_index,time_elapsed,internal_node_id,task_version,subject_id,interactions,success,rt,stimulus,key_press,button_pressed,offer,arcade_color_L,arcade_color_R,arcade_outcome_L,arcade_outcome_R,correct,stage_1_key,stage_1_choice,stage_1_rt,stage_2_key,stage_2_choice,stage_2_rt,stage_3_outcome,accuracy,phase,responses,num_errors,context,reward_prob_L,reward_prob_R,arcade_id_L,arcade_id_R,trial,block,response
pavlovia,0,11,0.0-0.0,voc_e2,12012,[],NA,NA,NA,NA,NA,NA,NA,NA,NA,NA,NA,NA,NA,NA,NA,NA,NA,NA,NA,NA,NA,NA,NA,NA,NA,NA,NA,NA,NA,NA
fullscreen,1,13651,0.0-1.0,voc_e2,12012,"[{""event"":""fullscreenenter"",""trial"":1,""time"":12838}]",TRUE,NA,NA,NA,NA,NA,NA,NA,NA,NA,NA,NA,NA,NA,NA,NA,NA,NA,NA,NA,NA,NA,NA,NA,NA,NA,NA,NA,NA,NA
audio-keyboard-response,2,16284,0.0-2.0,voc_e2,12012,"[{""event"":""fullscreenenter"",""trial"":1,""time"":12838}]",NA,2461,static/audio/beep_loop.wav,32,NA,NA,NA,NA,NA,NA,NA,NA,NA,NA,NA,NA,NA,NA,NA,NA,NA,NA,NA,NA,NA,NA,NA,NA,NA,NA
audio-test,3,18412,0.0-3.0,voc_e2,12012,"[{""event"":""fullscreenenter"",""trial"":1,""time"":12838}]",NA,NA,static/audio/turtle.wav,NA,3,NA,NA,NA,NA,NA,NA,NA,NA,NA,NA,NA,NA,NA,NA,NA,NA,NA,NA,NA,NA,NA,NA,NA,NA,NA
audio-test,4,20558,0.0-4.0,voc_e2,12012,"[{""event"":""fullscreenenter"",""trial"":1,""time"":12838}]",NA,NA,static/audio/shark.wav,NA,2,NA,NA,NA,NA,NA,NA,NA,NA,NA,NA,NA,NA,NA,NA,NA,NA,NA,NA,NA,NA,NA,NA,NA,NA,NA
audio-instructions,5,27374,0.0-5.0-0.0,voc_e2,12012,"[{""event"":""fullscreenenter"",""trial"":1,""time"":12838}]",NA,1027.2000000476835,static/audio/instructions1.wav,NA,0,NA,NA,NA,NA,NA,NA,NA,NA,NA,NA,NA,NA,NA,NA,NA,NA,NA,NA,NA,NA,NA,NA,NA,NA,NA
audio-instructions,6,35824,0.0-5.0-1.0,voc_e2,12012,"[{""event"":""fullscreenenter"",""trial"":1,""time"":12838}]",NA,1708.3999998569489,static/audio/instructions2.wav,NA,0,NA,NA,NA,NA,NA,NA,NA,NA,NA,NA,NA,NA,NA,NA,NA,NA,NA,NA,NA,NA,NA,NA,NA,NA,NA
audio-instructions,7,42104,0.0-5.0-2.0,voc_e2,12012,"[{""event"":""fullscreenenter"",""trial"":1,""time"":12838}]",NA,467.40000009536743,static/audio/instructions3.wav,NA,0,NA,NA,NA,NA,NA,NA,NA,NA,NA,NA,NA,NA,NA,NA,NA,NA,NA,NA,NA,NA,NA,NA,NA,NA,NA
audio-instructions,8,55744,0.0-5.0-3.0,voc_e2,12012,"[{""event"":""fullscreenenter"",""trial"":1,""time"":12838}]",NA,407.90000009536743,static/audio/instructions4.wav,NA,0,NA,NA,NA,NA,NA,NA,NA,NA,NA,NA,NA,NA,NA,NA,NA,NA,NA,NA,NA,NA,NA,NA,NA,NA,NA
audio-instructions,9,65508,0.0-5.0-4.0,voc_e2,12012,"[{""event"":""fullscreenenter"",""trial"":1,""time"":12838}]",NA,371,static/audio/instructions5.wav,NA,0,NA,NA,NA,NA,NA,NA,NA,NA,NA,NA,NA,NA,NA,NA,NA,NA,NA,NA,NA,NA,NA,NA,NA,NA,NA
fcp-practice,10,70080,0.0-5.0-5.0-0.0,voc_e2,12012,"[{""event"":""fullscreenenter"",""trial"":1,""time"":12838}]",NA,NA,NA,NA,NA,NA,#EDC948,#46d3c8,10,0,1,null,null,null,37,1,3045.7999999523163,10,1,practice,NA,NA,NA,NA,NA,NA,NA,NA,NA,NA
fcp-practice,11,72183,0.0-5.0-5.0-1.0,voc_e2,12012,"[{""event"":""fullscreenenter"",""trial"":1,""time"":12838}]",NA,NA,NA,NA,NA,NA,#EDC948,#46d3c8,10,0,1,null,null,null,37,1,597.4000000953674,10,1,practice,NA,NA,NA,NA,NA,NA,NA,NA,NA,NA
fcp-practice,12,74413,0.0-5.0-5.0-2.0,voc_e2,12012,"[{""event"":""fullscreenenter"",""trial"":1,""time"":12838}]",NA,NA,NA,NA,NA,NA,#EDC948,#46d3c8,0,10,1,null,null,null,37,1,714.5999999046326,0,1,practice,NA,NA,NA,NA,NA,NA,NA,NA,NA,NA
fcp-practice,13,76631,0.0-5.0-5.0-3.0,voc_e2,12012,"[{""event"":""fullscreenenter"",""trial"":1,""time"":12838}]",NA,NA,NA,NA,NA,NA,#EDC948,#46d3c8,10,0,1,null,null,null,37,1,700.2999999523163,10,1,practice,NA,NA,NA,NA,NA,NA,NA,NA,NA,NA
fcp-practice,14,78513,0.0-5.0-5.0-4.0,voc_e2,12012,"[{""event"":""fullscreenenter"",""trial"":1,""time"":12838}]",NA,NA,NA,NA,NA,NA,#EDC948,#46d3c8,10,0,1,null,null,null,37,1,367.40000009536743,10,1,practice,NA,NA,NA,NA,NA,NA,NA,NA,NA,NA
audio-instructions,15,97516,0.0-5.0-6.0,voc_e2,12012,"[{""event"":""fullscreenenter"",""trial"":1,""time"":12838}]",NA,988.7000000476836,static/audio/instructions6.wav,NA,0,NA,NA,NA,NA,NA,NA,NA,NA,NA,NA,NA,NA,NA,NA,NA,NA,NA,NA,NA,NA,NA,NA,NA,NA,NA
audio-instructions,16,117308,0.0-5.0-7.0,voc_e2,12012,"[{""event"":""fullscreenenter"",""trial"":1,""time"":12838}]",NA,591.2999999523163,static/audio/instructions7.wav,NA,0,NA,NA,NA,NA,NA,NA,NA,NA,NA,NA,NA,NA,NA,NA,NA,NA,NA,NA,NA,NA,NA,NA,NA,NA,NA
audio-instructions,17,127224,0.0-5.0-8.0,voc_e2,12012,"[{""event"":""fullscreenenter"",""trial"":1,""time"":12838}]",NA,437.80000019073486,static/audio/instructions8.wav,NA,0,NA,NA,NA,NA,NA,NA,NA,NA,NA,NA,NA,NA,NA,NA,NA,NA,NA,NA,NA,NA,NA,NA,NA,NA,NA
fcp-comprehension,18,138191,0.0-5.0-9.0,voc_e2,12012,"[{""event"":""fullscreenenter"",""trial"":1,""time"":12838}]",NA,10965.100000143051,NA,NA,NA,NA,NA,NA,NA,NA,NA,NA,NA,NA,NA,NA,NA,NA,NA,NA,"false,true",1,NA,NA,NA,NA,NA,NA,NA,NA
audio-instructions,19,143606,0.0-5.1-0.1,voc_e2,12012,"[{""event"":""fullscreenenter"",""trial"":1,""time"":12838}]",NA,639.2000000476837,static/audio/instructions1.wav,NA,0,NA,NA,NA,NA,NA,NA,NA,NA,NA,NA,NA,NA,NA,NA,NA,NA,NA,NA,NA,NA,NA,NA,NA,NA,NA
audio-instructions,20,151938,0.0-5.1-1.1,voc_e2,12012,"[{""event"":""fullscreenenter"",""trial"":1,""time"":12838}]",NA,1591.5,static/audio/instructions2.wav,NA,0,NA,NA,NA,NA,NA,NA,NA,NA,NA,NA,NA,NA,NA,NA,NA,NA,NA,NA,NA,NA,NA,NA,NA,NA,NA
audio-instructions,21,158330,0.0-5.1-2.1,voc_e2,12012,"[{""event"":""fullscreenenter"",""trial"":1,""time"":12838}]",NA,584.4000000953674,static/audio/instructions3.wav,NA,0,NA,NA,NA,NA,NA,NA,NA,NA,NA,NA,NA,NA,NA,NA,NA,NA,NA,NA,NA,NA,NA,NA,NA,NA,NA
audio-instructions,22,172022,0.0-5.1-3.1,voc_e2,12012,"[{""event"":""fullscreenenter"",""trial"":1,""time"":12838}]",NA,465.60000014305115,static/audio/instructions4.wav,NA,0,NA,NA,NA,NA,NA,NA,NA,NA,NA,NA,NA,NA,NA,NA,NA,NA,NA,NA,NA,NA,NA,NA,NA,NA,NA
audio-instructions,23,181824,0.0-5.1-4.1,voc_e2,12012,"[{""event"":""fullscreenenter"",""trial"":1,""time"":12838}]",NA,417.7000000476837,static/audio/instructions5.wav,NA,0,NA,NA,NA,NA,NA,NA,NA,NA,NA,NA,NA,NA,NA,NA,NA,NA,NA,NA,NA,NA,NA,NA,NA,NA,NA
fcp-practice,24,184515,0.0-5.1-5.1-0.1,voc_e2,12012,"[{""event"":""fullscreenenter"",""trial"":1,""time"":12838}]",NA,NA,NA,NA,NA,NA,#EDC948,#46d3c8,10,0,1,null,null,null,37,1,1181.1999998092651,10,1,practice,NA,NA,NA,NA,NA,NA,NA,NA,NA,NA
fcp-practice,25,186423,0.0-5.1-5.1-1.1,voc_e2,12012,"[{""event"":""fullscreenenter"",""trial"":1,""time"":12838}]",NA,NA,NA,NA,NA,NA,#EDC948,#46d3c8,10,0,1,null,null,null,37,1,397.60000014305115,10,1,practice,NA,NA,NA,NA,NA,NA,NA,NA,NA,NA
fcp-practice,26,188282,0.0-5.1-5.1-2.1,voc_e2,12012,"[{""event"":""fullscreenenter"",""trial"":1,""time"":12838}]",NA,NA,NA,NA,NA,NA,#EDC948,#46d3c8,0,10,1,null,null,null,37,1,350.2000000476837,0,1,practice,NA,NA,NA,NA,NA,NA,NA,NA,NA,NA
fcp-practice,27,190114,0.0-5.1-5.1-3.1,voc_e2,12012,"[{""event"":""fullscreenenter"",""trial"":1,""time"":12838}]",NA,NA,NA,NA,NA,NA,#EDC948,#46d3c8,10,0,1,null,null,null,37,1,309.69999980926514,10,1,practice,NA,NA,NA,NA,NA,NA,NA,NA,NA,NA
fcp-practice,28,191969,0.0-5.1-5.1-4.1,voc_e2,12012,"[{""event"":""fullscreenenter"",""trial"":1,""time"":12838}]",NA,NA,NA,NA,NA,NA,#EDC948,#46d3c8,10,0,1,null,null,null,37,1,344.09999990463257,10,1,practice,NA,NA,NA,NA,NA,NA,NA,NA,NA,NA
audio-instructions,29,210322,0.0-5.1-6.1,voc_e2,12012,"[{""event"":""fullscreenenter"",""trial"":1,""time"":12838}]",NA,346.7000000476837,static/audio/instructions6.wav,NA,0,NA,NA,NA,NA,NA,NA,NA,NA,NA,NA,NA,NA,NA,NA,NA,NA,NA,NA,NA,NA,NA,NA,NA,NA,NA
audio-instructions,30,229994,0.0-5.1-7.1,voc_e2,12012,"[{""event"":""fullscreenenter"",""trial"":1,""time"":12838}]",NA,477.7999999523163,static/audio/instructions7.wav,NA,0,NA,NA,NA,NA,NA,NA,NA,NA,NA,NA,NA,NA,NA,NA,NA,NA,NA,NA,NA,NA,NA,NA,NA,NA,NA
audio-instructions,31,239843,0.0-5.1-8.1,voc_e2,12012,"[{""event"":""fullscreenenter"",""trial"":1,""time"":12838}]",NA,367,static/audio/instructions8.wav,NA,0,NA,NA,NA,NA,NA,NA,NA,NA,NA,NA,NA,NA,NA,NA,NA,NA,NA,NA,NA,NA,NA,NA,NA,NA,NA
fcp-comprehension,32,245191,0.0-5.1-9.1,voc_e2,12012,"[{""event"":""fullscreenenter"",""trial"":1,""time"":12838}]",NA,5345.700000047684,NA,NA,NA,NA,NA,NA,NA,NA,NA,NA,NA,NA,NA,NA,NA,NA,NA,NA,"true,true",0,NA,NA,NA,NA,NA,NA,NA,NA
audio-instructions,33,251934,0.0-6.0-0.0,voc_e2,12012,"[{""event"":""fullscreenenter"",""trial"":1,""time"":12838}]",NA,1197.5,static/audio/instructions9.wav,NA,0,NA,NA,NA,NA,NA,NA,NA,NA,NA,NA,NA,NA,NA,NA,NA,NA,NA,NA,NA,NA,NA,NA,NA,NA,NA
audio-instructions,34,265947,0.0-6.0-1.0,voc_e2,12012,"[{""event"":""fullscreenenter"",""trial"":1,""time"":12838}]",NA,1891,static/audio/instructions10.wav,NA,0,NA,NA,NA,NA,NA,NA,NA,NA,NA,NA,NA,NA,NA,NA,NA,NA,NA,NA,NA,NA,NA,NA,NA,NA,NA
fcp-trial,35,271255,0.0-6.0-2.0,voc_e2,12012,"[{""event"":""fullscreenenter"",""trial"":1,""time"":12838}]",NA,NA,NA,NA,NA,0,#EDC948,#46d3c8,10,10,1,38,1,2084.600000143051,39,0,1672.9000000953674,10,0,practice,NA,NA,NA,NA,NA,NA,NA,NA,NA,NA
audio-instructions,36,282722,0.0-6.0-3.0,voc_e2,12012,"[{""event"":""fullscreenenter"",""trial"":1,""time"":12838}]",NA,455.5,static/audio/instructions11.wav,NA,0,NA,NA,NA,NA,NA,NA,NA,NA,NA,NA,NA,NA,NA,NA,NA,NA,NA,NA,NA,NA,NA,NA,NA,NA,NA
fcp-trial,37,286287,0.0-6.0-4.0,voc_e2,12012,"[{""event"":""fullscreenenter"",""trial"":1,""time"":12838}]",NA,NA,NA,NA,NA,6,#EDC948,#46d3c8,10,10,1,40,0,906.7999999523163,39,0,1138.1999998092651,10,0,practice,NA,NA,NA,NA,NA,NA,NA,NA,NA,NA
audio-instructions,38,305369,0.0-6.0-5.0,voc_e2,12012,"[{""event"":""fullscreenenter"",""trial"":1,""time"":12838}]",NA,394,static/audio/instructions12.wav,NA,0,NA,NA,NA,NA,NA,NA,NA,NA,NA,NA,NA,NA,NA,NA,NA,NA,NA,NA,NA,NA,NA,NA,NA,NA,NA
audio-instructions,39,313371,0.0-6.0-6.0,voc_e2,12012,"[{""event"":""fullscreenenter"",""trial"":1,""time"":12838}]",NA,406.40000009536743,static/audio/instructions13.wav,NA,0,NA,NA,NA,NA,NA,NA,NA,NA,NA,NA,NA,NA,NA,NA,NA,NA,NA,NA,NA,NA,NA,NA,NA,NA,NA
audio-instructions,40,322259,0.0-6.0-7.0,voc_e2,12012,"[{""event"":""fullscreenenter"",""trial"":1,""time"":12838}]",NA,443.39999985694885,static/audio/instructions14.wav,NA,0,NA,NA,NA,NA,NA,NA,NA,NA,NA,NA,NA,NA,NA,NA,NA,NA,NA,NA,NA,NA,NA,NA,NA,NA,NA
audio-instructions,41,329541,0.0-7.0-0.0,voc_e2,12012,"[{""event"":""fullscreenenter"",""trial"":1,""time"":12838}]",NA,366.5,static/audio/instructions15.wav,NA,0,NA,NA,NA,NA,NA,NA,NA,NA,NA,NA,NA,NA,NA,NA,NA,NA,NA,NA,NA,NA,NA,NA,NA,NA,NA
audio-instructions,42,336752,0.0-7.0-1.0,voc_e2,12012,"[{""event"":""fullscreenenter"",""trial"":1,""time"":12838}]",NA,386.19999980926514,static/audio/instructions16.wav,NA,0,NA,NA,NA,NA,NA,NA,NA,NA,NA,NA,NA,NA,NA,NA,NA,NA,NA,NA,NA,NA,NA,NA,NA,NA,NA
audio-instructions,43,344833,0.0-7.0-2.0,voc_e2,12012,"[{""event"":""fullscreenenter"",""trial"":1,""time"":12838}]",NA,408.10000014305115,static/audio/instructions17.wav,NA,0,NA,NA,NA,NA,NA,NA,NA,NA,NA,NA,NA,NA,NA,NA,NA,NA,NA,NA,NA,NA,NA,NA,NA,NA,NA
audio-instructions,44,353105,0.0-7.0-3.0,voc_e2,12012,"[{""event"":""fullscreenenter"",""trial"":1,""time"":12838}]",NA,509.2999999523163,static/audio/instructions18.wav,NA,0,NA,NA,NA,NA,NA,NA,NA,NA,NA,NA,NA,NA,NA,NA,NA,NA,NA,NA,NA,NA,NA,NA,NA,NA,NA
audio-instructions,45,360227,0.0-7.0-4.0,voc_e2,12012,"[{""event"":""fullscreenenter"",""trial"":1,""time"":12838}]",NA,371.39999985694885,static/audio/instructions19.wav,NA,0,NA,NA,NA,NA,NA,NA,NA,NA,NA,NA,NA,NA,NA,NA,NA,NA,NA,NA,NA,NA,NA,NA,NA,NA,NA
fcp-comprehension,46,379006,0.0-7.0-5.0,voc_e2,12012,"[{""event"":""fullscreenenter"",""trial"":1,""time"":12838}]",NA,18777,NA,NA,NA,NA,NA,NA,NA,NA,NA,NA,NA,NA,NA,NA,NA,NA,NA,NA,"false,false,false,true",0,NA,NA,NA,NA,NA,NA,NA,NA
audio-instructions,47,390725,0.0-8.0,voc_e2,12012,"[{""event"":""fullscreenenter"",""trial"":1,""time"":12838}]",NA,2500.599999904633,static/audio/ready.wav,NA,0,NA,NA,NA,NA,NA,NA,NA,NA,NA,NA,NA,NA,NA,NA,NA,NA,NA,NA,NA,NA,NA,NA,NA,NA,NA
fcp-trial,48,397356,0.0-9.0-0.0,voc_e2,12012,"[{""event"":""fullscreenenter"",""trial"":1,""time"":12838}]",NA,NA,NA,NA,NA,4,#FA92F8,#1CD855,0,0,1,38,1,3713.5999999046326,39,0,1400,0,0,experiment,NA,NA,2,0.5,0.5,4,5,1,1,NA
fcp-trial,49,403788,0.0-10.0-0.0,voc_e2,12012,"[{""event"":""fullscreenenter"",""trial"":1,""time"":12838}]",NA,NA,NA,NA,NA,1,#741CD8,#D8271C,10,0,1,38,1,3695.2999999523163,39,0,1213.2000000476835,0,0,experiment,NA,NA,0,0.9,0.1,0,1,2,1,NA
fcp-trial,50,408203,0.0-11.0-0.0,voc_e2,12012,"[{""event"":""fullscreenenter"",""trial"":1,""time"":12838}]",NA,NA,NA,NA,NA,6,#D89F1C,#3386FF,0,10,0,38,1,1949.3999998569489,37,1,938.2000000476836,0,0,experiment,NA,NA,1,0.3,0.7,3,2,3,1,NA
fcp-trial,51,411920,0.0-12.0-0.0,voc_e2,12012,"[{""event"":""fullscreenenter"",""trial"":1,""time"":12838}]",NA,NA,NA,NA,NA,2,#3386FF,#D89F1C,10,0,1,38,1,1324.8999998569489,37,1,869.8000001907349,10,1,experiment,NA,NA,1,0.7,0.3,2,3,4,1,NA
fcp-trial,52,415309,0.0-13.0-0.0,voc_e2,12012,"[{""event"":""fullscreenenter"",""trial"":1,""time"":12838}]",NA,NA,NA,NA,NA,1,#3386FF,#D89F1C,10,0,1,38,1,1161.4000000953674,37,1,716.5,10,1,experiment,NA,NA,1,0.7,0.3,2,3,5,1,NA
fcp-trial,53,419351,0.0-14.0-0.0,voc_e2,12012,"[{""event"":""fullscreenenter"",""trial"":1,""time"":12838}]",NA,NA,NA,NA,NA,3,#FA92F8,#1CD855,0,10,1,38,1,921.1999998092651,39,0,1609.3999998569489,10,0,experiment,NA,NA,2,0.5,0.5,4,5,6,1,NA
fcp-trial,54,423541,0.0-15.0-0.0,voc_e2,12012,"[{""event"":""fullscreenenter"",""trial"":1,""time"":12838}]",NA,NA,NA,NA,NA,5,#D8271C,#741CD8,0,10,0,38,1,861.2999999523163,39,0,1811.9000000953672,10,1,experiment,NA,NA,0,0.1,0.9,1,0,7,1,NA
fcp-trial,55,426742,0.0-16.0-0.0,voc_e2,12012,"[{""event"":""fullscreenenter"",""trial"":1,""time"":12838}]",NA,NA,NA,NA,NA,5,#3386FF,#D89F1C,10,0,1,38,1,562,37,1,1125.5,10,1,experiment,NA,NA,1,0.7,0.3,2,3,8,1,NA
fcp-trial,56,429640,0.0-17.0-0.0,voc_e2,12012,"[{""event"":""fullscreenenter"",""trial"":1,""time"":12838}]",NA,NA,NA,NA,NA,2,#FA92F8,#1CD855,0,0,1,38,1,560.0999999046326,37,1,826.3999998569489,0,1,experiment,NA,NA,2,0.5,0.5,4,5,9,1,NA
fcp-trial,57,432830,0.0-18.0-0.0,voc_e2,12012,"[{""event"":""fullscreenenter"",""trial"":1,""time"":12838}]",NA,NA,NA,NA,NA,0,#D89F1C,#3386FF,0,10,0,38,1,982.2999999523163,39,0,696.2000000476837,10,1,experiment,NA,NA,1,0.3,0.7,3,2,10,1,NA
fcp-trial,58,436756,0.0-19.0-0.0,voc_e2,12012,"[{""event"":""fullscreenenter"",""trial"":1,""time"":12838}]",NA,NA,NA,NA,NA,0,#FA92F8,#1CD855,10,10,1,38,1,470,37,1,1944,10,1,experiment,NA,NA,2,0.5,0.5,4,5,11,1,NA
fcp-trial,59,440471,0.0-20.0-0.0,voc_e2,12012,"[{""event"":""fullscreenenter"",""trial"":1,""time"":12838}]",NA,NA,NA,NA,NA,3,#D8271C,#741CD8,0,0,0,38,1,543.2000000476837,39,0,1663.5,0,1,experiment,NA,NA,0,0.1,0.9,1,0,12,1,NA
fcp-trial,60,443804,0.0-21.0-0.0,voc_e2,12012,"[{""event"":""fullscreenenter"",""trial"":1,""time"":12838}]",NA,NA,NA,NA,NA,3,#3386FF,#D89F1C,0,10,1,38,1,1063.9000000953674,37,1,753.7999999523163,0,1,experiment,NA,NA,1,0.7,0.3,2,3,13,1,NA
fcp-trial,61,446670,0.0-22.0-0.0,voc_e2,12012,"[{""event"":""fullscreenenter"",""trial"":1,""time"":12838}]",NA,NA,NA,NA,NA,2,#D8271C,#741CD8,0,10,0,38,1,699,39,0,657.2000000476837,10,1,experiment,NA,NA,0,0.1,0.9,1,0,14,1,NA
fcp-trial,62,449693,0.0-23.0-0.0,voc_e2,12012,"[{""event"":""fullscreenenter"",""trial"":1,""time"":12838}]",NA,NA,NA,NA,NA,4,#741CD8,#D8271C,10,0,1,38,1,531.2999999523163,37,1,980.3999998569489,10,1,experiment,NA,NA,0,0.9,0.1,0,1,15,1,NA
fcp-trial,63,452905,0.0-24.0-0.0,voc_e2,12012,"[{""event"":""fullscreenenter"",""trial"":1,""time"":12838}]",NA,NA,NA,NA,NA,6,#FA92F8,#1CD855,0,0,1,38,1,575.7000000476837,37,1,1123.6000001430511,0,1,experiment,NA,NA,2,0.5,0.5,4,5,16,1,NA
fcp-trial,64,455962,0.0-25.0-0.0,voc_e2,12012,"[{""event"":""fullscreenenter"",""trial"":1,""time"":12838}]",NA,NA,NA,NA,NA,6,#D8271C,#741CD8,0,10,0,38,1,480.60000014305115,39,0,1066.5,10,1,experiment,NA,NA,0,0.1,0.9,1,0,17,1,NA
fcp-trial,65,458579,0.0-26.0-0.0,voc_e2,12012,"[{""event"":""fullscreenenter"",""trial"":1,""time"":12838}]",NA,NA,NA,NA,NA,4,#D89F1C,#3386FF,0,0,0,38,1,500.80000019073486,39,0,602,0,1,experiment,NA,NA,1,0.3,0.7,3,2,18,1,NA
fcp-trial,66,462556,0.0-27.0-0.0,voc_e2,12012,"[{""event"":""fullscreenenter"",""trial"":1,""time"":12838}]",NA,NA,NA,NA,NA,5,#FA92F8,#1CD855,10,0,1,38,1,537.4000000953674,37,1,1925.5,10,1,experiment,NA,NA,2,0.5,0.5,4,5,19,1,NA
fcp-trial,67,465819,0.0-28.0-0.0,voc_e2,12012,"[{""event"":""fullscreenenter"",""trial"":1,""time"":12838}]",NA,NA,NA,NA,NA,0,#741CD8,#D8271C,0,0,1,38,1,460.7000000476837,39,0,1291.2000000476835,0,0,experiment,NA,NA,0,0.9,0.1,0,1,20,1,NA
fcp-trial,68,468720,0.0-29.0-0.0,voc_e2,12012,"[{""event"":""fullscreenenter"",""trial"":1,""time"":12838}]",NA,NA,NA,NA,NA,1,#FA92F8,#1CD855,0,0,1,38,1,416.59999990463257,37,1,971.7999999523164,0,1,experiment,NA,NA,2,0.5,0.5,4,5,21,1,NA
fcp-trial,69,471879,0.0-30.0-0.0,voc_e2,12012,"[{""event"":""fullscreenenter"",""trial"":1,""time"":12838}]",NA,NA,NA,NA,NA,0,#D89F1C,#3386FF,0,10,0,38,1,522.4000000953674,37,1,1121.5999999046326,0,0,experiment,NA,NA,1,0.3,0.7,3,2,22,1,NA
fcp-trial,70,475591,0.0-31.0-0.0,voc_e2,12012,"[{""event"":""fullscreenenter"",""trial"":1,""time"":12838}]",NA,NA,NA,NA,NA,5,#3386FF,#D89F1C,0,0,1,38,1,650.1000001430511,39,0,1547.2999999523165,0,0,experiment,NA,NA,1,0.7,0.3,2,3,23,1,NA
fcp-trial,71,478767,0.0-32.0-0.0,voc_e2,12012,"[{""event"":""fullscreenenter"",""trial"":1,""time"":12838}]",NA,NA,NA,NA,NA,3,#D8271C,#741CD8,0,0,0,38,1,594,37,1,1068,0,0,experiment,NA,NA,0,0.1,0.9,1,0,24,1,NA
fcp-trial,72,481721,0.0-33.0-0.0,voc_e2,12012,"[{""event"":""fullscreenenter"",""trial"":1,""time"":12838}]",NA,NA,NA,NA,NA,2,#741CD8,#D8271C,10,0,1,38,1,597.3999998569489,37,1,848.0999999046326,10,1,experiment,NA,NA,0,0.9,0.1,0,1,25,1,NA
fcp-trial,73,484583,0.0-34.0-0.0,voc_e2,12012,"[{""event"":""fullscreenenter"",""trial"":1,""time"":12838}]",NA,NA,NA,NA,NA,6,#D89F1C,#3386FF,0,0,0,38,1,650.7000000476837,39,0,700,0,1,experiment,NA,NA,1,0.3,0.7,3,2,26,1,NA
fcp-trial,74,487534,0.0-35.0-0.0,voc_e2,12012,"[{""event"":""fullscreenenter"",""trial"":1,""time"":12838}]",NA,NA,NA,NA,NA,6,#741CD8,#D8271C,10,0,1,38,1,686.0999999046326,37,1,756.2999999523163,10,1,experiment,NA,NA,0,0.9,0.1,0,1,27,1,NA
fcp-trial,75,490434,0.0-36.0-0.0,voc_e2,12012,"[{""event"":""fullscreenenter"",""trial"":1,""time"":12838}]",NA,NA,NA,NA,NA,6,#1CD855,#FA92F8,10,10,0,38,1,602.6000001430511,37,1,785.7999999523163,10,0,experiment,NA,NA,2,0.5,0.5,5,4,28,1,NA
fcp-trial,76,493800,0.0-37.0-0.0,voc_e2,12012,"[{""event"":""fullscreenenter"",""trial"":1,""time"":12838}]",NA,NA,NA,NA,NA,2,#FA92F8,#1CD855,10,10,1,38,1,622.7999999523163,37,1,1232.5,10,1,experiment,NA,NA,2,0.5,0.5,4,5,29,1,NA
fcp-trial,77,496509,0.0-38.0-0.0,voc_e2,12012,"[{""event"":""fullscreenenter"",""trial"":1,""time"":12838}]",NA,NA,NA,NA,NA,4,#D8271C,#741CD8,0,0,0,38,1,537.5,39,0,661.0999999046326,0,1,experiment,NA,NA,0,0.1,0.9,1,0,30,1,NA
fcp-trial,78,500474,0.0-39.0-0.0,voc_e2,12012,"[{""event"":""fullscreenenter"",""trial"":1,""time"":12838}]",NA,NA,NA,NA,NA,2,#3386FF,#D89F1C,10,0,1,38,1,977.0999999046326,39,0,1472.9000000953674,0,0,experiment,NA,NA,1,0.7,0.3,2,3,31,1,NA
fcp-trial,79,503089,0.0-40.0-0.0,voc_e2,12012,"[{""event"":""fullscreenenter"",""trial"":1,""time"":12838}]",NA,NA,NA,NA,NA,4,#FA92F8,#1CD855,0,0,1,38,1,509.7999999523163,37,1,590.1000001430511,0,1,experiment,NA,NA,2,0.5,0.5,4,5,32,1,NA
fcp-trial,80,506250,0.0-41.0-0.0,voc_e2,12012,"[{""event"":""fullscreenenter"",""trial"":1,""time"":12838}]",NA,NA,NA,NA,NA,4,#D89F1C,#3386FF,0,10,0,38,1,744.9000000953674,37,1,900.7999999523164,0,0,experiment,NA,NA,1,0.3,0.7,3,2,33,1,NA
fcp-trial,81,509510,0.0-42.0-0.0,voc_e2,12012,"[{""event"":""fullscreenenter"",""trial"":1,""time"":12838}]",NA,NA,NA,NA,NA,1,#1CD855,#FA92F8,0,0,0,38,1,554.1000001430511,39,0,1193.5,0,1,experiment,NA,NA,2,0.5,0.5,5,4,34,1,NA
fcp-trial,82,512089,0.0-43.0-0.0,voc_e2,12012,"[{""event"":""fullscreenenter"",""trial"":1,""time"":12838}]",NA,NA,NA,NA,NA,1,#741CD8,#D8271C,10,0,1,38,1,543.5,37,1,526,10,1,experiment,NA,NA,0,0.9,0.1,0,1,35,1,NA
fcp-trial,83,515707,0.0-44.0-0.0,voc_e2,12012,"[{""event"":""fullscreenenter"",""trial"":1,""time"":12838}]",NA,NA,NA,NA,NA,1,#3386FF,#D89F1C,0,10,1,38,1,596.3000001907349,37,1,1506.5999999046326,0,1,experiment,NA,NA,1,0.7,0.3,2,3,36,1,NA
fcp-trial,84,518413,0.0-45.0-0.0,voc_e2,12012,"[{""event"":""fullscreenenter"",""trial"":1,""time"":12838}]",NA,NA,NA,NA,NA,0,#741CD8,#D8271C,10,0,1,38,1,610.3999998569489,37,1,580.6999998092651,10,1,experiment,NA,NA,0,0.9,0.1,0,1,37,1,NA
fcp-trial,85,521337,0.0-46.0-0.0,voc_e2,12012,"[{""event"":""fullscreenenter"",""trial"":1,""time"":12838}]",NA,NA,NA,NA,NA,5,#741CD8,#D8271C,10,0,1,38,1,682.7000000476837,37,1,732.1999998092651,10,1,experiment,NA,NA,0,0.9,0.1,0,1,38,1,NA
fcp-trial,86,524362,0.0-47.0-0.0,voc_e2,12012,"[{""event"":""fullscreenenter"",""trial"":1,""time"":12838}]",NA,NA,NA,NA,NA,3,#FA92F8,#1CD855,0,10,1,38,1,528.8000001907349,39,0,982.7000000476836,10,0,experiment,NA,NA,2,0.5,0.5,4,5,39,1,NA
fcp-trial,87,527097,0.0-48.0-0.0,voc_e2,12012,"[{""event"":""fullscreenenter"",""trial"":1,""time"":12838}]",NA,NA,NA,NA,NA,3,#3386FF,#D89F1C,10,0,1,38,1,643,37,1,582.2000000476837,10,1,experiment,NA,NA,1,0.7,0.3,2,3,40,1,NA
fcp-trial,88,530268,0.0-49.0-0.0,voc_e2,12012,"[{""event"":""fullscreenenter"",""trial"":1,""time"":12838}]",NA,NA,NA,NA,NA,0,#1CD855,#FA92F8,0,10,0,38,1,642.5999999046326,37,1,1017,0,0,experiment,NA,NA,2,0.5,0.5,5,4,41,1,NA
fcp-trial,89,533889,0.0-50.0-0.0,voc_e2,12012,"[{""event"":""fullscreenenter"",""trial"":1,""time"":12838}]",NA,NA,NA,NA,NA,5,#FA92F8,#1CD855,0,0,1,38,1,561.2999999523163,37,1,1541.4000000953674,0,1,experiment,NA,NA,2,0.5,0.5,4,5,42,1,NA
fcp-trial,90,536720,0.0-51.0-0.0,voc_e2,12012,"[{""event"":""fullscreenenter"",""trial"":1,""time"":12838}]",NA,NA,NA,NA,NA,1,#1CD855,#FA92F8,10,10,0,38,1,747.5,37,1,575.2000000476837,10,0,experiment,NA,NA,2,0.5,0.5,5,4,43,1,NA
fcp-trial,91,539332,0.0-52.0-0.0,voc_e2,12012,"[{""event"":""fullscreenenter"",""trial"":1,""time"":12838}]",NA,NA,NA,NA,NA,4,#D8271C,#741CD8,0,10,0,38,1,488,39,0,613.5999999046326,10,1,experiment,NA,NA,0,0.1,0.9,1,0,44,1,NA
fcp-trial,92,542008,0.0-53.0-0.0,voc_e2,12012,"[{""event"":""fullscreenenter"",""trial"":1,""time"":12838}]",NA,NA,NA,NA,NA,3,#D8271C,#741CD8,0,10,0,38,1,514.2999999523163,39,0,644,10,1,experiment,NA,NA,0,0.1,0.9,1,0,45,1,NA
fcp-trial,93,544707,0.0-54.0-0.0,voc_e2,12012,"[{""event"":""fullscreenenter"",""trial"":1,""time"":12838}]",NA,NA,NA,NA,NA,0,#3386FF,#D89F1C,10,0,1,38,1,533.3999998569489,39,0,654.7999999523163,0,0,experiment,NA,NA,1,0.7,0.3,2,3,46,2,NA
fcp-trial,94,547760,0.0-55.0-0.0,voc_e2,12012,"[{""event"":""fullscreenenter"",""trial"":1,""time"":12838}]",NA,NA,NA,NA,NA,5,#3386FF,#D89F1C,10,10,1,38,1,513.5,37,1,1029.5999999046326,10,1,experiment,NA,NA,1,0.7,0.3,2,3,47,2,NA
fcp-trial,95,550952,0.0-56.0-0.0,voc_e2,12012,"[{""event"":""fullscreenenter"",""trial"":1,""time"":12838}]",NA,NA,NA,NA,NA,3,#1CD855,#FA92F8,10,0,0,38,1,1074.7000000476837,37,1,607.6999998092651,10,0,experiment,NA,NA,2,0.5,0.5,5,4,48,2,NA
fcp-trial,96,553995,0.0-57.0-0.0,voc_e2,12012,"[{""event"":""fullscreenenter"",""trial"":1,""time"":12838}]",NA,NA,NA,NA,NA,1,#3386FF,#D89F1C,10,10,1,38,1,500.60000014305115,39,0,1035.7000000476835,10,0,experiment,NA,NA,1,0.7,0.3,2,3,49,2,NA
fcp-trial,97,556524,0.0-58.0-0.0,voc_e2,12012,"[{""event"":""fullscreenenter"",""trial"":1,""time"":12838}]",NA,NA,NA,NA,NA,2,#741CD8,#D8271C,10,0,1,38,1,492.7999999523163,37,1,522.3999998569489,10,1,experiment,NA,NA,0,0.9,0.1,0,1,50,2,NA
fcp-trial,98,559145,0.0-59.0-0.0,voc_e2,12012,"[{""event"":""fullscreenenter"",""trial"":1,""time"":12838}]",NA,NA,NA,NA,NA,2,#FA92F8,#1CD855,10,0,1,38,1,510.60000014305115,39,0,599.2999999523163,0,0,experiment,NA,NA,2,0.5,0.5,4,5,51,2,NA
fcp-trial,99,561841,0.0-60.0-0.0,voc_e2,12012,"[{""event"":""fullscreenenter"",""trial"":1,""time"":12838}]",NA,NA,NA,NA,NA,4,#3386FF,#D89F1C,10,0,1,38,1,463.40000009536743,37,1,719.2999999523163,10,1,experiment,NA,NA,1,0.7,0.3,2,3,52,2,NA
fcp-trial,100,564429,0.0-61.0-0.0,voc_e2,12012,"[{""event"":""fullscreenenter"",""trial"":1,""time"":12838}]",NA,NA,NA,NA,NA,0,#741CD8,#D8271C,0,0,1,38,1,441.69999980926514,37,1,635.7999999523163,0,1,experiment,NA,NA,0,0.9,0.1,0,1,53,2,NA
fcp-trial,101,567098,0.0-62.0-0.0,voc_e2,12012,"[{""event"":""fullscreenenter"",""trial"":1,""time"":12838}]",NA,NA,NA,NA,NA,0,#1CD855,#FA92F8,10,0,0,38,1,673,37,1,483.10000014305115,10,0,experiment,NA,NA,2,0.5,0.5,5,4,54,2,NA
fcp-trial,102,569856,0.0-63.0-0.0,voc_e2,12012,"[{""event"":""fullscreenenter"",""trial"":1,""time"":12838}]",NA,NA,NA,NA,NA,4,#1CD855,#FA92F8,10,0,0,38,1,417.7999999523163,39,0,825.1000001430511,0,1,experiment,NA,NA,2,0.5,0.5,5,4,55,2,NA
fcp-trial,103,572440,0.0-64.0-0.0,voc_e2,12012,"[{""event"":""fullscreenenter"",""trial"":1,""time"":12838}]",NA,NA,NA,NA,NA,5,#741CD8,#D8271C,10,0,1,38,1,383.2000000476837,37,1,695,10,1,experiment,NA,NA,0,0.9,0.1,0,1,56,2,NA
fcp-trial,104,575070,0.0-65.0-0.0,voc_e2,12012,"[{""event"":""fullscreenenter"",""trial"":1,""time"":12838}]",NA,NA,NA,NA,NA,3,#3386FF,#D89F1C,10,0,1,38,1,456.19999980926514,37,1,661.8999998569489,10,1,experiment,NA,NA,1,0.7,0.3,2,3,57,2,NA
fcp-trial,105,577740,0.0-66.0-0.0,voc_e2,12012,"[{""event"":""fullscreenenter"",""trial"":1,""time"":12838}]",NA,NA,NA,NA,NA,6,#D8271C,#741CD8,10,10,0,38,1,483,39,0,674.2000000476837,10,1,experiment,NA,NA,0,0.1,0.9,1,0,58,2,NA
fcp-trial,106,580403,0.0-67.0-0.0,voc_e2,12012,"[{""event"":""fullscreenenter"",""trial"":1,""time"":12838}]",NA,NA,NA,NA,NA,5,#FA92F8,#1CD855,0,10,1,38,1,471.39999985694885,39,0,678.8999998569489,10,0,experiment,NA,NA,2,0.5,0.5,4,5,59,2,NA
fcp-trial,107,583005,0.0-68.0-0.0,voc_e2,12012,"[{""event"":""fullscreenenter"",""trial"":1,""time"":12838}]",NA,NA,NA,NA,NA,6,#D89F1C,#3386FF,0,10,0,38,1,500.5,37,1,590.8999998569489,0,0,experiment,NA,NA,1,0.3,0.7,3,2,60,2,NA
fcp-trial,108,585755,0.0-69.0-0.0,voc_e2,12012,"[{""event"":""fullscreenenter"",""trial"":1,""time"":12838}]",NA,NA,NA,NA,NA,2,#3386FF,#D89F1C,0,0,1,38,1,443.10000014305115,37,1,798.6000001430511,0,1,experiment,NA,NA,1,0.7,0.3,2,3,61,2,NA
fcp-trial,109,588440,0.0-70.0-0.0,voc_e2,12012,"[{""event"":""fullscreenenter"",""trial"":1,""time"":12838}]",NA,NA,NA,NA,NA,1,#741CD8,#D8271C,10,0,1,38,1,491.2000000476837,37,1,683.2999999523163,10,1,experiment,NA,NA,0,0.9,0.1,0,1,62,2,NA
fcp-trial,110,590978,0.0-71.0-0.0,voc_e2,12012,"[{""event"":""fullscreenenter"",""trial"":1,""time"":12838}]",NA,NA,NA,NA,NA,6,#FA92F8,#1CD855,0,10,1,38,1,420.2000000476837,39,0,611.5999999046326,10,0,experiment,NA,NA,2,0.5,0.5,4,5,63,2,NA
fcp-trial,111,593577,0.0-72.0-0.0,voc_e2,12012,"[{""event"":""fullscreenenter"",""trial"":1,""time"":12838}]",NA,NA,NA,NA,NA,4,#3386FF,#D89F1C,10,0,1,38,1,441.40000009536743,39,0,649.0999999046326,0,0,experiment,NA,NA,1,0.7,0.3,2,3,64,2,NA
fcp-trial,112,596327,0.0-73.0-0.0,voc_e2,12012,"[{""event"":""fullscreenenter"",""trial"":1,""time"":12838}]",NA,NA,NA,NA,NA,1,#D8271C,#741CD8,0,10,0,38,1,447.2999999523163,39,0,792,10,1,experiment,NA,NA,0,0.1,0.9,1,0,65,2,NA
fcp-trial,113,598843,0.0-74.0-0.0,voc_e2,12012,"[{""event"":""fullscreenenter"",""trial"":1,""time"":12838}]",NA,NA,NA,NA,NA,5,#741CD8,#D8271C,10,0,1,38,1,430,37,1,572.3999998569489,10,1,experiment,NA,NA,0,0.9,0.1,0,1,66,2,NA
fcp-trial,114,601333,0.0-75.0-0.0,voc_e2,12012,"[{""event"":""fullscreenenter"",""trial"":1,""time"":12838}]",NA,NA,NA,NA,NA,1,#FA92F8,#1CD855,10,10,1,38,1,215.90000009536743,39,0,764.8000001907349,10,0,experiment,NA,NA,2,0.5,0.5,4,5,67,2,NA
fcp-trial,115,604908,0.0-76.0-0.0,voc_e2,12012,"[{""event"":""fullscreenenter"",""trial"":1,""time"":12838}]",NA,NA,NA,NA,NA,3,#3386FF,#D89F1C,10,0,1,38,1,441.7999999523163,37,1,1622.5999999046326,10,1,experiment,NA,NA,1,0.7,0.3,2,3,68,2,NA
fcp-trial,116,607553,0.0-77.0-0.0,voc_e2,12012,"[{""event"":""fullscreenenter"",""trial"":1,""time"":12838}]",NA,NA,NA,NA,NA,3,#741CD8,#D8271C,10,0,1,38,1,583.1999998092651,37,1,554,10,1,experiment,NA,NA,0,0.9,0.1,0,1,69,2,NA
fcp-trial,117,610406,0.0-78.0-0.0,voc_e2,12012,"[{""event"":""fullscreenenter"",""trial"":1,""time"":12838}]",NA,NA,NA,NA,NA,3,#1CD855,#FA92F8,10,10,0,38,1,463.09999990463257,37,1,885.5999999046326,10,0,experiment,NA,NA,2,0.5,0.5,5,4,70,2,NA
fcp-trial,118,613247,0.0-79.0-0.0,voc_e2,12012,"[{""event"":""fullscreenenter"",""trial"":1,""time"":12838}]",NA,NA,NA,NA,NA,0,#FA92F8,#1CD855,0,10,1,38,1,427,37,1,907.4000000953674,0,1,experiment,NA,NA,2,0.5,0.5,4,5,71,2,NA
fcp-trial,119,615976,0.0-80.0-0.0,voc_e2,12012,"[{""event"":""fullscreenenter"",""trial"":1,""time"":12838}]",NA,NA,NA,NA,NA,5,#3386FF,#D89F1C,0,10,1,38,1,470.5,37,1,751.2999999523163,0,1,experiment,NA,NA,1,0.7,0.3,2,3,72,2,NA
fcp-trial,120,618630,0.0-81.0-0.0,voc_e2,12012,"[{""event"":""fullscreenenter"",""trial"":1,""time"":12838}]",NA,NA,NA,NA,NA,4,#741CD8,#D8271C,0,0,1,38,1,591.9000000953674,37,1,549.2000000476837,0,1,experiment,NA,NA,0,0.9,0.1,0,1,73,2,NA
fcp-trial,121,621186,0.0-82.0-0.0,voc_e2,12012,"[{""event"":""fullscreenenter"",""trial"":1,""time"":12838}]",NA,NA,NA,NA,NA,0,#D89F1C,#3386FF,0,0,0,38,1,454.7000000476837,37,1,596.2999999523163,0,0,experiment,NA,NA,1,0.3,0.7,3,2,74,2,NA
fcp-trial,122,623697,0.0-83.0-0.0,voc_e2,12012,"[{""event"":""fullscreenenter"",""trial"":1,""time"":12838}]",NA,NA,NA,NA,NA,6,#741CD8,#D8271C,10,0,1,38,1,439.09999990463257,37,1,565.7000000476837,10,1,experiment,NA,NA,0,0.9,0.1,0,1,75,2,NA
fcp-trial,123,627423,0.0-84.0-0.0,voc_e2,12012,"[{""event"":""fullscreenenter"",""trial"":1,""time"":12838}]",NA,NA,NA,NA,NA,6,#FA92F8,#1CD855,10,0,1,38,1,452,39,0,1769.0999999046326,0,0,experiment,NA,NA,2,0.5,0.5,4,5,76,2,NA
fcp-trial,124,629923,0.0-85.0-0.0,voc_e2,12012,"[{""event"":""fullscreenenter"",""trial"":1,""time"":12838}]",NA,NA,NA,NA,NA,0,#741CD8,#D8271C,10,0,1,38,1,334.30000019073486,37,1,652.2999999523163,10,1,experiment,NA,NA,0,0.9,0.1,0,1,77,2,NA
fcp-trial,125,633111,0.0-86.0-0.0,voc_e2,12012,"[{""event"":""fullscreenenter"",""trial"":1,""time"":12838}]",NA,NA,NA,NA,NA,2,#D89F1C,#3386FF,10,10,0,38,1,532.7000000476837,39,0,1142.1000001430511,10,1,experiment,NA,NA,1,0.3,0.7,3,2,78,2,NA
fcp-trial,126,635784,0.0-87.0-0.0,voc_e2,12012,"[{""event"":""fullscreenenter"",""trial"":1,""time"":12838}]",NA,NA,NA,NA,NA,2,#FA92F8,#1CD855,0,10,1,38,1,280,39,0,881.8000001907349,10,0,experiment,NA,NA,2,0.5,0.5,4,5,79,2,NA
fcp-trial,127,639658,0.0-88.0-0.0,voc_e2,12012,"[{""event"":""fullscreenenter"",""trial"":1,""time"":12838}]",NA,NA,NA,NA,NA,2,#D8271C,#741CD8,10,10,0,38,1,408.2000000476837,39,0,1950.2999999523165,10,1,experiment,NA,NA,0,0.1,0.9,1,0,80,2,NA
fcp-trial,128,642124,0.0-89.0-0.0,voc_e2,12012,"[{""event"":""fullscreenenter"",""trial"":1,""time"":12838}]",NA,NA,NA,NA,NA,1,#3386FF,#D89F1C,10,10,1,38,1,334.19999980926514,37,1,615.5999999046326,10,1,experiment,NA,NA,1,0.7,0.3,2,3,81,2,NA
fcp-trial,129,644684,0.0-90.0-0.0,voc_e2,12012,"[{""event"":""fullscreenenter"",""trial"":1,""time"":12838}]",NA,NA,NA,NA,NA,4,#1CD855,#FA92F8,10,10,0,38,1,337.90000009536743,39,0,707.7000000476837,10,1,experiment,NA,NA,2,0.5,0.5,5,4,82,2,NA
fcp-trial,130,647273,0.0-91.0-0.0,voc_e2,12012,"[{""event"":""fullscreenenter"",""trial"":1,""time"":12838}]",NA,NA,NA,NA,NA,6,#3386FF,#D89F1C,10,0,1,38,1,369.5,37,1,708.3000001907349,10,1,experiment,NA,NA,1,0.7,0.3,2,3,83,2,NA
fcp-trial,131,649942,0.0-92.0-0.0,voc_e2,12012,"[{""event"":""fullscreenenter"",""trial"":1,""time"":12838}]",NA,NA,NA,NA,NA,5,#FA92F8,#1CD855,0,10,1,38,1,434.59999990463257,39,0,722.4000000953674,10,0,experiment,NA,NA,2,0.5,0.5,4,5,84,2,NA
fcp-trial,132,653900,0.0-93.0-0.0,voc_e2,12012,"[{""event"":""fullscreenenter"",""trial"":1,""time"":12838}]",NA,NA,NA,NA,NA,3,#3386FF,#D89F1C,0,0,1,38,1,1622.2000000476837,37,1,821.2999999523163,0,1,experiment,NA,NA,1,0.7,0.3,2,3,85,2,NA
fcp-trial,133,657444,0.0-94.0-0.0,voc_e2,12012,"[{""event"":""fullscreenenter"",""trial"":1,""time"":12838}]",NA,NA,NA,NA,NA,2,#741CD8,#D8271C,10,0,1,38,1,1466.8999998569489,37,1,564.5999999046326,10,1,experiment,NA,NA,0,0.9,0.1,0,1,86,2,NA
fcp-trial,134,660226,0.0-95.0-0.0,voc_e2,12012,"[{""event"":""fullscreenenter"",""trial"":1,""time"":12838}]",NA,NA,NA,NA,NA,6,#741CD8,#D8271C,10,0,1,38,1,563,37,1,708.7000000476837,10,1,experiment,NA,NA,0,0.9,0.1,0,1,87,2,NA
fcp-trial,135,662914,0.0-96.0-0.0,voc_e2,12012,"[{""event"":""fullscreenenter"",""trial"":1,""time"":12838}]",NA,NA,NA,NA,NA,4,#D8271C,#741CD8,0,10,0,38,1,368.40000009536743,39,0,809.1000001430511,10,1,experiment,NA,NA,0,0.1,0.9,1,0,88,2,NA
fcp-trial,136,665635,0.0-97.0-0.0,voc_e2,12012,"[{""event"":""fullscreenenter"",""trial"":1,""time"":12838}]",NA,NA,NA,NA,NA,0,#D89F1C,#3386FF,0,10,0,38,1,505.60000014305115,37,1,704.7000000476837,0,0,experiment,NA,NA,1,0.3,0.7,3,2,89,2,NA
fcp-trial,137,668611,0.0-98.0-0.0,voc_e2,12012,"[{""event"":""fullscreenenter"",""trial"":1,""time"":12838}]",NA,NA,NA,NA,NA,6,#D89F1C,#3386FF,10,10,0,38,1,741.6000001430511,39,0,726.2999999523163,10,1,experiment,NA,NA,1,0.3,0.7,3,2,90,2,NA
fcp-trial,138,671209,0.0-99.0-0.0,voc_e2,12012,"[{""event"":""fullscreenenter"",""trial"":1,""time"":12838}]",NA,NA,NA,NA,NA,1,#FA92F8,#1CD855,0,0,1,38,1,512.5,39,0,578.8000001907349,0,0,experiment,NA,NA,2,0.5,0.5,4,5,91,3,NA
fcp-trial,139,674200,0.0-100.0-0.0,voc_e2,12012,"[{""event"":""fullscreenenter"",""trial"":1,""time"":12838}]",NA,NA,NA,NA,NA,0,#D8271C,#741CD8,0,10,0,38,1,464.09999990463257,39,0,1015.1000001430511,10,1,experiment,NA,NA,0,0.1,0.9,1,0,92,3,NA
fcp-trial,140,676843,0.0-101.0-0.0,voc_e2,12012,"[{""event"":""fullscreenenter"",""trial"":1,""time"":12838}]",NA,NA,NA,NA,NA,6,#1CD855,#FA92F8,0,0,0,38,1,440.90000009536743,37,1,694.1000001430511,0,0,experiment,NA,NA,2,0.5,0.5,5,4,93,3,NA
fcp-trial,141,679315,0.0-102.0-0.0,voc_e2,12012,"[{""event"":""fullscreenenter"",""trial"":1,""time"":12838}]",NA,NA,NA,NA,NA,5,#1CD855,#FA92F8,10,0,0,38,1,329.5,39,0,632.6999998092651,0,1,experiment,NA,NA,2,0.5,0.5,5,4,94,3,NA
fcp-trial,142,682623,0.0-103.0-0.0,voc_e2,12012,"[{""event"":""fullscreenenter"",""trial"":1,""time"":12838}]",NA,NA,NA,NA,NA,4,#3386FF,#D89F1C,10,0,1,38,1,541.5,39,0,1258.3999998569489,0,0,experiment,NA,NA,1,0.7,0.3,2,3,95,3,NA
fcp-trial,143,686142,0.0-104.0-0.0,voc_e2,12012,"[{""event"":""fullscreenenter"",""trial"":1,""time"":12838}]",NA,NA,NA,NA,NA,5,#D8271C,#741CD8,0,10,0,38,1,1010.4000000953674,39,0,997.3000001907347,10,1,experiment,NA,NA,0,0.1,0.9,1,0,96,3,NA
fcp-trial,144,689027,0.0-105.0-0.0,voc_e2,12012,"[{""event"":""fullscreenenter"",""trial"":1,""time"":12838}]",NA,NA,NA,NA,NA,2,#1CD855,#FA92F8,0,10,0,38,1,523.5,39,0,849.6000001430511,10,1,experiment,NA,NA,2,0.5,0.5,5,4,97,3,NA
fcp-trial,145,691711,0.0-106.0-0.0,voc_e2,12012,"[{""event"":""fullscreenenter"",""trial"":1,""time"":12838}]",NA,NA,NA,NA,NA,3,#741CD8,#D8271C,10,0,1,38,1,677.2000000476837,37,1,491.2000000476837,10,1,experiment,NA,NA,0,0.9,0.1,0,1,98,3,NA
fcp-trial,146,695100,0.0-107.0-0.0,voc_e2,12012,"[{""event"":""fullscreenenter"",""trial"":1,""time"":12838}]",NA,NA,NA,NA,NA,5,#3386FF,#D89F1C,10,0,1,38,1,808.9000000953674,39,0,1069,0,0,experiment,NA,NA,1,0.7,0.3,2,3,99,3,NA
fcp-trial,147,698377,0.0-108.0-0.0,voc_e2,12012,"[{""event"":""fullscreenenter"",""trial"":1,""time"":12838}]",NA,NA,NA,NA,NA,0,#1CD855,#FA92F8,10,10,0,38,1,467.69999980926514,37,1,1293.5,10,0,experiment,NA,NA,2,0.5,0.5,5,4,100,3,NA
fcp-trial,148,700841,0.0-109.0-0.0,voc_e2,12012,"[{""event"":""fullscreenenter"",""trial"":1,""time"":12838}]",NA,NA,NA,NA,NA,1,#3386FF,#D89F1C,10,0,1,38,1,377.09999990463257,37,1,575.3000001907349,10,1,experiment,NA,NA,1,0.7,0.3,2,3,101,3,NA
fcp-trial,149,703540,0.0-110.0-0.0,voc_e2,12012,"[{""event"":""fullscreenenter"",""trial"":1,""time"":12838}]",NA,NA,NA,NA,NA,1,#D8271C,#741CD8,0,10,0,38,1,469.5,39,0,717.4000000953674,10,1,experiment,NA,NA,0,0.1,0.9,1,0,102,3,NA
fcp-trial,150,706420,0.0-111.0-0.0,voc_e2,12012,"[{""event"":""fullscreenenter"",""trial"":1,""time"":12838}]",NA,NA,NA,NA,NA,3,#FA92F8,#1CD855,10,10,1,38,1,450.5,39,0,916.4000000953674,10,0,experiment,NA,NA,2,0.5,0.5,4,5,103,3,NA
fcp-trial,151,708993,0.0-112.0-0.0,voc_e2,12012,"[{""event"":""fullscreenenter"",""trial"":1,""time"":12838}]",NA,NA,NA,NA,NA,2,#D89F1C,#3386FF,10,0,0,38,1,486.40000009536743,39,0,575.9000000953674,0,1,experiment,NA,NA,1,0.3,0.7,3,2,104,3,NA
fcp-trial,152,712155,0.0-113.0-0.0,voc_e2,12012,"[{""event"":""fullscreenenter"",""trial"":1,""time"":12838}]",NA,NA,NA,NA,NA,4,#FA92F8,#1CD855,10,10,1,38,1,433.80000019073486,37,1,1222.4000000953674,10,1,experiment,NA,NA,2,0.5,0.5,4,5,105,3,NA
audio-instructions,153,717550,0.0-114.0,voc_e2,12012,"[{""event"":""fullscreenenter"",""trial"":1,""time"":12838}]",NA,839.7999999523163,static/audio/pause.wav,NA,0,NA,NA,NA,NA,NA,NA,NA,NA,NA,NA,NA,NA,NA,NA,NA,NA,NA,NA,NA,NA,NA,NA,NA,NA,NA
fcp-trial,154,722065,0.0-115.0-0.0,voc_e2,12012,"[{""event"":""fullscreenenter"",""trial"":1,""time"":12838}]",NA,NA,NA,NA,NA,4,#3386FF,#D89F1C,0,0,1,38,1,2208.5,37,1,786.7999999523163,0,1,experiment,NA,NA,1,0.7,0.3,2,3,106,3,NA
fcp-trial,155,725031,0.0-116.0-0.0,voc_e2,12012,"[{""event"":""fullscreenenter"",""trial"":1,""time"":12838}]",NA,NA,NA,NA,NA,0,#D8271C,#741CD8,0,10,0,38,1,710.2000000476837,39,0,724.2000000476837,10,1,experiment,NA,NA,0,0.1,0.9,1,0,107,3,NA
fcp-trial,156,728150,0.0-117.0-0.0,voc_e2,12012,"[{""event"":""fullscreenenter"",""trial"":1,""time"":12838}]",NA,NA,NA,NA,NA,5,#3386FF,#D89F1C,10,0,1,38,1,462.2999999523163,39,0,1136,0,0,experiment,NA,NA,1,0.7,0.3,2,3,108,3,NA
fcp-trial,157,731547,0.0-118.0-0.0,voc_e2,12012,"[{""event"":""fullscreenenter"",""trial"":1,""time"":12838}]",NA,NA,NA,NA,NA,6,#D89F1C,#3386FF,0,10,0,38,1,552.9000000953674,39,0,1325.5,10,1,experiment,NA,NA,1,0.3,0.7,3,2,109,3,NA
fcp-trial,158,734266,0.0-119.0-0.0,voc_e2,12012,"[{""event"":""fullscreenenter"",""trial"":1,""time"":12838}]",NA,NA,NA,NA,NA,6,#D8271C,#741CD8,0,10,0,38,1,574.5999999046326,39,0,628.2999999523163,10,1,experiment,NA,NA,0,0.1,0.9,1,0,110,3,NA
fcp-trial,159,736846,0.0-120.0-0.0,voc_e2,12012,"[{""event"":""fullscreenenter"",""trial"":1,""time"":12838}]",NA,NA,NA,NA,NA,1,#741CD8,#D8271C,0,0,1,38,1,474.60000014305115,37,1,592.1999998092651,0,1,experiment,NA,NA,0,0.9,0.1,0,1,111,3,NA
fcp-trial,160,739595,0.0-121.0-0.0,voc_e2,12012,"[{""event"":""fullscreenenter"",""trial"":1,""time"":12838}]",NA,NA,NA,NA,NA,0,#1CD855,#FA92F8,0,0,0,38,1,618.4000000953674,37,1,604.3000001907349,0,0,experiment,NA,NA,2,0.5,0.5,5,4,112,3,NA
fcp-trial,161,742128,0.0-122.0-0.0,voc_e2,12012,"[{""event"":""fullscreenenter"",""trial"":1,""time"":12838}]",NA,NA,NA,NA,NA,3,#D8271C,#741CD8,10,10,0,38,1,458.7999999523163,39,0,543.3000001907349,10,1,experiment,NA,NA,0,0.1,0.9,1,0,113,3,NA
fcp-trial,162,745928,0.0-123.0-0.0,voc_e2,12012,"[{""event"":""fullscreenenter"",""trial"":1,""time"":12838}]",NA,NA,NA,NA,NA,1,#D89F1C,#3386FF,10,10,0,38,1,526,37,1,1743.4000000953674,10,0,experiment,NA,NA,1,0.3,0.7,3,2,114,3,NA
fcp-trial,163,748420,0.0-124.0-0.0,voc_e2,12012,"[{""event"":""fullscreenenter"",""trial"":1,""time"":12838}]",NA,NA,NA,NA,NA,2,#D8271C,#741CD8,0,10,0,38,1,405.7000000476837,39,0,575.5999999046326,10,1,experiment,NA,NA,0,0.1,0.9,1,0,115,3,NA
fcp-trial,164,752009,0.0-125.0-0.0,voc_e2,12012,"[{""event"":""fullscreenenter"",""trial"":1,""time"":12838}]",NA,NA,NA,NA,NA,3,#1CD855,#FA92F8,0,0,0,38,1,621.2000000476837,39,0,1456.7000000476835,0,1,experiment,NA,NA,2,0.5,0.5,5,4,116,3,NA
fcp-trial,165,755569,0.0-126.0-0.0,voc_e2,12012,"[{""event"":""fullscreenenter"",""trial"":1,""time"":12838}]",NA,NA,NA,NA,NA,2,#D89F1C,#3386FF,10,0,0,38,1,332.5,39,0,1716.9000000953674,0,1,experiment,NA,NA,1,0.3,0.7,3,2,117,3,NA
fcp-trial,166,758366,0.0-127.0-0.0,voc_e2,12012,"[{""event"":""fullscreenenter"",""trial"":1,""time"":12838}]",NA,NA,NA,NA,NA,5,#1CD855,#FA92F8,10,0,0,38,1,273.2000000476837,37,1,1010.5,10,0,experiment,NA,NA,2,0.5,0.5,5,4,118,3,NA
fcp-trial,167,761096,0.0-128.0-0.0,voc_e2,12012,"[{""event"":""fullscreenenter"",""trial"":1,""time"":12838}]",NA,NA,NA,NA,NA,6,#FA92F8,#1CD855,10,0,1,38,1,358.2000000476837,39,0,860.7000000476837,0,0,experiment,NA,NA,2,0.5,0.5,4,5,119,3,NA
fcp-trial,168,763619,0.0-129.0-0.0,voc_e2,12012,"[{""event"":""fullscreenenter"",""trial"":1,""time"":12838}]",NA,NA,NA,NA,NA,5,#741CD8,#D8271C,0,0,1,38,1,550.5,37,1,463.7999999523163,0,1,experiment,NA,NA,0,0.9,0.1,0,1,120,3,NA
fcp-trial,169,766268,0.0-130.0-0.0,voc_e2,12012,"[{""event"":""fullscreenenter"",""trial"":1,""time"":12838}]",NA,NA,NA,NA,NA,0,#D89F1C,#3386FF,0,0,0,38,1,502.10000014305115,37,1,633.3999998569489,0,0,experiment,NA,NA,1,0.3,0.7,3,2,121,3,NA
fcp-trial,170,768995,0.0-131.0-0.0,voc_e2,12012,"[{""event"":""fullscreenenter"",""trial"":1,""time"":12838}]",NA,NA,NA,NA,NA,1,#1CD855,#FA92F8,10,10,0,38,1,418.59999990463257,37,1,796.7999999523163,10,0,experiment,NA,NA,2,0.5,0.5,5,4,122,3,NA
fcp-trial,171,771937,0.0-132.0-0.0,voc_e2,12012,"[{""event"":""fullscreenenter"",""trial"":1,""time"":12838}]",NA,NA,NA,NA,NA,3,#D89F1C,#3386FF,0,0,0,38,1,353.7000000476837,37,1,1082.6000001430511,0,0,experiment,NA,NA,1,0.3,0.7,3,2,123,3,NA
fcp-trial,172,774639,0.0-133.0-0.0,voc_e2,12012,"[{""event"":""fullscreenenter"",""trial"":1,""time"":12838}]",NA,NA,NA,NA,NA,4,#741CD8,#D8271C,10,0,1,38,1,472,37,1,719.9000000953674,10,1,experiment,NA,NA,0,0.9,0.1,0,1,124,3,NA
fcp-trial,173,777319,0.0-134.0-0.0,voc_e2,12012,"[{""event"":""fullscreenenter"",""trial"":1,""time"":12838}]",NA,NA,NA,NA,NA,4,#FA92F8,#1CD855,10,10,1,38,1,398.90000009536743,37,1,772.7000000476837,10,1,experiment,NA,NA,2,0.5,0.5,4,5,125,3,NA
fcp-trial,174,780381,0.0-135.0-0.0,voc_e2,12012,"[{""event"":""fullscreenenter"",""trial"":1,""time"":12838}]",NA,NA,NA,NA,NA,2,#FA92F8,#1CD855,0,10,1,38,1,519.3999998569489,37,1,1030.9000000953674,0,1,experiment,NA,NA,2,0.5,0.5,4,5,126,3,NA
fcp-trial,175,782901,0.0-136.0-0.0,voc_e2,12012,"[{""event"":""fullscreenenter"",""trial"":1,""time"":12838}]",NA,NA,NA,NA,NA,3,#741CD8,#D8271C,10,0,1,38,1,411.60000014305115,37,1,598.2000000476837,10,1,experiment,NA,NA,0,0.9,0.1,0,1,127,3,NA
fcp-trial,176,785494,0.0-137.0-0.0,voc_e2,12012,"[{""event"":""fullscreenenter"",""trial"":1,""time"":12838}]",NA,NA,NA,NA,NA,4,#741CD8,#D8271C,10,0,1,38,1,394.89999985694885,37,1,686.3999998569489,10,1,experiment,NA,NA,0,0.9,0.1,0,1,128,3,NA
fcp-trial,177,788106,0.0-138.0-0.0,voc_e2,12012,"[{""event"":""fullscreenenter"",""trial"":1,""time"":12838}]",NA,NA,NA,NA,NA,0,#FA92F8,#1CD855,0,10,1,38,1,363,39,0,736.9000000953674,10,0,experiment,NA,NA,2,0.5,0.5,4,5,129,3,NA
fcp-trial,178,791019,0.0-139.0-0.0,voc_e2,12012,"[{""event"":""fullscreenenter"",""trial"":1,""time"":12838}]",NA,NA,NA,NA,NA,4,#3386FF,#D89F1C,0,0,1,38,1,498.7000000476837,37,1,900.8999998569489,0,1,experiment,NA,NA,1,0.7,0.3,2,3,130,3,NA
fcp-trial,179,793830,0.0-140.0-0.0,voc_e2,12012,"[{""event"":""fullscreenenter"",""trial"":1,""time"":12838}]",NA,NA,NA,NA,NA,3,#1CD855,#FA92F8,10,0,0,38,1,445.39999985694885,39,0,853.2000000476837,0,1,experiment,NA,NA,2,0.5,0.5,5,4,131,3,NA
fcp-trial,180,796279,0.0-141.0-0.0,voc_e2,12012,"[{""event"":""fullscreenenter"",""trial"":1,""time"":12838}]",NA,NA,NA,NA,NA,4,#1CD855,#FA92F8,10,0,0,38,1,345.5,37,1,593.8999998569489,10,0,experiment,NA,NA,2,0.5,0.5,5,4,132,3,NA
fcp-trial,181,798920,0.0-142.0-0.0,voc_e2,12012,"[{""event"":""fullscreenenter"",""trial"":1,""time"":12838}]",NA,NA,NA,NA,NA,0,#741CD8,#D8271C,0,0,1,38,1,456.09999990463257,37,1,673.8000001907349,0,1,experiment,NA,NA,0,0.9,0.1,0,1,133,3,NA
fcp-trial,182,801779,0.0-143.0-0.0,voc_e2,12012,"[{""event"":""fullscreenenter"",""trial"":1,""time"":12838}]",NA,NA,NA,NA,NA,2,#3386FF,#D89F1C,10,0,1,38,1,497.7000000476837,39,0,846,0,0,experiment,NA,NA,1,0.7,0.3,2,3,134,3,NA
fcp-trial,183,805261,0.0-144.0-0.0,voc_e2,12012,"[{""event"":""fullscreenenter"",""trial"":1,""time"":12838}]",NA,NA,NA,NA,NA,2,#FA92F8,#1CD855,0,0,1,38,1,463.60000014305115,39,0,1506.1000001430511,0,0,experiment,NA,NA,2,0.5,0.5,4,5,135,3,NA
fcp-trial,184,807762,0.0-145.0-0.0,voc_e2,12012,"[{""event"":""fullscreenenter"",""trial"":1,""time"":12838}]",NA,NA,NA,NA,NA,6,#D89F1C,#3386FF,0,10,0,38,1,332.30000019073486,37,1,658.1000001430511,0,0,experiment,NA,NA,1,0.3,0.7,3,2,136,4,NA
fcp-trial,185,811795,0.0-146.0-0.0,voc_e2,12012,"[{""event"":""fullscreenenter"",""trial"":1,""time"":12838}]",NA,NA,NA,NA,NA,6,#D8271C,#741CD8,0,10,0,38,1,421.59999990463257,39,0,2101.600000143051,10,1,experiment,NA,NA,0,0.1,0.9,1,0,137,4,NA
fcp-trial,186,814465,0.0-147.0-0.0,voc_e2,12012,"[{""event"":""fullscreenenter"",""trial"":1,""time"":12838}]",NA,NA,NA,NA,NA,6,#FA92F8,#1CD855,0,10,1,38,1,330.2000000476837,37,1,829.5,0,1,experiment,NA,NA,2,0.5,0.5,4,5,138,4,NA
fcp-trial,187,817197,0.0-148.0-0.0,voc_e2,12012,"[{""event"":""fullscreenenter"",""trial"":1,""time"":12838}]",NA,NA,NA,NA,NA,5,#D89F1C,#3386FF,0,10,0,38,1,478.5,39,0,739.7000000476837,10,1,experiment,NA,NA,1,0.3,0.7,3,2,139,4,NA
fcp-trial,188,819817,0.0-149.0-0.0,voc_e2,12012,"[{""event"":""fullscreenenter"",""trial"":1,""time"":12838}]",NA,NA,NA,NA,NA,0,#D89F1C,#3386FF,0,10,0,38,1,396.7000000476837,39,0,709.7999999523163,10,1,experiment,NA,NA,1,0.3,0.7,3,2,140,4,NA
fcp-trial,189,822598,0.0-150.0-0.0,voc_e2,12012,"[{""event"":""fullscreenenter"",""trial"":1,""time"":12838}]",NA,NA,NA,NA,NA,5,#FA92F8,#1CD855,0,0,1,38,1,344.59999990463257,39,0,921.7000000476836,0,0,experiment,NA,NA,2,0.5,0.5,4,5,141,4,NA
fcp-trial,190,825210,0.0-151.0-0.0,voc_e2,12012,"[{""event"":""fullscreenenter"",""trial"":1,""time"":12838}]",NA,NA,NA,NA,NA,2,#741CD8,#D8271C,10,0,1,38,1,571.8000001907349,37,1,529.0999999046326,10,1,experiment,NA,NA,0,0.9,0.1,0,1,142,4,NA
fcp-trial,191,827846,0.0-152.0-0.0,voc_e2,12012,"[{""event"":""fullscreenenter"",""trial"":1,""time"":12838}]",NA,NA,NA,NA,NA,1,#D8271C,#741CD8,0,10,0,38,1,496.2999999523163,39,0,628.5,10,1,experiment,NA,NA,0,0.1,0.9,1,0,143,4,NA
fcp-trial,192,830391,0.0-153.0-0.0,voc_e2,12012,"[{""event"":""fullscreenenter"",""trial"":1,""time"":12838}]",NA,NA,NA,NA,NA,1,#3386FF,#D89F1C,10,0,1,38,1,404.60000014305115,37,1,628.0999999046326,10,1,experiment,NA,NA,1,0.7,0.3,2,3,144,4,NA
fcp-trial,193,832906,0.0-154.0-0.0,voc_e2,12012,"[{""event"":""fullscreenenter"",""trial"":1,""time"":12838}]",NA,NA,NA,NA,NA,1,#FA92F8,#1CD855,10,10,1,38,1,360.10000014305115,37,1,637.9000000953674,10,1,experiment,NA,NA,2,0.5,0.5,4,5,145,4,NA
fcp-trial,194,835445,0.0-155.0-0.0,voc_e2,12012,"[{""event"":""fullscreenenter"",""trial"":1,""time"":12838}]",NA,NA,NA,NA,NA,5,#741CD8,#D8271C,10,0,1,38,1,321.7000000476837,37,1,704.8999998569489,10,1,experiment,NA,NA,0,0.9,0.1,0,1,146,4,NA
fcp-trial,195,838264,0.0-156.0-0.0,voc_e2,12012,"[{""event"":""fullscreenenter"",""trial"":1,""time"":12838}]",NA,NA,NA,NA,NA,3,#D89F1C,#3386FF,0,10,0,38,1,396.2000000476837,39,0,905.8999998569489,10,1,experiment,NA,NA,1,0.3,0.7,3,2,147,4,NA
fcp-trial,196,840829,0.0-157.0-0.0,voc_e2,12012,"[{""event"":""fullscreenenter"",""trial"":1,""time"":12838}]",NA,NA,NA,NA,NA,6,#FA92F8,#1CD855,10,0,1,38,1,447.39999985694885,37,1,602.6999998092651,10,1,experiment,NA,NA,2,0.5,0.5,4,5,148,4,NA
fcp-trial,197,843303,0.0-158.0-0.0,voc_e2,12012,"[{""event"":""fullscreenenter"",""trial"":1,""time"":12838}]",NA,NA,NA,NA,NA,4,#741CD8,#D8271C,10,0,1,38,1,421.7000000476837,37,1,540.3999998569489,10,1,experiment,NA,NA,0,0.9,0.1,0,1,149,4,NA
fcp-trial,198,845848,0.0-159.0-0.0,voc_e2,12012,"[{""event"":""fullscreenenter"",""trial"":1,""time"":12838}]",NA,NA,NA,NA,NA,1,#3386FF,#D89F1C,10,0,1,38,1,504.7999999523163,37,1,528.7999999523163,10,1,experiment,NA,NA,1,0.7,0.3,2,3,150,4,NA
fcp-trial,199,848340,0.0-160.0-0.0,voc_e2,12012,"[{""event"":""fullscreenenter"",""trial"":1,""time"":12838}]",NA,NA,NA,NA,NA,2,#741CD8,#D8271C,10,10,1,38,1,424.90000009536743,37,1,558.7999999523163,10,1,experiment,NA,NA,0,0.9,0.1,0,1,151,4,NA
fcp-trial,200,851626,0.0-161.0-0.0,voc_e2,12012,"[{""event"":""fullscreenenter"",""trial"":1,""time"":12838}]",NA,NA,NA,NA,NA,3,#D89F1C,#3386FF,0,0,0,38,1,496.2999999523163,39,0,1279.7000000476835,0,1,experiment,NA,NA,1,0.3,0.7,3,2,152,4,NA
fcp-trial,201,854451,0.0-162.0-0.0,voc_e2,12012,"[{""event"":""fullscreenenter"",""trial"":1,""time"":12838}]",NA,NA,NA,NA,NA,4,#1CD855,#FA92F8,10,0,0,38,1,326.89999985694885,39,0,985.6000001430511,0,1,experiment,NA,NA,2,0.5,0.5,5,4,153,4,NA
fcp-trial,202,857080,0.0-163.0-0.0,voc_e2,12012,"[{""event"":""fullscreenenter"",""trial"":1,""time"":12838}]",NA,NA,NA,NA,NA,6,#D8271C,#741CD8,0,10,0,38,1,524.3999998569489,39,0,590.6000001430511,10,1,experiment,NA,NA,0,0.1,0.9,1,0,154,4,NA
fcp-trial,203,860317,0.0-164.0-0.0,voc_e2,12012,"[{""event"":""fullscreenenter"",""trial"":1,""time"":12838}]",NA,NA,NA,NA,NA,5,#1CD855,#FA92F8,0,10,0,38,1,587.4000000953674,39,0,1130.0999999046326,10,1,experiment,NA,NA,2,0.5,0.5,5,4,155,4,NA
fcp-trial,204,863247,0.0-165.0-0.0,voc_e2,12012,"[{""event"":""fullscreenenter"",""trial"":1,""time"":12838}]",NA,NA,NA,NA,NA,0,#D89F1C,#3386FF,10,10,0,38,1,608.6000001430511,39,0,804,10,1,experiment,NA,NA,1,0.3,0.7,3,2,156,4,NA
fcp-trial,205,865661,0.0-166.0-0.0,voc_e2,12012,"[{""event"":""fullscreenenter"",""trial"":1,""time"":12838}]",NA,NA,NA,NA,NA,0,#D8271C,#741CD8,0,0,0,38,1,358.5,39,0,541.8999998569489,0,1,experiment,NA,NA,0,0.1,0.9,1,0,157,4,NA
fcp-trial,206,868569,0.0-167.0-0.0,voc_e2,12012,"[{""event"":""fullscreenenter"",""trial"":1,""time"":12838}]",NA,NA,NA,NA,NA,3,#1CD855,#FA92F8,0,10,0,38,1,922.2000000476837,39,0,468.39999985694885,10,1,experiment,NA,NA,2,0.5,0.5,5,4,158,4,NA
fcp-trial,207,871274,0.0-168.0-0.0,voc_e2,12012,"[{""event"":""fullscreenenter"",""trial"":1,""time"":12838}]",NA,NA,NA,NA,NA,5,#D89F1C,#3386FF,0,10,0,38,1,608.0999999046326,39,0,586.9000000953674,10,1,experiment,NA,NA,1,0.3,0.7,3,2,159,4,NA
fcp-trial,208,874071,0.0-169.0-0.0,voc_e2,12012,"[{""event"":""fullscreenenter"",""trial"":1,""time"":12838}]",NA,NA,NA,NA,NA,0,#1CD855,#FA92F8,10,0,0,38,1,549.7000000476837,39,0,734.4000000953674,0,1,experiment,NA,NA,2,0.5,0.5,5,4,160,4,NA
fcp-trial,209,876624,0.0-170.0-0.0,voc_e2,12012,"[{""event"":""fullscreenenter"",""trial"":1,""time"":12838}]",NA,NA,NA,NA,NA,1,#741CD8,#D8271C,10,10,1,38,1,570.7999999523163,37,1,470,10,1,experiment,NA,NA,0,0.9,0.1,0,1,161,4,NA
fcp-trial,210,879176,0.0-171.0-0.0,voc_e2,12012,"[{""event"":""fullscreenenter"",""trial"":1,""time"":12838}]",NA,NA,NA,NA,NA,4,#D89F1C,#3386FF,0,10,0,38,1,532.2999999523163,39,0,507.2000000476837,10,1,experiment,NA,NA,1,0.3,0.7,3,2,162,4,NA
fcp-trial,211,881773,0.0-172.0-0.0,voc_e2,12012,"[{""event"":""fullscreenenter"",""trial"":1,""time"":12838}]",NA,NA,NA,NA,NA,1,#FA92F8,#1CD855,10,10,1,38,1,469.39999985694885,37,1,615.4000000953674,10,1,experiment,NA,NA,2,0.5,0.5,4,5,163,4,NA
fcp-trial,212,884332,0.0-173.0-0.0,voc_e2,12012,"[{""event"":""fullscreenenter"",""trial"":1,""time"":12838}]",NA,NA,NA,NA,NA,2,#1CD855,#FA92F8,0,10,0,38,1,506.2999999523163,39,0,541.2000000476837,10,1,experiment,NA,NA,2,0.5,0.5,5,4,164,4,NA
fcp-trial,213,887283,0.0-174.0-0.0,voc_e2,12012,"[{""event"":""fullscreenenter"",""trial"":1,""time"":12838}]",NA,NA,NA,NA,NA,3,#741CD8,#D8271C,10,0,1,38,1,476.60000014305115,39,0,963.8999998569489,0,0,experiment,NA,NA,0,0.9,0.1,0,1,165,4,NA
fcp-trial,214,890849,0.0-175.0-0.0,voc_e2,12012,"[{""event"":""fullscreenenter"",""trial"":1,""time"":12838}]",NA,NA,NA,NA,NA,5,#D8271C,#741CD8,0,10,0,38,1,665.4000000953674,37,1,1391,0,0,experiment,NA,NA,0,0.1,0.9,1,0,166,4,NA
fcp-trial,215,893684,0.0-176.0-0.0,voc_e2,12012,"[{""event"":""fullscreenenter"",""trial"":1,""time"":12838}]",NA,NA,NA,NA,NA,6,#D89F1C,#3386FF,0,0,0,38,1,399.7000000476837,39,0,922.6000001430511,0,1,experiment,NA,NA,1,0.3,0.7,3,2,167,4,NA
fcp-trial,216,896339,0.0-177.0-0.0,voc_e2,12012,"[{""event"":""fullscreenenter"",""trial"":1,""time"":12838}]",NA,NA,NA,NA,NA,2,#D89F1C,#3386FF,0,0,0,38,1,329.10000014305115,39,0,815.9000000953674,0,1,experiment,NA,NA,1,0.3,0.7,3,2,168,4,NA
fcp-trial,217,899095,0.0-178.0-0.0,voc_e2,12012,"[{""event"":""fullscreenenter"",""trial"":1,""time"":12838}]",NA,NA,NA,NA,NA,5,#D89F1C,#3386FF,0,0,0,38,1,646.6999998092651,37,1,591.2999999523163,0,0,experiment,NA,NA,1,0.3,0.7,3,2,169,4,NA
fcp-trial,218,901831,0.0-179.0-0.0,voc_e2,12012,"[{""event"":""fullscreenenter"",""trial"":1,""time"":12838}]",NA,NA,NA,NA,NA,5,#D8271C,#741CD8,0,10,0,38,1,745.5,39,0,478.90000009536743,10,1,experiment,NA,NA,0,0.1,0.9,1,0,170,4,NA
fcp-trial,219,904368,0.0-180.0-0.0,voc_e2,12012,"[{""event"":""fullscreenenter"",""trial"":1,""time"":12838}]",NA,NA,NA,NA,NA,3,#FA92F8,#1CD855,0,0,1,38,1,429.60000014305115,37,1,596.7999999523163,0,1,experiment,NA,NA,2,0.5,0.5,4,5,171,4,NA
fcp-trial,220,906769,0.0-181.0-0.0,voc_e2,12012,"[{""event"":""fullscreenenter"",""trial"":1,""time"":12838}]",NA,NA,NA,NA,NA,1,#D8271C,#741CD8,10,10,0,38,1,384.39999985694885,39,0,507.2000000476837,10,1,experiment,NA,NA,0,0.1,0.9,1,0,172,4,NA
fcp-trial,221,909323,0.0-182.0-0.0,voc_e2,12012,"[{""event"":""fullscreenenter"",""trial"":1,""time"":12838}]",NA,NA,NA,NA,NA,1,#3386FF,#D89F1C,0,0,1,38,1,552.3000001907349,37,1,489.19999980926514,0,1,experiment,NA,NA,1,0.7,0.3,2,3,173,4,NA
fcp-trial,222,911938,0.0-183.0-0.0,voc_e2,12012,"[{""event"":""fullscreenenter"",""trial"":1,""time"":12838}]",NA,NA,NA,NA,NA,4,#741CD8,#D8271C,10,0,1,38,1,494.2000000476837,37,1,613.5999999046326,10,1,experiment,NA,NA,0,0.9,0.1,0,1,174,4,NA
fcp-trial,223,914716,0.0-184.0-0.0,voc_e2,12012,"[{""event"":""fullscreenenter"",""trial"":1,""time"":12838}]",NA,NA,NA,NA,NA,1,#FA92F8,#1CD855,10,10,1,38,1,502.2000000476837,37,1,759.5,10,1,experiment,NA,NA,2,0.5,0.5,4,5,175,4,NA
fcp-trial,224,917234,0.0-185.0-0.0,voc_e2,12012,"[{""event"":""fullscreenenter"",""trial"":1,""time"":12838}]",NA,NA,NA,NA,NA,2,#D8271C,#741CD8,0,10,0,38,1,439.89999985694885,39,0,566.7000000476837,10,1,experiment,NA,NA,0,0.1,0.9,1,0,176,4,NA
fcp-trial,225,919719,0.0-186.0-0.0,voc_e2,12012,"[{""event"":""fullscreenenter"",""trial"":1,""time"":12838}]",NA,NA,NA,NA,NA,3,#3386FF,#D89F1C,10,0,1,38,1,467.09999990463257,37,1,505.60000014305115,10,1,experiment,NA,NA,1,0.7,0.3,2,3,177,4,NA
fcp-trial,226,922226,0.0-187.0-0.0,voc_e2,12012,"[{""event"":""fullscreenenter"",""trial"":1,""time"":12838}]",NA,NA,NA,NA,NA,0,#1CD855,#FA92F8,10,10,0,38,1,412.59999990463257,39,0,578.1000001430511,10,1,experiment,NA,NA,2,0.5,0.5,5,4,178,4,NA
fcp-trial,227,925804,0.0-188.0-0.0,voc_e2,12012,"[{""event"":""fullscreenenter"",""trial"":1,""time"":12838}]",NA,NA,NA,NA,NA,5,#1CD855,#FA92F8,0,10,0,38,1,401.89999985694885,37,1,1666.7000000476835,0,0,experiment,NA,NA,2,0.5,0.5,5,4,179,4,NA
fcp-trial,228,929034,0.0-189.0-0.0,voc_e2,12012,"[{""event"":""fullscreenenter"",""trial"":1,""time"":12838}]",NA,NA,NA,NA,NA,3,#D8271C,#741CD8,0,10,0,38,1,283.19999980926514,39,0,1438.7000000476835,10,1,experiment,NA,NA,0,0.1,0.9,1,0,180,4,NA
fcp-trial,229,932317,0.0-190.0-0.0,voc_e2,12012,"[{""event"":""fullscreenenter"",""trial"":1,""time"":12838}]",NA,NA,NA,NA,NA,0,#3386FF,#D89F1C,10,0,1,38,1,492.5,37,1,1278.5,10,1,experiment,NA,NA,1,0.7,0.3,2,3,181,5,NA
fcp-trial,230,935351,0.0-191.0-0.0,voc_e2,12012,"[{""event"":""fullscreenenter"",""trial"":1,""time"":12838}]",NA,NA,NA,NA,NA,6,#3386FF,#D89F1C,10,10,1,38,1,679.7000000476837,37,1,840.7999999523163,10,1,experiment,NA,NA,1,0.7,0.3,2,3,182,5,NA
fcp-trial,231,938107,0.0-192.0-0.0,voc_e2,12012,"[{""event"":""fullscreenenter"",""trial"":1,""time"":12838}]",NA,NA,NA,NA,NA,4,#1CD855,#FA92F8,0,10,0,38,1,417.69999980926514,39,0,823,10,1,experiment,NA,NA,2,0.5,0.5,5,4,183,5,NA
fcp-trial,232,940803,0.0-193.0-0.0,voc_e2,12012,"[{""event"":""fullscreenenter"",""trial"":1,""time"":12838}]",NA,NA,NA,NA,NA,2,#1CD855,#FA92F8,0,10,0,38,1,481.89999985694885,39,0,702.7999999523163,10,1,experiment,NA,NA,2,0.5,0.5,5,4,184,5,NA
fcp-trial,233,943359,0.0-194.0-0.0,voc_e2,12012,"[{""event"":""fullscreenenter"",""trial"":1,""time"":12838}]",NA,NA,NA,NA,NA,0,#741CD8,#D8271C,10,10,1,38,1,454.2999999523163,37,1,588.9000000953674,10,1,experiment,NA,NA,0,0.9,0.1,0,1,185,5,NA
fcp-trial,234,945956,0.0-195.0-0.0,voc_e2,12012,"[{""event"":""fullscreenenter"",""trial"":1,""time"":12838}]",NA,NA,NA,NA,NA,4,#3386FF,#D89F1C,0,0,1,38,1,334.90000009536743,37,1,749.2999999523163,0,1,experiment,NA,NA,1,0.7,0.3,2,3,186,5,NA
fcp-trial,235,948461,0.0-196.0-0.0,voc_e2,12012,"[{""event"":""fullscreenenter"",""trial"":1,""time"":12838}]",NA,NA,NA,NA,NA,6,#FA92F8,#1CD855,0,0,1,38,1,395.59999990463257,37,1,582.5999999046326,0,1,experiment,NA,NA,2,0.5,0.5,4,5,187,5,NA
fcp-trial,236,950991,0.0-197.0-0.0,voc_e2,12012,"[{""event"":""fullscreenenter"",""trial"":1,""time"":12838}]",NA,NA,NA,NA,NA,6,#741CD8,#D8271C,10,0,1,38,1,488.2999999523163,37,1,532.2999999523163,10,1,experiment,NA,NA,0,0.9,0.1,0,1,188,5,NA
fcp-trial,237,954357,0.0-198.0-0.0,voc_e2,12012,"[{""event"":""fullscreenenter"",""trial"":1,""time"":12838}]",NA,NA,NA,NA,NA,2,#3386FF,#D89F1C,0,0,1,38,1,413.90000009536743,39,0,1446.8999998569489,0,0,experiment,NA,NA,1,0.7,0.3,2,3,189,5,NA
fcp-trial,238,956881,0.0-199.0-0.0,voc_e2,12012,"[{""event"":""fullscreenenter"",""trial"":1,""time"":12838}]",NA,NA,NA,NA,NA,3,#1CD855,#FA92F8,10,0,0,38,1,432.30000019073486,39,0,585.2000000476837,0,1,experiment,NA,NA,2,0.5,0.5,5,4,190,5,NA
fcp-trial,239,959188,0.0-200.0-0.0,voc_e2,12012,"[{""event"":""fullscreenenter"",""trial"":1,""time"":12838}]",NA,NA,NA,NA,NA,5,#741CD8,#D8271C,10,0,1,38,1,327.89999985694885,37,1,463.90000009536743,10,1,experiment,NA,NA,0,0.9,0.1,0,1,191,5,NA
fcp-trial,240,961572,0.0-201.0-0.0,voc_e2,12012,"[{""event"":""fullscreenenter"",""trial"":1,""time"":12838}]",NA,NA,NA,NA,NA,3,#D8271C,#741CD8,0,10,0,38,1,389.7999999523163,39,0,483.7999999523163,10,1,experiment,NA,NA,0,0.1,0.9,1,0,192,5,NA
fcp-trial,241,964091,0.0-202.0-0.0,voc_e2,12012,"[{""event"":""fullscreenenter"",""trial"":1,""time"":12838}]",NA,NA,NA,NA,NA,5,#1CD855,#FA92F8,10,10,0,38,1,429,39,0,583,10,1,experiment,NA,NA,2,0.5,0.5,5,4,193,5,NA
fcp-trial,242,967245,0.0-203.0-0.0,voc_e2,12012,"[{""event"":""fullscreenenter"",""trial"":1,""time"":12838}]",NA,NA,NA,NA,NA,5,#3386FF,#D89F1C,10,10,1,38,1,375.2000000476837,37,1,1267.7999999523165,10,1,experiment,NA,NA,1,0.7,0.3,2,3,194,5,NA
fcp-trial,243,969745,0.0-204.0-0.0,voc_e2,12012,"[{""event"":""fullscreenenter"",""trial"":1,""time"":12838}]",NA,NA,NA,NA,NA,0,#D8271C,#741CD8,10,10,0,38,1,420,39,0,570.8999998569489,10,1,experiment,NA,NA,0,0.1,0.9,1,0,195,5,NA
fcp-trial,244,972227,0.0-205.0-0.0,voc_e2,12012,"[{""event"":""fullscreenenter"",""trial"":1,""time"":12838}]",NA,NA,NA,NA,NA,4,#741CD8,#D8271C,10,0,1,38,1,464.2000000476837,37,1,502.7999999523163,10,1,experiment,NA,NA,0,0.9,0.1,0,1,196,5,NA
fcp-trial,245,974720,0.0-206.0-0.0,voc_e2,12012,"[{""event"":""fullscreenenter"",""trial"":1,""time"":12838}]",NA,NA,NA,NA,NA,4,#3386FF,#D89F1C,10,0,1,38,1,453.30000019073486,37,1,527.7000000476837,10,1,experiment,NA,NA,1,0.7,0.3,2,3,197,5,NA
fcp-trial,246,977220,0.0-207.0-0.0,voc_e2,12012,"[{""event"":""fullscreenenter"",""trial"":1,""time"":12838}]",NA,NA,NA,NA,NA,6,#FA92F8,#1CD855,0,0,1,38,1,376,37,1,613.2000000476837,0,1,experiment,NA,NA,2,0.5,0.5,4,5,198,5,NA
fcp-trial,247,979752,0.0-208.0-0.0,voc_e2,12012,"[{""event"":""fullscreenenter"",""trial"":1,""time"":12838}]",NA,NA,NA,NA,NA,0,#3386FF,#D89F1C,10,0,1,38,1,511.40000009536743,37,1,510.5,10,1,experiment,NA,NA,1,0.7,0.3,2,3,199,5,NA
fcp-trial,248,983380,0.0-209.0-0.0,voc_e2,12012,"[{""event"":""fullscreenenter"",""trial"":1,""time"":12838}]",NA,NA,NA,NA,NA,1,#D89F1C,#3386FF,0,10,0,38,1,495.60000014305115,39,0,1621.3999998569489,10,1,experiment,NA,NA,1,0.3,0.7,3,2,200,5,NA
fcp-trial,249,985968,0.0-210.0-0.0,voc_e2,12012,"[{""event"":""fullscreenenter"",""trial"":1,""time"":12838}]",NA,NA,NA,NA,NA,2,#741CD8,#D8271C,0,0,1,38,1,423.09999990463257,37,1,648.2999999523163,0,1,experiment,NA,NA,0,0.9,0.1,0,1,201,5,NA
fcp-trial,250,988470,0.0-211.0-0.0,voc_e2,12012,"[{""event"":""fullscreenenter"",""trial"":1,""time"":12838}]",NA,NA,NA,NA,NA,1,#FA92F8,#1CD855,0,0,1,38,1,457.5,37,1,532.1999998092651,0,1,experiment,NA,NA,2,0.5,0.5,4,5,202,5,NA
fcp-trial,251,990923,0.0-212.0-0.0,voc_e2,12012,"[{""event"":""fullscreenenter"",""trial"":1,""time"":12838}]",NA,NA,NA,NA,NA,2,#FA92F8,#1CD855,0,10,1,38,1,359.5,37,1,583.5999999046326,0,1,experiment,NA,NA,2,0.5,0.5,4,5,203,5,NA
fcp-trial,252,993609,0.0-213.0-0.0,voc_e2,12012,"[{""event"":""fullscreenenter"",""trial"":1,""time"":12838}]",NA,NA,NA,NA,NA,3,#3386FF,#D89F1C,10,10,1,38,1,839.0999999046326,37,1,335.2000000476837,10,1,experiment,NA,NA,1,0.7,0.3,2,3,204,5,NA
fcp-trial,253,996350,0.0-214.0-0.0,voc_e2,12012,"[{""event"":""fullscreenenter"",""trial"":1,""time"":12838}]",NA,NA,NA,NA,NA,4,#1CD855,#FA92F8,0,10,0,38,1,465,39,0,761.5999999046326,10,1,experiment,NA,NA,2,0.5,0.5,5,4,205,5,NA
fcp-trial,254,998634,0.0-215.0-0.0,voc_e2,12012,"[{""event"":""fullscreenenter"",""trial"":1,""time"":12838}]",NA,NA,NA,NA,NA,1,#741CD8,#D8271C,10,0,1,38,1,327.7999999523163,37,1,446.10000014305115,10,1,experiment,NA,NA,0,0.9,0.1,0,1,206,5,NA
fcp-trial,255,1000978,0.0-216.0-0.0,voc_e2,12012,"[{""event"":""fullscreenenter"",""trial"":1,""time"":12838}]",NA,NA,NA,NA,NA,6,#D8271C,#741CD8,10,10,0,38,1,332,39,0,500.59999990463257,10,1,experiment,NA,NA,0,0.1,0.9,1,0,207,5,NA
fcp-trial,256,1003657,0.0-217.0-0.0,voc_e2,12012,"[{""event"":""fullscreenenter"",""trial"":1,""time"":12838}]",NA,NA,NA,NA,NA,6,#3386FF,#D89F1C,10,0,1,38,1,777,37,1,385.2000000476837,10,1,experiment,NA,NA,1,0.7,0.3,2,3,208,5,NA
fcp-trial,257,1007237,0.0-218.0-0.0,voc_e2,12012,"[{""event"":""fullscreenenter"",""trial"":1,""time"":12838}]",NA,NA,NA,NA,NA,0,#1CD855,#FA92F8,10,10,0,38,1,1521.1000001430511,39,0,544.7000000476837,10,1,experiment,NA,NA,2,0.5,0.5,5,4,209,5,NA
fcp-trial,258,1010713,0.0-219.0-0.0,voc_e2,12012,"[{""event"":""fullscreenenter"",""trial"":1,""time"":12838}]",NA,NA,NA,NA,NA,2,#3386FF,#D89F1C,0,0,1,38,1,948.2000000476837,37,1,1018.2999999523164,0,1,experiment,NA,NA,1,0.7,0.3,2,3,210,5,NA
audio-instructions,259,1015996,0.0-220.0,voc_e2,12012,"[{""event"":""fullscreenenter"",""trial"":1,""time"":12838}]",NA,727.6999998092651,static/audio/pause.wav,NA,0,NA,NA,NA,NA,NA,NA,NA,NA,NA,NA,NA,NA,NA,NA,NA,NA,NA,NA,NA,NA,NA,NA,NA,NA,NA
fcp-trial,260,1020896,0.0-221.0-0.0,voc_e2,12012,"[{""event"":""fullscreenenter"",""trial"":1,""time"":12838}]",NA,NA,NA,NA,NA,3,#FA92F8,#1CD855,0,0,1,38,1,2064,37,1,1305.9000000953674,0,1,experiment,NA,NA,2,0.5,0.5,4,5,211,5,NA
fcp-trial,261,1023610,0.0-222.0-0.0,voc_e2,12012,"[{""event"":""fullscreenenter"",""trial"":1,""time"":12838}]",NA,NA,NA,NA,NA,5,#741CD8,#D8271C,10,0,1,38,1,541.7999999523163,37,1,654.5999999046326,10,1,experiment,NA,NA,0,0.9,0.1,0,1,212,5,NA
fcp-trial,262,1026262,0.0-223.0-0.0,voc_e2,12012,"[{""event"":""fullscreenenter"",""trial"":1,""time"":12838}]",NA,NA,NA,NA,NA,5,#1CD855,#FA92F8,10,10,0,38,1,465.10000014305115,39,0,669,10,1,experiment,NA,NA,2,0.5,0.5,5,4,213,5,NA
fcp-trial,263,1028925,0.0-224.0-0.0,voc_e2,12012,"[{""event"":""fullscreenenter"",""trial"":1,""time"":12838}]",NA,NA,NA,NA,NA,3,#D8271C,#741CD8,0,10,0,38,1,578,39,0,565.5999999046326,10,1,experiment,NA,NA,0,0.1,0.9,1,0,214,5,NA
fcp-trial,264,1031791,0.0-225.0-0.0,voc_e2,12012,"[{""event"":""fullscreenenter"",""trial"":1,""time"":12838}]",NA,NA,NA,NA,NA,6,#D89F1C,#3386FF,0,10,0,38,1,601.2999999523163,39,0,748.9000000953674,10,1,experiment,NA,NA,1,0.3,0.7,3,2,215,5,NA
fcp-trial,265,1034508,0.0-226.0-0.0,voc_e2,12012,"[{""event"":""fullscreenenter"",""trial"":1,""time"":12838}]",NA,NA,NA,NA,NA,2,#3386FF,#D89F1C,10,10,1,38,1,505.59999990463257,39,0,684,10,0,experiment,NA,NA,1,0.7,0.3,2,3,216,5,NA
fcp-trial,266,1037057,0.0-227.0-0.0,voc_e2,12012,"[{""event"":""fullscreenenter"",""trial"":1,""time"":12838}]",NA,NA,NA,NA,NA,0,#FA92F8,#1CD855,0,10,1,38,1,515.5,37,1,507.60000014305115,0,1,experiment,NA,NA,2,0.5,0.5,4,5,217,5,NA
fcp-trial,267,1039783,0.0-228.0-0.0,voc_e2,12012,"[{""event"":""fullscreenenter"",""trial"":1,""time"":12838}]",NA,NA,NA,NA,NA,4,#741CD8,#D8271C,0,10,1,38,1,773.0999999046326,37,1,435.59999990463257,0,1,experiment,NA,NA,0,0.9,0.1,0,1,218,5,NA
fcp-trial,268,1044955,0.0-229.0-0.0,voc_e2,12012,"[{""event"":""fullscreenenter"",""trial"":1,""time"":12838}]",NA,NA,NA,NA,NA,1,#741CD8,#D8271C,10,10,1,38,1,2719.5999999046326,37,1,922,10,1,experiment,NA,NA,0,0.9,0.1,0,1,219,5,NA
fcp-trial,269,1047469,0.0-230.0-0.0,voc_e2,12012,"[{""event"":""fullscreenenter"",""trial"":1,""time"":12838}]",NA,NA,NA,NA,NA,1,#D89F1C,#3386FF,0,10,0,38,1,369.5,39,0,626.1000001430511,10,1,experiment,NA,NA,1,0.3,0.7,3,2,220,5,NA
fcp-trial,270,1049877,0.0-231.0-0.0,voc_e2,12012,"[{""event"":""fullscreenenter"",""trial"":1,""time"":12838}]",NA,NA,NA,NA,NA,2,#1CD855,#FA92F8,0,10,0,38,1,399.10000014305115,39,0,501,10,1,experiment,NA,NA,2,0.5,0.5,5,4,221,5,NA
fcp-trial,271,1052137,0.0-232.0-0.0,voc_e2,12012,"[{""event"":""fullscreenenter"",""trial"":1,""time"":12838}]",NA,NA,NA,NA,NA,6,#741CD8,#D8271C,10,0,1,38,1,411.2999999523163,37,1,335.89999985694885,10,1,experiment,NA,NA,0,0.9,0.1,0,1,222,5,NA
fcp-trial,272,1054521,0.0-233.0-0.0,voc_e2,12012,"[{""event"":""fullscreenenter"",""trial"":1,""time"":12838}]",NA,NA,NA,NA,NA,0,#741CD8,#D8271C,10,0,1,38,1,531.9000000953674,37,1,341.7999999523163,10,1,experiment,NA,NA,0,0.9,0.1,0,1,223,5,NA
fcp-trial,273,1056986,0.0-234.0-0.0,voc_e2,12012,"[{""event"":""fullscreenenter"",""trial"":1,""time"":12838}]",NA,NA,NA,NA,NA,6,#1CD855,#FA92F8,0,0,0,38,1,533.1000001430511,39,0,424.09999990463257,0,1,experiment,NA,NA,2,0.5,0.5,5,4,224,5,NA
fcp-trial,274,1059575,0.0-235.0-0.0,voc_e2,12012,"[{""event"":""fullscreenenter"",""trial"":1,""time"":12838}]",NA,NA,NA,NA,NA,0,#D89F1C,#3386FF,0,10,0,38,1,374.90000009536743,39,0,699.2000000476837,10,1,experiment,NA,NA,1,0.3,0.7,3,2,225,5,NA
fcp-trial,275,1062300,0.0-236.0-0.0,voc_e2,12012,"[{""event"":""fullscreenenter"",""trial"":1,""time"":12838}]",NA,NA,NA,NA,NA,1,#1CD855,#FA92F8,10,0,0,38,1,429.2999999523163,39,0,788.6000001430511,0,1,experiment,NA,NA,2,0.5,0.5,5,4,226,6,NA
fcp-trial,276,1064893,0.0-237.0-0.0,voc_e2,12012,"[{""event"":""fullscreenenter"",""trial"":1,""time"":12838}]",NA,NA,NA,NA,NA,2,#741CD8,#D8271C,0,0,1,38,1,441.40000009536743,37,1,635.2999999523163,0,1,experiment,NA,NA,0,0.9,0.1,0,1,227,6,NA
fcp-trial,277,1067376,0.0-238.0-0.0,voc_e2,12012,"[{""event"":""fullscreenenter"",""trial"":1,""time"":12838}]",NA,NA,NA,NA,NA,3,#3386FF,#D89F1C,10,0,1,38,1,343.89999985694885,37,1,628.7000000476837,10,1,experiment,NA,NA,1,0.7,0.3,2,3,228,6,NA
fcp-trial,278,1070043,0.0-239.0-0.0,voc_e2,12012,"[{""event"":""fullscreenenter"",""trial"":1,""time"":12838}]",NA,NA,NA,NA,NA,5,#D89F1C,#3386FF,0,0,0,38,1,490.90000009536743,39,0,669.2000000476837,0,1,experiment,NA,NA,1,0.3,0.7,3,2,229,6,NA
fcp-trial,279,1072508,0.0-240.0-0.0,voc_e2,12012,"[{""event"":""fullscreenenter"",""trial"":1,""time"":12838}]",NA,NA,NA,NA,NA,4,#FA92F8,#1CD855,0,0,1,38,1,340.90000009536743,39,0,612.6999998092651,0,0,experiment,NA,NA,2,0.5,0.5,4,5,230,6,NA
fcp-trial,280,1075243,0.0-241.0-0.0,voc_e2,12012,"[{""event"":""fullscreenenter"",""trial"":1,""time"":12838}]",NA,NA,NA,NA,NA,4,#3386FF,#D89F1C,0,10,1,38,1,368.5,37,1,854.7999999523163,0,1,experiment,NA,NA,1,0.7,0.3,2,3,231,6,NA
fcp-trial,281,1077806,0.0-242.0-0.0,voc_e2,12012,"[{""event"":""fullscreenenter"",""trial"":1,""time"":12838}]",NA,NA,NA,NA,NA,1,#741CD8,#D8271C,10,0,1,38,1,467.90000009536743,37,1,578.7000000476837,10,1,experiment,NA,NA,0,0.9,0.1,0,1,232,6,NA
fcp-trial,282,1080482,0.0-243.0-0.0,voc_e2,12012,"[{""event"":""fullscreenenter"",""trial"":1,""time"":12838}]",NA,NA,NA,NA,NA,6,#1CD855,#FA92F8,10,10,0,38,1,385.19999980926514,39,0,775.9000000953674,10,1,experiment,NA,NA,2,0.5,0.5,5,4,233,6,NA
fcp-trial,283,1083061,0.0-244.0-0.0,voc_e2,12012,"[{""event"":""fullscreenenter"",""trial"":1,""time"":12838}]",NA,NA,NA,NA,NA,4,#1CD855,#FA92F8,0,10,0,38,1,378.19999980926514,39,0,683.7000000476837,10,1,experiment,NA,NA,2,0.5,0.5,5,4,234,6,NA
fcp-trial,284,1085590,0.0-245.0-0.0,voc_e2,12012,"[{""event"":""fullscreenenter"",""trial"":1,""time"":12838}]",NA,NA,NA,NA,NA,3,#D89F1C,#3386FF,0,10,0,38,1,368.40000009536743,39,0,645.3000001907349,10,1,experiment,NA,NA,1,0.3,0.7,3,2,235,6,NA
fcp-trial,285,1088301,0.0-246.0-0.0,voc_e2,12012,"[{""event"":""fullscreenenter"",""trial"":1,""time"":12838}]",NA,NA,NA,NA,NA,4,#D8271C,#741CD8,0,10,0,38,1,254.40000009536743,39,0,944.2000000476836,10,1,experiment,NA,NA,0,0.1,0.9,1,0,236,6,NA
fcp-trial,286,1091359,0.0-247.0-0.0,voc_e2,12012,"[{""event"":""fullscreenenter"",""trial"":1,""time"":12838}]",NA,NA,NA,NA,NA,0,#D89F1C,#3386FF,0,10,0,38,1,479.5,39,0,1064.7000000476835,10,1,experiment,NA,NA,1,0.3,0.7,3,2,237,6,NA
fcp-trial,287,1094089,0.0-248.0-0.0,voc_e2,12012,"[{""event"":""fullscreenenter"",""trial"":1,""time"":12838}]",NA,NA,NA,NA,NA,2,#FA92F8,#1CD855,0,0,1,38,1,344.90000009536743,37,1,873.1000001430511,0,1,experiment,NA,NA,2,0.5,0.5,4,5,238,6,NA
fcp-trial,288,1096723,0.0-249.0-0.0,voc_e2,12012,"[{""event"":""fullscreenenter"",""trial"":1,""time"":12838}]",NA,NA,NA,NA,NA,1,#FA92F8,#1CD855,0,10,1,38,1,462.7000000476837,39,0,661.7999999523163,10,0,experiment,NA,NA,2,0.5,0.5,4,5,239,6,NA
fcp-trial,289,1099090,0.0-250.0-0.0,voc_e2,12012,"[{""event"":""fullscreenenter"",""trial"":1,""time"":12838}]",NA,NA,NA,NA,NA,0,#741CD8,#D8271C,10,0,1,38,1,374.90000009536743,37,1,480.60000014305115,10,1,experiment,NA,NA,0,0.9,0.1,0,1,240,6,NA
fcp-trial,290,1101608,0.0-251.0-0.0,voc_e2,12012,"[{""event"":""fullscreenenter"",""trial"":1,""time"":12838}]",NA,NA,NA,NA,NA,6,#741CD8,#D8271C,10,0,1,38,1,400.60000014305115,37,1,607.6000001430511,10,1,experiment,NA,NA,0,0.9,0.1,0,1,241,6,NA
fcp-trial,291,1104100,0.0-252.0-0.0,voc_e2,12012,"[{""event"":""fullscreenenter"",""trial"":1,""time"":12838}]",NA,NA,NA,NA,NA,1,#3386FF,#D89F1C,10,10,1,38,1,484.7999999523163,37,1,494,10,1,experiment,NA,NA,1,0.7,0.3,2,3,242,6,NA
fcp-trial,292,1106631,0.0-253.0-0.0,voc_e2,12012,"[{""event"":""fullscreenenter"",""trial"":1,""time"":12838}]",NA,NA,NA,NA,NA,5,#741CD8,#D8271C,10,0,1,38,1,494.09999990463257,37,1,522.5999999046326,10,1,experiment,NA,NA,0,0.9,0.1,0,1,243,6,NA
fcp-trial,293,1110607,0.0-254.0-0.0,voc_e2,12012,"[{""event"":""fullscreenenter"",""trial"":1,""time"":12838}]",NA,NA,NA,NA,NA,5,#1CD855,#FA92F8,10,10,0,38,1,555.9000000953674,37,1,1901.8000001907349,10,0,experiment,NA,NA,2,0.5,0.5,5,4,244,6,NA
fcp-trial,294,1113285,0.0-255.0-0.0,voc_e2,12012,"[{""event"":""fullscreenenter"",""trial"":1,""time"":12838}]",NA,NA,NA,NA,NA,6,#3386FF,#D89F1C,10,0,1,38,1,355.39999985694885,37,1,811.0999999046326,10,1,experiment,NA,NA,1,0.7,0.3,2,3,245,6,NA
fcp-trial,295,1115758,0.0-256.0-0.0,voc_e2,12012,"[{""event"":""fullscreenenter"",""trial"":1,""time"":12838}]",NA,NA,NA,NA,NA,3,#D8271C,#741CD8,0,10,0,38,1,373.7000000476837,39,0,587.0999999046326,10,1,experiment,NA,NA,0,0.1,0.9,1,0,246,6,NA
fcp-trial,296,1118779,0.0-257.0-0.0,voc_e2,12012,"[{""event"":""fullscreenenter"",""trial"":1,""time"":12838}]",NA,NA,NA,NA,NA,0,#1CD855,#FA92F8,10,0,0,38,1,385.5,37,1,1122.9000000953674,10,0,experiment,NA,NA,2,0.5,0.5,5,4,247,6,NA
fcp-trial,297,1121271,0.0-258.0-0.0,voc_e2,12012,"[{""event"":""fullscreenenter"",""trial"":1,""time"":12838}]",NA,NA,NA,NA,NA,2,#3386FF,#D89F1C,10,0,1,38,1,312.59999990463257,37,1,662.6000001430511,10,1,experiment,NA,NA,1,0.7,0.3,2,3,248,6,NA
fcp-trial,298,1124138,0.0-259.0-0.0,voc_e2,12012,"[{""event"":""fullscreenenter"",""trial"":1,""time"":12838}]",NA,NA,NA,NA,NA,3,#FA92F8,#1CD855,10,10,1,38,1,466.7999999523163,39,0,885.0999999046326,10,0,experiment,NA,NA,2,0.5,0.5,4,5,249,6,NA
fcp-trial,299,1126537,0.0-260.0-0.0,voc_e2,12012,"[{""event"":""fullscreenenter"",""trial"":1,""time"":12838}]",NA,NA,NA,NA,NA,2,#D8271C,#741CD8,0,10,0,38,1,324.69999980926514,39,0,564.2000000476837,10,1,experiment,NA,NA,0,0.1,0.9,1,0,250,6,NA
fcp-trial,300,1129111,0.0-261.0-0.0,voc_e2,12012,"[{""event"":""fullscreenenter"",""trial"":1,""time"":12838}]",NA,NA,NA,NA,NA,5,#3386FF,#D89F1C,10,0,1,38,1,340.2000000476837,37,1,720.7000000476837,10,1,experiment,NA,NA,1,0.7,0.3,2,3,251,6,NA
fcp-trial,301,1131955,0.0-262.0-0.0,voc_e2,12012,"[{""event"":""fullscreenenter"",""trial"":1,""time"":12838}]",NA,NA,NA,NA,NA,4,#D89F1C,#3386FF,0,10,0,38,1,654.2000000476837,39,0,676.0999999046326,10,1,experiment,NA,NA,1,0.3,0.7,3,2,252,6,NA
fcp-trial,302,1134432,0.0-263.0-0.0,voc_e2,12012,"[{""event"":""fullscreenenter"",""trial"":1,""time"":12838}]",NA,NA,NA,NA,NA,2,#741CD8,#D8271C,10,0,1,38,1,403.89999985694885,37,1,561.8999998569489,10,1,experiment,NA,NA,0,0.9,0.1,0,1,253,6,NA
fcp-trial,303,1137149,0.0-264.0-0.0,voc_e2,12012,"[{""event"":""fullscreenenter"",""trial"":1,""time"":12838}]",NA,NA,NA,NA,NA,0,#1CD855,#FA92F8,10,10,0,38,1,407.7999999523163,37,1,797.7999999523163,10,0,experiment,NA,NA,2,0.5,0.5,5,4,254,6,NA
fcp-trial,304,1139814,0.0-265.0-0.0,voc_e2,12012,"[{""event"":""fullscreenenter"",""trial"":1,""time"":12838}]",NA,NA,NA,NA,NA,6,#D89F1C,#3386FF,10,0,0,38,1,307.7000000476837,39,0,847,0,1,experiment,NA,NA,1,0.3,0.7,3,2,255,6,NA
fcp-trial,305,1142390,0.0-266.0-0.0,voc_e2,12012,"[{""event"":""fullscreenenter"",""trial"":1,""time"":12838}]",NA,NA,NA,NA,NA,6,#D8271C,#741CD8,0,10,0,38,1,313.09999990463257,39,0,757.4000000953674,10,1,experiment,NA,NA,0,0.1,0.9,1,0,256,6,NA
fcp-trial,306,1145040,0.0-267.0-0.0,voc_e2,12012,"[{""event"":""fullscreenenter"",""trial"":1,""time"":12838}]",NA,NA,NA,NA,NA,1,#3386FF,#D89F1C,0,0,1,38,1,361,37,1,783.1999998092651,0,1,experiment,NA,NA,1,0.7,0.3,2,3,257,6,NA
fcp-trial,307,1148010,0.0-268.0-0.0,voc_e2,12012,"[{""event"":""fullscreenenter"",""trial"":1,""time"":12838}]",NA,NA,NA,NA,NA,6,#FA92F8,#1CD855,0,0,1,38,1,374,39,0,1090.4000000953674,0,0,experiment,NA,NA,2,0.5,0.5,4,5,258,6,NA
fcp-trial,308,1150418,0.0-269.0-0.0,voc_e2,12012,"[{""event"":""fullscreenenter"",""trial"":1,""time"":12838}]",NA,NA,NA,NA,NA,0,#741CD8,#D8271C,10,0,1,38,1,364,37,1,537.5,10,1,experiment,NA,NA,0,0.9,0.1,0,1,259,6,NA
fcp-trial,309,1152947,0.0-270.0-0.0,voc_e2,12012,"[{""event"":""fullscreenenter"",""trial"":1,""time"":12838}]",NA,NA,NA,NA,NA,3,#D8271C,#741CD8,0,10,0,38,1,397.7999999523163,39,0,623.5,10,1,experiment,NA,NA,0,0.1,0.9,1,0,260,6,NA
fcp-trial,310,1155645,0.0-271.0-0.0,voc_e2,12012,"[{""event"":""fullscreenenter"",""trial"":1,""time"":12838}]",NA,NA,NA,NA,NA,2,#1CD855,#FA92F8,10,0,0,38,1,424.5,37,1,762.6999998092651,10,0,experiment,NA,NA,2,0.5,0.5,5,4,261,6,NA
fcp-trial,311,1158316,0.0-272.0-0.0,voc_e2,12012,"[{""event"":""fullscreenenter"",""trial"":1,""time"":12838}]",NA,NA,NA,NA,NA,5,#3386FF,#D89F1C,0,0,1,38,1,485,37,1,672.9000000953674,0,1,experiment,NA,NA,1,0.7,0.3,2,3,262,6,NA
fcp-trial,312,1161283,0.0-273.0-0.0,voc_e2,12012,"[{""event"":""fullscreenenter"",""trial"":1,""time"":12838}]",NA,NA,NA,NA,NA,3,#1CD855,#FA92F8,10,0,0,38,1,497.59999990463257,37,1,958.0999999046326,10,0,experiment,NA,NA,2,0.5,0.5,5,4,263,6,NA
fcp-trial,313,1163850,0.0-274.0-0.0,voc_e2,12012,"[{""event"":""fullscreenenter"",""trial"":1,""time"":12838}]",NA,NA,NA,NA,NA,5,#D8271C,#741CD8,0,10,0,38,1,442.7999999523163,39,0,612.4000000953674,10,1,experiment,NA,NA,0,0.1,0.9,1,0,264,6,NA
fcp-trial,314,1168246,0.0-275.0-0.0,voc_e2,12012,"[{""event"":""fullscreenenter"",""trial"":1,""time"":12838}]",NA,NA,NA,NA,NA,1,#FA92F8,#1CD855,0,10,1,38,1,493.39999985694885,37,1,2391.2000000476837,0,1,experiment,NA,NA,2,0.5,0.5,4,5,265,6,NA
fcp-trial,315,1171423,0.0-276.0-0.0,voc_e2,12012,"[{""event"":""fullscreenenter"",""trial"":1,""time"":12838}]",NA,NA,NA,NA,NA,3,#D89F1C,#3386FF,0,10,0,38,1,1033.9000000953674,39,0,633.3000001907349,10,1,experiment,NA,NA,1,0.3,0.7,3,2,266,6,NA
fcp-trial,316,1174180,0.0-277.0-0.0,voc_e2,12012,"[{""event"":""fullscreenenter"",""trial"":1,""time"":12838}]",NA,NA,NA,NA,NA,2,#D89F1C,#3386FF,10,10,0,38,1,506.89999985694885,39,0,736,10,1,experiment,NA,NA,1,0.3,0.7,3,2,267,6,NA
fcp-trial,317,1176713,0.0-278.0-0.0,voc_e2,12012,"[{""event"":""fullscreenenter"",""trial"":1,""time"":12838}]",NA,NA,NA,NA,NA,4,#D8271C,#741CD8,0,10,0,38,1,418.2999999523163,39,0,608.0999999046326,10,1,experiment,NA,NA,0,0.1,0.9,1,0,268,6,NA
fcp-trial,318,1180814,0.0-279.0-0.0,voc_e2,12012,"[{""event"":""fullscreenenter"",""trial"":1,""time"":12838}]",NA,NA,NA,NA,NA,4,#FA92F8,#1CD855,0,0,1,38,1,506,37,1,2082.800000190735,0,1,experiment,NA,NA,2,0.5,0.5,4,5,269,6,NA
fcp-trial,319,1183530,0.0-280.0-0.0,voc_e2,12012,"[{""event"":""fullscreenenter"",""trial"":1,""time"":12838}]",NA,NA,NA,NA,NA,5,#1CD855,#FA92F8,10,10,0,38,1,503.7000000476837,37,1,699.4000000953674,10,0,experiment,NA,NA,2,0.5,0.5,5,4,270,6,NA
fcp-trial,320,1186093,0.0-281.0-0.0,voc_e2,12012,"[{""event"":""fullscreenenter"",""trial"":1,""time"":12838}]",NA,NA,NA,NA,NA,1,#741CD8,#D8271C,10,0,1,38,1,541.0999999046326,37,1,510.2000000476837,10,1,experiment,NA,NA,0,0.9,0.1,0,1,271,7,NA
fcp-trial,321,1188650,0.0-282.0-0.0,voc_e2,12012,"[{""event"":""fullscreenenter"",""trial"":1,""time"":12838}]",NA,NA,NA,NA,NA,4,#D89F1C,#3386FF,0,10,0,38,1,496.69999980926514,39,0,543.4000000953674,10,1,experiment,NA,NA,1,0.3,0.7,3,2,272,7,NA
fcp-trial,322,1191180,0.0-283.0-0.0,voc_e2,12012,"[{""event"":""fullscreenenter"",""trial"":1,""time"":12838}]",NA,NA,NA,NA,NA,0,#3386FF,#D89F1C,10,10,1,38,1,492.09999990463257,37,1,530.0999999046326,10,1,experiment,NA,NA,1,0.7,0.3,2,3,273,7,NA
fcp-trial,323,1193753,0.0-284.0-0.0,voc_e2,12012,"[{""event"":""fullscreenenter"",""trial"":1,""time"":12838}]",NA,NA,NA,NA,NA,0,#D8271C,#741CD8,0,10,0,38,1,520.9000000953674,39,0,542.2999999523163,10,1,experiment,NA,NA,0,0.1,0.9,1,0,274,7,NA
fcp-trial,324,1196324,0.0-285.0-0.0,voc_e2,12012,"[{""event"":""fullscreenenter"",""trial"":1,""time"":12838}]",NA,NA,NA,NA,NA,4,#D89F1C,#3386FF,0,0,0,38,1,449.5,39,0,606.7999999523163,0,1,experiment,NA,NA,1,0.3,0.7,3,2,275,7,NA
fcp-trial,325,1198760,0.0-286.0-0.0,voc_e2,12012,"[{""event"":""fullscreenenter"",""trial"":1,""time"":12838}]",NA,NA,NA,NA,NA,2,#741CD8,#D8271C,10,0,1,38,1,428.60000014305115,37,1,492.59999990463257,10,1,experiment,NA,NA,0,0.9,0.1,0,1,276,7,NA
fcp-trial,326,1201494,0.0-287.0-0.0,voc_e2,12012,"[{""event"":""fullscreenenter"",""trial"":1,""time"":12838}]",NA,NA,NA,NA,NA,3,#FA92F8,#1CD855,0,0,1,38,1,441.7000000476837,39,0,785.5,0,0,experiment,NA,NA,2,0.5,0.5,4,5,277,7,NA
fcp-trial,327,1203983,0.0-288.0-0.0,voc_e2,12012,"[{""event"":""fullscreenenter"",""trial"":1,""time"":12838}]",NA,NA,NA,NA,NA,6,#D89F1C,#3386FF,10,10,0,38,1,425.59999990463257,39,0,553.7000000476837,10,1,experiment,NA,NA,1,0.3,0.7,3,2,278,7,NA
fcp-trial,328,1206633,0.0-289.0-0.0,voc_e2,12012,"[{""event"":""fullscreenenter"",""trial"":1,""time"":12838}]",NA,NA,NA,NA,NA,5,#1CD855,#FA92F8,0,0,0,38,1,383.40000009536743,37,1,754.2000000476837,0,0,experiment,NA,NA,2,0.5,0.5,5,4,279,7,NA
fcp-trial,329,1209295,0.0-290.0-0.0,voc_e2,12012,"[{""event"":""fullscreenenter"",""trial"":1,""time"":12838}]",NA,NA,NA,NA,NA,4,#FA92F8,#1CD855,10,0,1,38,1,466.59999990463257,37,1,680.7000000476837,10,1,experiment,NA,NA,2,0.5,0.5,4,5,280,7,NA
fcp-trial,330,1211840,0.0-291.0-0.0,voc_e2,12012,"[{""event"":""fullscreenenter"",""trial"":1,""time"":12838}]",NA,NA,NA,NA,NA,6,#D8271C,#741CD8,0,10,0,38,1,532.9000000953674,39,0,505.7999999523163,10,1,experiment,NA,NA,0,0.1,0.9,1,0,281,7,NA
fcp-trial,331,1214246,0.0-292.0-0.0,voc_e2,12012,"[{""event"":""fullscreenenter"",""trial"":1,""time"":12838}]",NA,NA,NA,NA,NA,5,#D8271C,#741CD8,0,0,0,38,1,379.2000000476837,39,0,516.9000000953674,0,1,experiment,NA,NA,0,0.1,0.9,1,0,282,7,NA
fcp-trial,332,1216689,0.0-293.0-0.0,voc_e2,12012,"[{""event"":""fullscreenenter"",""trial"":1,""time"":12838}]",NA,NA,NA,NA,NA,0,#3386FF,#D89F1C,10,0,1,38,1,462.90000009536743,37,1,467.09999990463257,10,1,experiment,NA,NA,1,0.7,0.3,2,3,283,7,NA
fcp-trial,333,1219614,0.0-294.0-0.0,voc_e2,12012,"[{""event"":""fullscreenenter"",""trial"":1,""time"":12838}]",NA,NA,NA,NA,NA,1,#D89F1C,#3386FF,0,10,0,38,1,825.2000000476837,39,0,588.3999998569489,10,1,experiment,NA,NA,1,0.3,0.7,3,2,284,7,NA
fcp-trial,334,1222073,0.0-295.0-0.0,voc_e2,12012,"[{""event"":""fullscreenenter"",""trial"":1,""time"":12838}]",NA,NA,NA,NA,NA,0,#1CD855,#FA92F8,10,10,0,38,1,388.5,37,1,556.2000000476837,10,0,experiment,NA,NA,2,0.5,0.5,5,4,285,7,NA
fcp-trial,335,1224530,0.0-296.0-0.0,voc_e2,12012,"[{""event"":""fullscreenenter"",""trial"":1,""time"":12838}]",NA,NA,NA,NA,NA,4,#D8271C,#741CD8,10,10,0,38,1,463,39,0,485.7000000476837,10,1,experiment,NA,NA,0,0.1,0.9,1,0,286,7,NA
fcp-trial,336,1226951,0.0-297.0-0.0,voc_e2,12012,"[{""event"":""fullscreenenter"",""trial"":1,""time"":12838}]",NA,NA,NA,NA,NA,3,#D89F1C,#3386FF,10,10,0,38,1,424.7999999523163,37,1,483.09999990463257,10,0,experiment,NA,NA,1,0.3,0.7,3,2,287,7,NA
fcp-trial,337,1229475,0.0-298.0-0.0,voc_e2,12012,"[{""event"":""fullscreenenter"",""trial"":1,""time"":12838}]",NA,NA,NA,NA,NA,6,#FA92F8,#1CD855,10,0,1,38,1,477.09999990463257,37,1,528.7999999523163,10,1,experiment,NA,NA,2,0.5,0.5,4,5,288,7,NA
fcp-trial,338,1232139,0.0-299.0-0.0,voc_e2,12012,"[{""event"":""fullscreenenter"",""trial"":1,""time"":12838}]",NA,NA,NA,NA,NA,2,#D89F1C,#3386FF,10,10,0,38,1,542.2999999523163,39,0,608.2000000476837,10,1,experiment,NA,NA,1,0.3,0.7,3,2,289,7,NA
fcp-trial,339,1234682,0.0-300.0-0.0,voc_e2,12012,"[{""event"":""fullscreenenter"",""trial"":1,""time"":12838}]",NA,NA,NA,NA,NA,5,#D89F1C,#3386FF,0,10,0,38,1,502,39,0,528.2000000476837,10,1,experiment,NA,NA,1,0.3,0.7,3,2,290,7,NA
fcp-trial,340,1237146,0.0-301.0-0.0,voc_e2,12012,"[{""event"":""fullscreenenter"",""trial"":1,""time"":12838}]",NA,NA,NA,NA,NA,1,#741CD8,#D8271C,10,0,1,38,1,448.59999990463257,37,1,500.90000009536743,10,1,experiment,NA,NA,0,0.9,0.1,0,1,291,7,NA
fcp-trial,341,1239770,0.0-302.0-0.0,voc_e2,12012,"[{""event"":""fullscreenenter"",""trial"":1,""time"":12838}]",NA,NA,NA,NA,NA,2,#1CD855,#FA92F8,10,0,0,38,1,730.0999999046326,37,1,375.40000009536743,10,0,experiment,NA,NA,2,0.5,0.5,5,4,292,7,NA
fcp-trial,342,1242157,0.0-303.0-0.0,voc_e2,12012,"[{""event"":""fullscreenenter"",""trial"":1,""time"":12838}]",NA,NA,NA,NA,NA,3,#D8271C,#741CD8,0,10,0,38,1,532.7999999523163,39,0,340.2000000476837,10,1,experiment,NA,NA,0,0.1,0.9,1,0,293,7,NA
fcp-trial,343,1244569,0.0-304.0-0.0,voc_e2,12012,"[{""event"":""fullscreenenter"",""trial"":1,""time"":12838}]",NA,NA,NA,NA,NA,1,#1CD855,#FA92F8,10,0,0,38,1,497.2000000476837,37,1,403.2999999523163,10,0,experiment,NA,NA,2,0.5,0.5,5,4,294,7,NA
fcp-trial,344,1247048,0.0-305.0-0.0,voc_e2,12012,"[{""event"":""fullscreenenter"",""trial"":1,""time"":12838}]",NA,NA,NA,NA,NA,6,#3386FF,#D89F1C,10,0,1,38,1,389.2000000476837,37,1,578.2999999523163,10,1,experiment,NA,NA,1,0.7,0.3,2,3,295,7,NA
fcp-trial,345,1249414,0.0-306.0-0.0,voc_e2,12012,"[{""event"":""fullscreenenter"",""trial"":1,""time"":12838}]",NA,NA,NA,NA,NA,4,#D8271C,#741CD8,0,10,0,38,1,458.2999999523163,39,0,392.2000000476837,10,1,experiment,NA,NA,0,0.1,0.9,1,0,296,7,NA
fcp-trial,346,1251770,0.0-307.0-0.0,voc_e2,12012,"[{""event"":""fullscreenenter"",""trial"":1,""time"":12838}]",NA,NA,NA,NA,NA,0,#D89F1C,#3386FF,10,10,0,38,1,489.5,37,1,352.7000000476837,10,0,experiment,NA,NA,1,0.3,0.7,3,2,297,7,NA
fcp-trial,347,1254021,0.0-308.0-0.0,voc_e2,12012,"[{""event"":""fullscreenenter"",""trial"":1,""time"":12838}]",NA,NA,NA,NA,NA,5,#741CD8,#D8271C,10,0,1,38,1,392.90000009536743,37,1,345.2000000476837,10,1,experiment,NA,NA,0,0.9,0.1,0,1,298,7,NA
fcp-trial,348,1256319,0.0-309.0-0.0,voc_e2,12012,"[{""event"":""fullscreenenter"",""trial"":1,""time"":12838}]",NA,NA,NA,NA,NA,0,#741CD8,#D8271C,0,0,1,38,1,457.60000014305115,37,1,326.80000019073486,0,1,experiment,NA,NA,0,0.9,0.1,0,1,299,7,NA
fcp-trial,349,1258624,0.0-310.0-0.0,voc_e2,12012,"[{""event"":""fullscreenenter"",""trial"":1,""time"":12838}]",NA,NA,NA,NA,NA,3,#3386FF,#D89F1C,10,0,1,38,1,494.7000000476837,37,1,303.09999990463257,10,1,experiment,NA,NA,1,0.7,0.3,2,3,300,7,NA
fcp-trial,350,1260996,0.0-311.0-0.0,voc_e2,12012,"[{""event"":""fullscreenenter"",""trial"":1,""time"":12838}]",NA,NA,NA,NA,NA,2,#D8271C,#741CD8,0,10,0,38,1,520.3999998569489,39,0,342.2999999523163,10,1,experiment,NA,NA,0,0.1,0.9,1,0,301,7,NA
fcp-trial,351,1263400,0.0-312.0-0.0,voc_e2,12012,"[{""event"":""fullscreenenter"",""trial"":1,""time"":12838}]",NA,NA,NA,NA,NA,6,#D8271C,#741CD8,0,10,0,38,1,477.5,39,0,417,10,1,experiment,NA,NA,0,0.1,0.9,1,0,302,7,NA
fcp-trial,352,1265770,0.0-313.0-0.0,voc_e2,12012,"[{""event"":""fullscreenenter"",""trial"":1,""time"":12838}]",NA,NA,NA,NA,NA,1,#D89F1C,#3386FF,0,10,0,38,1,509.89999985694885,37,1,349.40000009536743,0,0,experiment,NA,NA,1,0.3,0.7,3,2,303,7,NA
fcp-trial,353,1268103,0.0-314.0-0.0,voc_e2,12012,"[{""event"":""fullscreenenter"",""trial"":1,""time"":12838}]",NA,NA,NA,NA,NA,5,#FA92F8,#1CD855,0,0,1,38,1,433.39999985694885,39,0,392,0,0,experiment,NA,NA,2,0.5,0.5,4,5,304,7,NA
fcp-trial,354,1270293,0.0-315.0-0.0,voc_e2,12012,"[{""event"":""fullscreenenter"",""trial"":1,""time"":12838}]",NA,NA,NA,NA,NA,2,#1CD855,#FA92F8,0,10,0,38,1,357.10000014305115,37,1,323.09999990463257,0,0,experiment,NA,NA,2,0.5,0.5,5,4,305,7,NA
fcp-trial,355,1272522,0.0-316.0-0.0,voc_e2,12012,"[{""event"":""fullscreenenter"",""trial"":1,""time"":12838}]",NA,NA,NA,NA,NA,6,#1CD855,#FA92F8,10,0,0,38,1,374.5,37,1,346.40000009536743,10,0,experiment,NA,NA,2,0.5,0.5,5,4,306,7,NA
fcp-trial,356,1274883,0.0-317.0-0.0,voc_e2,12012,"[{""event"":""fullscreenenter"",""trial"":1,""time"":12838}]",NA,NA,NA,NA,NA,1,#D8271C,#741CD8,0,10,0,38,1,494,39,0,353.60000014305115,10,1,experiment,NA,NA,0,0.1,0.9,1,0,307,7,NA
fcp-trial,357,1277178,0.0-318.0-0.0,voc_e2,12012,"[{""event"":""fullscreenenter"",""trial"":1,""time"":12838}]",NA,NA,NA,NA,NA,5,#3386FF,#D89F1C,10,10,1,38,1,375.19999980926514,37,1,409.09999990463257,10,1,experiment,NA,NA,1,0.7,0.3,2,3,308,7,NA
fcp-trial,358,1279535,0.0-319.0-0.0,voc_e2,12012,"[{""event"":""fullscreenenter"",""trial"":1,""time"":12838}]",NA,NA,NA,NA,NA,0,#1CD855,#FA92F8,0,0,0,38,1,457,37,1,384.7999999523163,0,0,experiment,NA,NA,2,0.5,0.5,5,4,309,7,NA
fcp-trial,359,1282092,0.0-320.0-0.0,voc_e2,12012,"[{""event"":""fullscreenenter"",""trial"":1,""time"":12838}]",NA,NA,NA,NA,NA,4,#FA92F8,#1CD855,10,10,1,38,1,517.6000001430511,39,0,526.6999998092651,10,0,experiment,NA,NA,2,0.5,0.5,4,5,310,7,NA
fcp-trial,360,1284506,0.0-321.0-0.0,voc_e2,12012,"[{""event"":""fullscreenenter"",""trial"":1,""time"":12838}]",NA,NA,NA,NA,NA,3,#FA92F8,#1CD855,0,0,1,38,1,479.2000000476837,39,0,418.60000014305115,0,0,experiment,NA,NA,2,0.5,0.5,4,5,311,7,NA
fcp-trial,361,1287299,0.0-322.0-0.0,voc_e2,12012,"[{""event"":""fullscreenenter"",""trial"":1,""time"":12838}]",NA,NA,NA,NA,NA,3,#741CD8,#D8271C,10,0,1,38,1,488.5,37,1,785.0999999046326,10,1,experiment,NA,NA,0,0.9,0.1,0,1,312,7,NA
fcp-trial,362,1289677,0.0-323.0-0.0,voc_e2,12012,"[{""event"":""fullscreenenter"",""trial"":1,""time"":12838}]",NA,NA,NA,NA,NA,2,#D89F1C,#3386FF,0,10,0,38,1,495.7999999523163,37,1,371.40000009536743,0,0,experiment,NA,NA,1,0.3,0.7,3,2,313,7,NA
fcp-trial,363,1292048,0.0-324.0-0.0,voc_e2,12012,"[{""event"":""fullscreenenter"",""trial"":1,""time"":12838}]",NA,NA,NA,NA,NA,4,#D89F1C,#3386FF,10,10,0,38,1,491.5,37,1,364.2000000476837,10,0,experiment,NA,NA,1,0.3,0.7,3,2,314,7,NA
fcp-trial,364,1294385,0.0-325.0-0.0,voc_e2,12012,"[{""event"":""fullscreenenter"",""trial"":1,""time"":12838}]",NA,NA,NA,NA,NA,1,#FA92F8,#1CD855,0,0,1,38,1,472.2999999523163,37,1,354.10000014305115,0,1,experiment,NA,NA,2,0.5,0.5,4,5,315,7,NA
audio-instructions,365,1300611,0.0-326.0,voc_e2,12012,"[{""event"":""fullscreenenter"",""trial"":1,""time"":12838}]",NA,487.7000000476837,static/audio/finished.wav,NA,0,NA,NA,NA,NA,NA,NA,NA,NA,NA,NA,NA,NA,NA,NA,NA,NA,NA,NA,NA,NA,NA,NA,NA,NA,NA
audio-instructions,366,1312071,0.0-327.0-0.0,voc_e2,12012,"[{""event"":""fullscreenenter"",""trial"":1,""time"":12838}]",NA,618,static/audio/explicit1.wav,NA,0,NA,NA,NA,NA,NA,NA,NA,NA,NA,NA,NA,NA,NA,NA,NA,NA,NA,NA,NA,NA,NA,NA,NA,NA,NA
audio-instructions,367,1319909,0.0-327.0-1.0,voc_e2,12012,"[{""event"":""fullscreenenter"",""trial"":1,""time"":12838}]",NA,234.60000014305115,static/audio/explicit2.wav,NA,0,NA,NA,NA,NA,NA,NA,NA,NA,NA,NA,NA,NA,NA,NA,NA,NA,NA,NA,NA,NA,NA,NA,NA,NA,NA
image-slider-response,368,1323999,0.0-328.0,voc_e2,12012,"[{""event"":""fullscreenenter"",""trial"":1,""time"":12838}]",NA,4087.699999809265,static/img/machines/machine6.png,NA,NA,NA,NA,NA,NA,NA,NA,NA,NA,NA,NA,NA,NA,NA,NA,explicit,NA,NA,NA,NA,NA,NA,NA,NA,NA,8
image-slider-response,369,1327949,0.0-329.0,voc_e2,12012,"[{""event"":""fullscreenenter"",""trial"":1,""time"":12838}]",NA,3948.100000143051,static/img/machines/machine2.png,NA,NA,NA,NA,NA,NA,NA,NA,NA,NA,NA,NA,NA,NA,NA,NA,explicit,NA,NA,NA,NA,NA,NA,NA,NA,NA,9
image-slider-response,370,1330827,0.0-330.0,voc_e2,12012,"[{""event"":""fullscreenenter"",""trial"":1,""time"":12838}]",NA,2876.2000000476837,static/img/machines/machine1.png,NA,NA,NA,NA,NA,NA,NA,NA,NA,NA,NA,NA,NA,NA,NA,NA,explicit,NA,NA,NA,NA,NA,NA,NA,NA,NA,6
image-slider-response,371,1333375,0.0-331.0,voc_e2,12012,"[{""event"":""fullscreenenter"",""trial"":1,""time"":12838}]",NA,2546.5,static/img/machines/machine4.png,NA,NA,NA,NA,NA,NA,NA,NA,NA,NA,NA,NA,NA,NA,NA,NA,explicit,NA,NA,NA,NA,NA,NA,NA,NA,NA,6
image-slider-response,372,1334894,0.0-332.0,voc_e2,12012,"[{""event"":""fullscreenenter"",""trial"":1,""time"":12838}]",NA,1516.4000000953674,static/img/machines/machine5.png,NA,NA,NA,NA,NA,NA,NA,NA,NA,NA,NA,NA,NA,NA,NA,NA,explicit,NA,NA,NA,NA,NA,NA,NA,NA,NA,5
image-slider-response,373,1337152,0.0-333.0,voc_e2,12012,"[{""event"":""fullscreenenter"",""trial"":1,""time"":12838}]",NA,2256.300000190735,static/img/machines/machine3.png,NA,NA,NA,NA,NA,NA,NA,NA,NA,NA,NA,NA,NA,NA,NA,NA,explicit,NA,NA,NA,NA,NA,NA,NA,NA,NA,7
