trial_type,trial_index,time_elapsed,internal_node_id,task_version,subject_id,interactions,success,rt,stimulus,key_press,button_pressed,offer,arcade_color_L,arcade_color_R,arcade_outcome_L,arcade_outcome_R,correct,stage_1_key,stage_1_choice,stage_1_rt,stage_2_key,stage_2_choice,stage_2_rt,stage_3_outcome,accuracy,phase,responses,num_errors,context,reward_prob_L,reward_prob_R,arcade_id_L,arcade_id_R,trial,block,response
pavlovia,0,9,0.0-0.0,voc_e2,11671,[],NA,NA,NA,NA,NA,NA,NA,NA,NA,NA,NA,NA,NA,NA,NA,NA,NA,NA,NA,NA,NA,NA,NA,NA,NA,NA,NA,NA,NA,NA
fullscreen,1,3383,0.0-1.0,voc_e2,11671,"[{""event"":""fullscreenenter"",""trial"":1,""time"":2435}]",TRUE,NA,NA,NA,NA,NA,NA,NA,NA,NA,NA,NA,NA,NA,NA,NA,NA,NA,NA,NA,NA,NA,NA,NA,NA,NA,NA,NA,NA,NA
audio-keyboard-response,2,5817,0.0-2.0,voc_e2,11671,"[{""event"":""fullscreenenter"",""trial"":1,""time"":2435}]",NA,2429,static/audio/beep_loop.wav,32,NA,NA,NA,NA,NA,NA,NA,NA,NA,NA,NA,NA,NA,NA,NA,NA,NA,NA,NA,NA,NA,NA,NA,NA,NA,NA
audio-test,3,7564,0.0-3.0,voc_e2,11671,"[{""event"":""fullscreenenter"",""trial"":1,""time"":2435}]",NA,NA,static/audio/turtle.wav,NA,3,NA,NA,NA,NA,NA,NA,NA,NA,NA,NA,NA,NA,NA,NA,NA,NA,NA,NA,NA,NA,NA,NA,NA,NA,NA
audio-test,4,9847,0.0-4.0,voc_e2,11671,"[{""event"":""fullscreenenter"",""trial"":1,""time"":2435}]",NA,NA,static/audio/shark.wav,NA,2,NA,NA,NA,NA,NA,NA,NA,NA,NA,NA,NA,NA,NA,NA,NA,NA,NA,NA,NA,NA,NA,NA,NA,NA,NA
audio-instructions,5,17323,0.0-5.0-0.0,voc_e2,11671,"[{""event"":""fullscreenenter"",""trial"":1,""time"":2435}]",NA,1684.6999998092651,static/audio/instructions1.wav,NA,0,NA,NA,NA,NA,NA,NA,NA,NA,NA,NA,NA,NA,NA,NA,NA,NA,NA,NA,NA,NA,NA,NA,NA,NA,NA
audio-instructions,6,26446,0.0-5.0-1.0,voc_e2,11671,"[{""event"":""fullscreenenter"",""trial"":1,""time"":2435}]",NA,2380.300000190735,static/audio/instructions2.wav,NA,0,NA,NA,NA,NA,NA,NA,NA,NA,NA,NA,NA,NA,NA,NA,NA,NA,NA,NA,NA,NA,NA,NA,NA,NA,NA
audio-instructions,7,33528,0.0-5.0-2.0,voc_e2,11671,"[{""event"":""fullscreenenter"",""trial"":1,""time"":2435}]",NA,1272.2000000476835,static/audio/instructions3.wav,NA,0,NA,NA,NA,NA,NA,NA,NA,NA,NA,NA,NA,NA,NA,NA,NA,NA,NA,NA,NA,NA,NA,NA,NA,NA,NA
audio-instructions,8,48089,0.0-5.0-3.0,voc_e2,11671,"[{""event"":""fullscreenenter"",""trial"":1,""time"":2435}]",NA,1334,static/audio/instructions4.wav,NA,0,NA,NA,NA,NA,NA,NA,NA,NA,NA,NA,NA,NA,NA,NA,NA,NA,NA,NA,NA,NA,NA,NA,NA,NA,NA
audio-instructions,9,58612,0.0-5.0-4.0,voc_e2,11671,"[{""event"":""fullscreenenter"",""trial"":1,""time"":2435}]",NA,1135.4000000953674,static/audio/instructions5.wav,NA,0,NA,NA,NA,NA,NA,NA,NA,NA,NA,NA,NA,NA,NA,NA,NA,NA,NA,NA,NA,NA,NA,NA,NA,NA,NA
fcp-practice,10,63056,0.0-5.0-5.0-0.0,voc_e2,11671,"[{""event"":""fullscreenenter"",""trial"":1,""time"":2435}]",NA,NA,NA,NA,NA,NA,#EDC948,#46d3c8,10,0,1,null,null,null,37,1,2920.600000143051,10,1,practice,NA,NA,NA,NA,NA,NA,NA,NA,NA,NA
fcp-practice,11,65465,0.0-5.0-5.0-1.0,voc_e2,11671,"[{""event"":""fullscreenenter"",""trial"":1,""time"":2435}]",NA,NA,NA,NA,NA,NA,#EDC948,#46d3c8,10,0,1,null,null,null,37,1,896,10,1,practice,NA,NA,NA,NA,NA,NA,NA,NA,NA,NA
fcp-practice,12,69379,0.0-5.0-5.0-2.0,voc_e2,11671,"[{""event"":""fullscreenenter"",""trial"":1,""time"":2435}]",NA,NA,NA,NA,NA,NA,#EDC948,#46d3c8,0,10,1,null,null,null,37,1,2402.0999999046326,0,1,practice,NA,NA,NA,NA,NA,NA,NA,NA,NA,NA
fcp-practice,13,71754,0.0-5.0-5.0-3.0,voc_e2,11671,"[{""event"":""fullscreenenter"",""trial"":1,""time"":2435}]",NA,NA,NA,NA,NA,NA,#EDC948,#46d3c8,10,0,1,null,null,null,37,1,860.9000000953674,10,1,practice,NA,NA,NA,NA,NA,NA,NA,NA,NA,NA
fcp-practice,14,73933,0.0-5.0-5.0-4.0,voc_e2,11671,"[{""event"":""fullscreenenter"",""trial"":1,""time"":2435}]",NA,NA,NA,NA,NA,NA,#EDC948,#46d3c8,10,0,1,null,null,null,37,1,672.4000000953674,10,1,practice,NA,NA,NA,NA,NA,NA,NA,NA,NA,NA
audio-instructions,15,94056,0.0-5.0-6.0,voc_e2,11671,"[{""event"":""fullscreenenter"",""trial"":1,""time"":2435}]",NA,2108.199999809265,static/audio/instructions6.wav,NA,0,NA,NA,NA,NA,NA,NA,NA,NA,NA,NA,NA,NA,NA,NA,NA,NA,NA,NA,NA,NA,NA,NA,NA,NA,NA
audio-instructions,16,114303,0.0-5.0-7.0,voc_e2,11671,"[{""event"":""fullscreenenter"",""trial"":1,""time"":2435}]",NA,1047.3000001907349,static/audio/instructions7.wav,NA,0,NA,NA,NA,NA,NA,NA,NA,NA,NA,NA,NA,NA,NA,NA,NA,NA,NA,NA,NA,NA,NA,NA,NA,NA,NA
audio-instructions,17,125052,0.0-5.0-8.0,voc_e2,11671,"[{""event"":""fullscreenenter"",""trial"":1,""time"":2435}]",NA,1266,static/audio/instructions8.wav,NA,0,NA,NA,NA,NA,NA,NA,NA,NA,NA,NA,NA,NA,NA,NA,NA,NA,NA,NA,NA,NA,NA,NA,NA,NA,NA
fcp-comprehension,18,133123,0.0-5.0-9.0,voc_e2,11671,"[{""event"":""fullscreenenter"",""trial"":1,""time"":2435}]",NA,8066.399999856949,NA,NA,NA,NA,NA,NA,NA,NA,NA,NA,NA,NA,NA,NA,NA,NA,NA,NA,"true,true",0,NA,NA,NA,NA,NA,NA,NA,NA
audio-instructions,19,140535,0.0-6.0-0.0,voc_e2,11671,"[{""event"":""fullscreenenter"",""trial"":1,""time"":2435}]",NA,1859.6999998092651,static/audio/instructions9.wav,NA,0,NA,NA,NA,NA,NA,NA,NA,NA,NA,NA,NA,NA,NA,NA,NA,NA,NA,NA,NA,NA,NA,NA,NA,NA,NA
audio-instructions,20,153629,0.0-6.0-1.0,voc_e2,11671,"[{""event"":""fullscreenenter"",""trial"":1,""time"":2435}]",NA,973.2999999523164,static/audio/instructions10.wav,NA,0,NA,NA,NA,NA,NA,NA,NA,NA,NA,NA,NA,NA,NA,NA,NA,NA,NA,NA,NA,NA,NA,NA,NA,NA,NA
fcp-trial,21,168642,0.0-6.0-2.0,voc_e2,11671,"[{""event"":""fullscreenenter"",""trial"":1,""time"":2435}]",NA,NA,NA,NA,NA,0,#EDC948,#46d3c8,10,10,1,null,null,null,null,null,null,NA,0,practice,NA,NA,NA,NA,NA,NA,NA,NA,NA,NA
audio-instructions,22,185038,0.0-6.0-3.0,voc_e2,11671,"[{""event"":""fullscreenenter"",""trial"":1,""time"":2435}]",NA,5392.099999904633,static/audio/instructions11.wav,NA,0,NA,NA,NA,NA,NA,NA,NA,NA,NA,NA,NA,NA,NA,NA,NA,NA,NA,NA,NA,NA,NA,NA,NA,NA,NA
fcp-trial,23,189847,0.0-6.0-4.0,voc_e2,11671,"[{""event"":""fullscreenenter"",""trial"":1,""time"":2435}]",NA,NA,NA,NA,NA,6,#EDC948,#46d3c8,10,10,1,40,0,1021.5999999046326,37,1,2256.4000000953674,10,1,practice,NA,NA,NA,NA,NA,NA,NA,NA,NA,NA
audio-instructions,24,210631,0.0-6.0-5.0,voc_e2,11671,"[{""event"":""fullscreenenter"",""trial"":1,""time"":2435}]",NA,2094.7999999523163,static/audio/instructions12.wav,NA,0,NA,NA,NA,NA,NA,NA,NA,NA,NA,NA,NA,NA,NA,NA,NA,NA,NA,NA,NA,NA,NA,NA,NA,NA,NA
audio-instructions,25,218965,0.0-6.0-6.0,voc_e2,11671,"[{""event"":""fullscreenenter"",""trial"":1,""time"":2435}]",NA,738.2999999523163,static/audio/instructions13.wav,NA,0,NA,NA,NA,NA,NA,NA,NA,NA,NA,NA,NA,NA,NA,NA,NA,NA,NA,NA,NA,NA,NA,NA,NA,NA,NA
audio-instructions,26,228276,0.0-6.0-7.0,voc_e2,11671,"[{""event"":""fullscreenenter"",""trial"":1,""time"":2435}]",NA,859.6000001430511,static/audio/instructions14.wav,NA,0,NA,NA,NA,NA,NA,NA,NA,NA,NA,NA,NA,NA,NA,NA,NA,NA,NA,NA,NA,NA,NA,NA,NA,NA,NA
audio-instructions,27,237159,0.0-7.0-0.0,voc_e2,11671,"[{""event"":""fullscreenenter"",""trial"":1,""time"":2435}]",NA,1962.5999999046328,static/audio/instructions15.wav,NA,0,NA,NA,NA,NA,NA,NA,NA,NA,NA,NA,NA,NA,NA,NA,NA,NA,NA,NA,NA,NA,NA,NA,NA,NA,NA
audio-instructions,28,246425,0.0-7.0-1.0,voc_e2,11671,"[{""event"":""fullscreenenter"",""trial"":1,""time"":2435}]",NA,2440.100000143051,static/audio/instructions16.wav,NA,0,NA,NA,NA,NA,NA,NA,NA,NA,NA,NA,NA,NA,NA,NA,NA,NA,NA,NA,NA,NA,NA,NA,NA,NA,NA
audio-instructions,29,261815,0.0-7.0-2.0,voc_e2,11671,"[{""event"":""fullscreenenter"",""trial"":1,""time"":2435}]",NA,7709.899999856949,static/audio/instructions17.wav,NA,0,NA,NA,NA,NA,NA,NA,NA,NA,NA,NA,NA,NA,NA,NA,NA,NA,NA,NA,NA,NA,NA,NA,NA,NA,NA
audio-instructions,30,270240,0.0-7.0-3.0,voc_e2,11671,"[{""event"":""fullscreenenter"",""trial"":1,""time"":2435}]",NA,655.0999999046326,static/audio/instructions18.wav,NA,0,NA,NA,NA,NA,NA,NA,NA,NA,NA,NA,NA,NA,NA,NA,NA,NA,NA,NA,NA,NA,NA,NA,NA,NA,NA
audio-instructions,31,277617,0.0-7.0-4.0,voc_e2,11671,"[{""event"":""fullscreenenter"",""trial"":1,""time"":2435}]",NA,631.3999998569489,static/audio/instructions19.wav,NA,0,NA,NA,NA,NA,NA,NA,NA,NA,NA,NA,NA,NA,NA,NA,NA,NA,NA,NA,NA,NA,NA,NA,NA,NA,NA
fcp-comprehension,32,293706,0.0-7.0-5.0,voc_e2,11671,"[{""event"":""fullscreenenter"",""trial"":1,""time"":2435}]",NA,16086.100000143051,NA,NA,NA,NA,NA,NA,NA,NA,NA,NA,NA,NA,NA,NA,NA,NA,NA,NA,"false,false,false,true",0,NA,NA,NA,NA,NA,NA,NA,NA
audio-instructions,33,305176,0.0-8.0,voc_e2,11671,"[{""event"":""fullscreenenter"",""trial"":1,""time"":2435}]",NA,2253.400000095367,static/audio/ready.wav,NA,0,NA,NA,NA,NA,NA,NA,NA,NA,NA,NA,NA,NA,NA,NA,NA,NA,NA,NA,NA,NA,NA,NA,NA,NA,NA
fcp-trial,34,313182,0.0-9.0-0.0,voc_e2,11671,"[{""event"":""fullscreenenter"",""trial"":1,""time"":2435}]",NA,NA,NA,NA,NA,1,#D8271C,#741CD8,0,0,0,38,1,4220.799999952316,37,1,2270.7000000476837,0,0,experiment,NA,NA,1,0.3,0.7,3,2,1,1,NA
fcp-trial,35,318074,0.0-10.0-0.0,voc_e2,11671,"[{""event"":""fullscreenenter"",""trial"":1,""time"":2435}]",NA,NA,NA,NA,NA,4,#3386FF,#D89F1C,0,10,0,38,1,1796.0999999046326,39,0,1577.8000001907349,10,1,experiment,NA,NA,0,0.1,0.9,1,0,2,1,NA
fcp-trial,36,323489,0.0-11.0-0.0,voc_e2,11671,"[{""event"":""fullscreenenter"",""trial"":1,""time"":2435}]",NA,NA,NA,NA,NA,6,#D8271C,#741CD8,10,10,0,38,1,2051.9000000953674,37,1,1837.7000000476837,10,0,experiment,NA,NA,1,0.3,0.7,3,2,3,1,NA
fcp-trial,37,327722,0.0-12.0-0.0,voc_e2,11671,"[{""event"":""fullscreenenter"",""trial"":1,""time"":2435}]",NA,NA,NA,NA,NA,4,#D8271C,#741CD8,0,10,0,38,1,1629.5,37,1,1079.5,0,0,experiment,NA,NA,1,0.3,0.7,3,2,4,1,NA
fcp-trial,38,331645,0.0-13.0-0.0,voc_e2,11671,"[{""event"":""fullscreenenter"",""trial"":1,""time"":2435}]",NA,NA,NA,NA,NA,6,#D89F1C,#3386FF,10,0,1,38,1,1636.2000000476837,37,1,770.1000001430511,10,1,experiment,NA,NA,0,0.9,0.1,0,1,5,1,NA
fcp-trial,39,335199,0.0-14.0-0.0,voc_e2,11671,"[{""event"":""fullscreenenter"",""trial"":1,""time"":2435}]",NA,NA,NA,NA,NA,4,#1CD855,#FA92F8,0,10,0,38,1,1145.6000001430511,39,0,896.5999999046326,10,1,experiment,NA,NA,2,0.5,0.5,5,4,6,1,NA
fcp-trial,40,338742,0.0-15.0-0.0,voc_e2,11671,"[{""event"":""fullscreenenter"",""trial"":1,""time"":2435}]",NA,NA,NA,NA,NA,2,#D89F1C,#3386FF,10,0,1,38,1,1200.5999999046326,37,1,825,10,1,experiment,NA,NA,0,0.9,0.1,0,1,7,1,NA
fcp-trial,41,342503,0.0-16.0-0.0,voc_e2,11671,"[{""event"":""fullscreenenter"",""trial"":1,""time"":2435}]",NA,NA,NA,NA,NA,1,#FA92F8,#1CD855,10,10,1,38,1,838.4000000953674,37,1,1407.7999999523163,10,1,experiment,NA,NA,2,0.5,0.5,4,5,8,1,NA
fcp-trial,42,346154,0.0-17.0-0.0,voc_e2,11671,"[{""event"":""fullscreenenter"",""trial"":1,""time"":2435}]",NA,NA,NA,NA,NA,2,#741CD8,#D8271C,0,0,1,38,1,920.1000001430511,39,0,1211.9000000953674,0,0,experiment,NA,NA,1,0.7,0.3,2,3,9,1,NA
fcp-trial,43,349298,0.0-18.0-0.0,voc_e2,11671,"[{""event"":""fullscreenenter"",""trial"":1,""time"":2435}]",NA,NA,NA,NA,NA,0,#FA92F8,#1CD855,0,0,1,38,1,942.5999999046326,37,1,686,0,1,experiment,NA,NA,2,0.5,0.5,4,5,10,1,NA
fcp-trial,44,352822,0.0-19.0-0.0,voc_e2,11671,"[{""event"":""fullscreenenter"",""trial"":1,""time"":2435}]",NA,NA,NA,NA,NA,0,#3386FF,#D89F1C,0,10,0,38,1,1560.5,39,0,450.7999999523163,10,1,experiment,NA,NA,0,0.1,0.9,1,0,11,1,NA
fcp-trial,45,356213,0.0-20.0-0.0,voc_e2,11671,"[{""event"":""fullscreenenter"",""trial"":1,""time"":2435}]",NA,NA,NA,NA,NA,6,#FA92F8,#1CD855,0,0,1,38,1,1176,37,1,706.5,0,1,experiment,NA,NA,2,0.5,0.5,4,5,12,1,NA
fcp-trial,46,359511,0.0-21.0-0.0,voc_e2,11671,"[{""event"":""fullscreenenter"",""trial"":1,""time"":2435}]",NA,NA,NA,NA,NA,5,#FA92F8,#1CD855,10,10,1,38,1,1314.5999999046326,39,0,471,10,0,experiment,NA,NA,2,0.5,0.5,4,5,13,1,NA
fcp-trial,47,362509,0.0-22.0-0.0,voc_e2,11671,"[{""event"":""fullscreenenter"",""trial"":1,""time"":2435}]",NA,NA,NA,NA,NA,5,#741CD8,#D8271C,0,0,1,38,1,987.5,39,0,492.09999990463257,0,0,experiment,NA,NA,1,0.7,0.3,2,3,14,1,NA
fcp-trial,48,365811,0.0-23.0-0.0,voc_e2,11671,"[{""event"":""fullscreenenter"",""trial"":1,""time"":2435}]",NA,NA,NA,NA,NA,2,#FA92F8,#1CD855,10,0,1,38,1,1009.2000000476837,39,0,777.2999999523163,0,0,experiment,NA,NA,2,0.5,0.5,4,5,15,1,NA
fcp-trial,49,368650,0.0-24.0-0.0,voc_e2,11671,"[{""event"":""fullscreenenter"",""trial"":1,""time"":2435}]",NA,NA,NA,NA,NA,5,#3386FF,#D89F1C,0,10,0,38,1,780.2000000476837,39,0,548.6999998092651,10,1,experiment,NA,NA,0,0.1,0.9,1,0,16,1,NA
fcp-trial,50,371970,0.0-25.0-0.0,voc_e2,11671,"[{""event"":""fullscreenenter"",""trial"":1,""time"":2435}]",NA,NA,NA,NA,NA,3,#741CD8,#D8271C,10,0,1,38,1,966.1000001430511,37,1,842.5999999046326,10,1,experiment,NA,NA,1,0.7,0.3,2,3,17,1,NA
fcp-trial,51,375410,0.0-26.0-0.0,voc_e2,11671,"[{""event"":""fullscreenenter"",""trial"":1,""time"":2435}]",NA,NA,NA,NA,NA,1,#D89F1C,#3386FF,10,0,1,38,1,1294.5999999046326,37,1,637.1999998092651,10,1,experiment,NA,NA,0,0.9,0.1,0,1,18,1,NA
fcp-trial,52,378227,0.0-27.0-0.0,voc_e2,11671,"[{""event"":""fullscreenenter"",""trial"":1,""time"":2435}]",NA,NA,NA,NA,NA,0,#D8271C,#741CD8,0,10,0,38,1,727,39,0,574.7000000476837,10,1,experiment,NA,NA,1,0.3,0.7,3,2,19,1,NA
fcp-trial,53,380851,0.0-28.0-0.0,voc_e2,11671,"[{""event"":""fullscreenenter"",""trial"":1,""time"":2435}]",NA,NA,NA,NA,NA,3,#FA92F8,#1CD855,0,10,1,38,1,709.5999999046326,39,0,398.5,10,0,experiment,NA,NA,2,0.5,0.5,4,5,20,1,NA
fcp-trial,54,383466,0.0-29.0-0.0,voc_e2,11671,"[{""event"":""fullscreenenter"",""trial"":1,""time"":2435}]",NA,NA,NA,NA,NA,3,#3386FF,#D89F1C,0,10,0,38,1,569.7999999523163,39,0,531.7999999523163,10,1,experiment,NA,NA,0,0.1,0.9,1,0,21,1,NA
fcp-trial,55,387103,0.0-30.0-0.0,voc_e2,11671,"[{""event"":""fullscreenenter"",""trial"":1,""time"":2435}]",NA,NA,NA,NA,NA,4,#FA92F8,#1CD855,0,10,1,38,1,810.5999999046326,39,0,1317.2999999523163,10,0,experiment,NA,NA,2,0.5,0.5,4,5,22,1,NA
fcp-trial,56,390586,0.0-31.0-0.0,voc_e2,11671,"[{""event"":""fullscreenenter"",""trial"":1,""time"":2435}]",NA,NA,NA,NA,NA,1,#1CD855,#FA92F8,10,0,0,38,1,621.7000000476837,37,1,1354.1999998092651,10,0,experiment,NA,NA,2,0.5,0.5,5,4,23,1,NA
fcp-trial,57,394002,0.0-32.0-0.0,voc_e2,11671,"[{""event"":""fullscreenenter"",""trial"":1,""time"":2435}]",NA,NA,NA,NA,NA,3,#741CD8,#D8271C,10,0,1,38,1,737.6000001430511,37,1,1165.5,10,1,experiment,NA,NA,1,0.7,0.3,2,3,24,1,NA
fcp-trial,58,396853,0.0-33.0-0.0,voc_e2,11671,"[{""event"":""fullscreenenter"",""trial"":1,""time"":2435}]",NA,NA,NA,NA,NA,0,#1CD855,#FA92F8,10,10,0,38,1,421.5,37,1,910,10,0,experiment,NA,NA,2,0.5,0.5,5,4,25,1,NA
fcp-trial,59,400057,0.0-34.0-0.0,voc_e2,11671,"[{""event"":""fullscreenenter"",""trial"":1,""time"":2435}]",NA,NA,NA,NA,NA,3,#3386FF,#D89F1C,0,10,0,38,1,1165.3999998569489,39,0,525.2000000476837,10,1,experiment,NA,NA,0,0.1,0.9,1,0,26,1,NA
fcp-trial,60,403156,0.0-35.0-0.0,voc_e2,11671,"[{""event"":""fullscreenenter"",""trial"":1,""time"":2435}]",NA,NA,NA,NA,NA,2,#741CD8,#D8271C,10,10,1,38,1,574,37,1,1018.2999999523163,10,1,experiment,NA,NA,1,0.7,0.3,2,3,27,1,NA
fcp-trial,61,405982,0.0-36.0-0.0,voc_e2,11671,"[{""event"":""fullscreenenter"",""trial"":1,""time"":2435}]",NA,NA,NA,NA,NA,6,#FA92F8,#1CD855,0,10,1,38,1,786.7000000476837,39,0,534.1000001430511,10,0,experiment,NA,NA,2,0.5,0.5,4,5,28,1,NA
fcp-trial,62,408660,0.0-37.0-0.0,voc_e2,11671,"[{""event"":""fullscreenenter"",""trial"":1,""time"":2435}]",NA,NA,NA,NA,NA,6,#D8271C,#741CD8,0,0,0,38,1,546.1000001430511,39,0,621.3000001907349,0,1,experiment,NA,NA,1,0.3,0.7,3,2,29,1,NA
fcp-trial,63,411543,0.0-38.0-0.0,voc_e2,11671,"[{""event"":""fullscreenenter"",""trial"":1,""time"":2435}]",NA,NA,NA,NA,NA,0,#3386FF,#D89F1C,0,10,0,38,1,846.1000001430511,39,0,532.7000000476837,10,1,experiment,NA,NA,0,0.1,0.9,1,0,30,1,NA
fcp-trial,64,414240,0.0-39.0-0.0,voc_e2,11671,"[{""event"":""fullscreenenter"",""trial"":1,""time"":2435}]",NA,NA,NA,NA,NA,2,#1CD855,#FA92F8,0,10,0,38,1,529.1000001430511,37,1,663.5,0,0,experiment,NA,NA,2,0.5,0.5,5,4,31,1,NA
fcp-trial,65,417022,0.0-40.0-0.0,voc_e2,11671,"[{""event"":""fullscreenenter"",""trial"":1,""time"":2435}]",NA,NA,NA,NA,NA,0,#741CD8,#D8271C,10,10,1,38,1,518.7000000476837,37,1,757.3999998569489,10,1,experiment,NA,NA,1,0.7,0.3,2,3,32,1,NA
fcp-trial,66,420214,0.0-41.0-0.0,voc_e2,11671,"[{""event"":""fullscreenenter"",""trial"":1,""time"":2435}]",NA,NA,NA,NA,NA,1,#3386FF,#D89F1C,0,0,0,38,1,579.9000000953674,39,0,1104.2000000476837,0,1,experiment,NA,NA,0,0.1,0.9,1,0,33,1,NA
fcp-trial,67,422862,0.0-42.0-0.0,voc_e2,11671,"[{""event"":""fullscreenenter"",""trial"":1,""time"":2435}]",NA,NA,NA,NA,NA,3,#1CD855,#FA92F8,0,0,0,38,1,394.59999990463257,37,1,743.0999999046326,0,0,experiment,NA,NA,2,0.5,0.5,5,4,34,1,NA
fcp-trial,68,426213,0.0-43.0-0.0,voc_e2,11671,"[{""event"":""fullscreenenter"",""trial"":1,""time"":2435}]",NA,NA,NA,NA,NA,6,#D89F1C,#3386FF,10,0,1,38,1,559.3999998569489,37,1,1280.7000000476837,10,1,experiment,NA,NA,0,0.9,0.1,0,1,35,1,NA
fcp-trial,69,429190,0.0-44.0-0.0,voc_e2,11671,"[{""event"":""fullscreenenter"",""trial"":1,""time"":2435}]",NA,NA,NA,NA,NA,5,#741CD8,#D8271C,0,0,1,38,1,510.5,37,1,956.7000000476837,0,1,experiment,NA,NA,1,0.7,0.3,2,3,36,1,NA
fcp-trial,70,431956,0.0-45.0-0.0,voc_e2,11671,"[{""event"":""fullscreenenter"",""trial"":1,""time"":2435}]",NA,NA,NA,NA,NA,1,#D8271C,#741CD8,0,10,0,38,1,528.2999999523163,39,0,727,10,1,experiment,NA,NA,1,0.3,0.7,3,2,37,1,NA
fcp-trial,71,434534,0.0-46.0-0.0,voc_e2,11671,"[{""event"":""fullscreenenter"",""trial"":1,""time"":2435}]",NA,NA,NA,NA,NA,2,#D89F1C,#3386FF,10,0,1,38,1,465,37,1,603.7000000476837,10,1,experiment,NA,NA,0,0.9,0.1,0,1,38,1,NA
fcp-trial,72,437234,0.0-47.0-0.0,voc_e2,11671,"[{""event"":""fullscreenenter"",""trial"":1,""time"":2435}]",NA,NA,NA,NA,NA,5,#1CD855,#FA92F8,10,0,0,38,1,518.7000000476837,37,1,666.0999999046326,10,0,experiment,NA,NA,2,0.5,0.5,5,4,39,1,NA
fcp-trial,73,440079,0.0-48.0-0.0,voc_e2,11671,"[{""event"":""fullscreenenter"",""trial"":1,""time"":2435}]",NA,NA,NA,NA,NA,4,#D89F1C,#3386FF,10,0,1,38,1,595.5999999046326,37,1,728.2999999523163,10,1,experiment,NA,NA,0,0.9,0.1,0,1,40,1,NA
fcp-trial,74,443432,0.0-49.0-0.0,voc_e2,11671,"[{""event"":""fullscreenenter"",""trial"":1,""time"":2435}]",NA,NA,NA,NA,NA,4,#741CD8,#D8271C,0,10,1,38,1,448.10000014305115,37,1,1384.9000000953674,0,1,experiment,NA,NA,1,0.7,0.3,2,3,41,1,NA
fcp-trial,75,446230,0.0-50.0-0.0,voc_e2,11671,"[{""event"":""fullscreenenter"",""trial"":1,""time"":2435}]",NA,NA,NA,NA,NA,5,#3386FF,#D89F1C,0,10,0,38,1,772.0999999046326,39,0,516.2999999523163,10,1,experiment,NA,NA,0,0.1,0.9,1,0,42,1,NA
fcp-trial,76,448950,0.0-51.0-0.0,voc_e2,11671,"[{""event"":""fullscreenenter"",""trial"":1,""time"":2435}]",NA,NA,NA,NA,NA,0,#D89F1C,#3386FF,10,0,1,38,1,573.1999998092651,37,1,639.9000000953674,10,1,experiment,NA,NA,0,0.9,0.1,0,1,43,1,NA
fcp-trial,77,451818,0.0-52.0-0.0,voc_e2,11671,"[{""event"":""fullscreenenter"",""trial"":1,""time"":2435}]",NA,NA,NA,NA,NA,0,#1CD855,#FA92F8,10,10,0,38,1,379.89999985694885,37,1,974.0999999046326,10,0,experiment,NA,NA,2,0.5,0.5,5,4,44,1,NA
fcp-trial,78,454834,0.0-53.0-0.0,voc_e2,11671,"[{""event"":""fullscreenenter"",""trial"":1,""time"":2435}]",NA,NA,NA,NA,NA,2,#1CD855,#FA92F8,0,0,0,38,1,511.2999999523163,37,1,983.5,0,0,experiment,NA,NA,2,0.5,0.5,5,4,45,1,NA
fcp-trial,79,457442,0.0-54.0-0.0,voc_e2,11671,"[{""event"":""fullscreenenter"",""trial"":1,""time"":2435}]",NA,NA,NA,NA,NA,6,#741CD8,#D8271C,10,10,1,38,1,479.90000009536743,37,1,605.1000001430511,10,1,experiment,NA,NA,1,0.7,0.3,2,3,46,2,NA
fcp-trial,80,460246,0.0-55.0-0.0,voc_e2,11671,"[{""event"":""fullscreenenter"",""trial"":1,""time"":2435}]",NA,NA,NA,NA,NA,3,#D8271C,#741CD8,10,10,0,38,1,794.1000001430511,39,0,500.7999999523163,10,1,experiment,NA,NA,1,0.3,0.7,3,2,47,2,NA
fcp-trial,81,462814,0.0-56.0-0.0,voc_e2,11671,"[{""event"":""fullscreenenter"",""trial"":1,""time"":2435}]",NA,NA,NA,NA,NA,4,#D89F1C,#3386FF,10,0,1,38,1,378.90000009536743,37,1,681.2000000476837,10,1,experiment,NA,NA,0,0.9,0.1,0,1,48,2,NA
fcp-trial,82,465337,0.0-57.0-0.0,voc_e2,11671,"[{""event"":""fullscreenenter"",""trial"":1,""time"":2435}]",NA,NA,NA,NA,NA,6,#FA92F8,#1CD855,0,0,1,38,1,480.09999990463257,39,0,526.3000001907349,0,0,experiment,NA,NA,2,0.5,0.5,4,5,49,2,NA
fcp-trial,83,467818,0.0-58.0-0.0,voc_e2,11671,"[{""event"":""fullscreenenter"",""trial"":1,""time"":2435}]",NA,NA,NA,NA,NA,3,#FA92F8,#1CD855,10,10,1,38,1,445.59999990463257,39,0,520.5999999046326,10,0,experiment,NA,NA,2,0.5,0.5,4,5,50,2,NA
fcp-trial,84,470650,0.0-59.0-0.0,voc_e2,11671,"[{""event"":""fullscreenenter"",""trial"":1,""time"":2435}]",NA,NA,NA,NA,NA,5,#741CD8,#D8271C,0,0,1,38,1,720.5999999046326,37,1,593.1999998092651,0,1,experiment,NA,NA,1,0.7,0.3,2,3,51,2,NA
fcp-trial,85,473039,0.0-60.0-0.0,voc_e2,11671,"[{""event"":""fullscreenenter"",""trial"":1,""time"":2435}]",NA,NA,NA,NA,NA,0,#741CD8,#D8271C,0,0,1,38,1,330.59999990463257,37,1,542.2999999523163,0,1,experiment,NA,NA,1,0.7,0.3,2,3,52,2,NA
fcp-trial,86,475787,0.0-61.0-0.0,voc_e2,11671,"[{""event"":""fullscreenenter"",""trial"":1,""time"":2435}]",NA,NA,NA,NA,NA,1,#D89F1C,#3386FF,10,0,1,38,1,792.0999999046326,37,1,447.7000000476837,10,1,experiment,NA,NA,0,0.9,0.1,0,1,53,2,NA
fcp-trial,87,478360,0.0-62.0-0.0,voc_e2,11671,"[{""event"":""fullscreenenter"",""trial"":1,""time"":2435}]",NA,NA,NA,NA,NA,3,#D89F1C,#3386FF,10,0,1,38,1,425.39999985694885,37,1,642,10,1,experiment,NA,NA,0,0.9,0.1,0,1,54,2,NA
fcp-trial,88,481091,0.0-63.0-0.0,voc_e2,11671,"[{""event"":""fullscreenenter"",""trial"":1,""time"":2435}]",NA,NA,NA,NA,NA,5,#FA92F8,#1CD855,10,0,1,38,1,474.2999999523163,39,0,737.7999999523163,0,0,experiment,NA,NA,2,0.5,0.5,4,5,55,2,NA
fcp-trial,89,483971,0.0-64.0-0.0,voc_e2,11671,"[{""event"":""fullscreenenter"",""trial"":1,""time"":2435}]",NA,NA,NA,NA,NA,6,#3386FF,#D89F1C,0,10,0,38,1,814.2999999523163,39,0,548.6000001430511,10,1,experiment,NA,NA,0,0.1,0.9,1,0,56,2,NA
fcp-trial,90,486416,0.0-65.0-0.0,voc_e2,11671,"[{""event"":""fullscreenenter"",""trial"":1,""time"":2435}]",NA,NA,NA,NA,NA,4,#D8271C,#741CD8,0,0,0,38,1,372.5,39,0,559.5999999046326,0,1,experiment,NA,NA,1,0.3,0.7,3,2,57,2,NA
fcp-trial,91,489234,0.0-66.0-0.0,voc_e2,11671,"[{""event"":""fullscreenenter"",""trial"":1,""time"":2435}]",NA,NA,NA,NA,NA,2,#D89F1C,#3386FF,10,0,1,38,1,669,37,1,630.6999998092651,10,1,experiment,NA,NA,0,0.9,0.1,0,1,58,2,NA
fcp-trial,92,491799,0.0-67.0-0.0,voc_e2,11671,"[{""event"":""fullscreenenter"",""trial"":1,""time"":2435}]",NA,NA,NA,NA,NA,2,#741CD8,#D8271C,0,0,1,38,1,494.5,39,0,560.7000000476837,0,0,experiment,NA,NA,1,0.7,0.3,2,3,59,2,NA
fcp-trial,93,494495,0.0-68.0-0.0,voc_e2,11671,"[{""event"":""fullscreenenter"",""trial"":1,""time"":2435}]",NA,NA,NA,NA,NA,1,#1CD855,#FA92F8,0,0,0,38,1,370.39999985694885,37,1,803.0999999046326,0,0,experiment,NA,NA,2,0.5,0.5,5,4,60,2,NA
fcp-trial,94,497328,0.0-69.0-0.0,voc_e2,11671,"[{""event"":""fullscreenenter"",""trial"":1,""time"":2435}]",NA,NA,NA,NA,NA,1,#D8271C,#741CD8,0,0,0,38,1,340.09999990463257,37,1,977.2000000476837,0,0,experiment,NA,NA,1,0.3,0.7,3,2,61,2,NA
fcp-trial,95,499994,0.0-70.0-0.0,voc_e2,11671,"[{""event"":""fullscreenenter"",""trial"":1,""time"":2435}]",NA,NA,NA,NA,NA,5,#D89F1C,#3386FF,10,0,1,38,1,456.40000009536743,37,1,698.4000000953674,10,1,experiment,NA,NA,0,0.9,0.1,0,1,62,2,NA
fcp-trial,96,502607,0.0-71.0-0.0,voc_e2,11671,"[{""event"":""fullscreenenter"",""trial"":1,""time"":2435}]",NA,NA,NA,NA,NA,4,#FA92F8,#1CD855,0,10,1,38,1,452.7000000476837,39,0,655.5,10,0,experiment,NA,NA,2,0.5,0.5,4,5,63,2,NA
fcp-trial,97,505474,0.0-72.0-0.0,voc_e2,11671,"[{""event"":""fullscreenenter"",""trial"":1,""time"":2435}]",NA,NA,NA,NA,NA,6,#D89F1C,#3386FF,10,0,1,38,1,784.0999999046326,37,1,572.5,10,1,experiment,NA,NA,0,0.9,0.1,0,1,64,2,NA
fcp-trial,98,508481,0.0-73.0-0.0,voc_e2,11671,"[{""event"":""fullscreenenter"",""trial"":1,""time"":2435}]",NA,NA,NA,NA,NA,3,#741CD8,#D8271C,0,10,1,38,1,433.59999990463257,39,0,1056.4000000953674,10,0,experiment,NA,NA,1,0.7,0.3,2,3,65,2,NA
fcp-trial,99,512311,0.0-74.0-0.0,voc_e2,11671,"[{""event"":""fullscreenenter"",""trial"":1,""time"":2435}]",NA,NA,NA,NA,NA,3,#FA92F8,#1CD855,0,10,1,38,1,1338.5999999046326,39,0,975.8999998569489,10,0,experiment,NA,NA,2,0.5,0.5,4,5,66,2,NA
fcp-trial,100,514906,0.0-75.0-0.0,voc_e2,11671,"[{""event"":""fullscreenenter"",""trial"":1,""time"":2435}]",NA,NA,NA,NA,NA,2,#3386FF,#D89F1C,0,10,0,38,1,565,39,0,523.7999999523163,10,1,experiment,NA,NA,0,0.1,0.9,1,0,67,2,NA
fcp-trial,101,517514,0.0-76.0-0.0,voc_e2,11671,"[{""event"":""fullscreenenter"",""trial"":1,""time"":2435}]",NA,NA,NA,NA,NA,0,#1CD855,#FA92F8,0,10,0,38,1,459.89999985694885,37,1,634.0999999046326,0,0,experiment,NA,NA,2,0.5,0.5,5,4,68,2,NA
fcp-trial,102,521665,0.0-77.0-0.0,voc_e2,11671,"[{""event"":""fullscreenenter"",""trial"":1,""time"":2435}]",NA,NA,NA,NA,NA,6,#D8271C,#741CD8,0,10,0,38,1,423.19999980926514,37,1,2217.899999856949,0,0,experiment,NA,NA,1,0.3,0.7,3,2,69,2,NA
fcp-trial,103,524134,0.0-78.0-0.0,voc_e2,11671,"[{""event"":""fullscreenenter"",""trial"":1,""time"":2435}]",NA,NA,NA,NA,NA,4,#FA92F8,#1CD855,10,10,1,38,1,327.90000009536743,39,0,627.8999998569489,10,0,experiment,NA,NA,2,0.5,0.5,4,5,70,2,NA
fcp-trial,104,527516,0.0-79.0-0.0,voc_e2,11671,"[{""event"":""fullscreenenter"",""trial"":1,""time"":2435}]",NA,NA,NA,NA,NA,5,#741CD8,#D8271C,10,0,1,38,1,530.7000000476837,39,0,1333.3000001907349,0,0,experiment,NA,NA,1,0.7,0.3,2,3,71,2,NA
fcp-trial,105,529918,0.0-80.0-0.0,voc_e2,11671,"[{""event"":""fullscreenenter"",""trial"":1,""time"":2435}]",NA,NA,NA,NA,NA,5,#3386FF,#D89F1C,0,0,0,38,1,427.59999990463257,39,0,462.40000009536743,0,1,experiment,NA,NA,0,0.1,0.9,1,0,72,2,NA
fcp-trial,106,532748,0.0-81.0-0.0,voc_e2,11671,"[{""event"":""fullscreenenter"",""trial"":1,""time"":2435}]",NA,NA,NA,NA,NA,5,#1CD855,#FA92F8,0,0,0,38,1,576.2999999523163,37,1,748.3999998569489,0,0,experiment,NA,NA,2,0.5,0.5,5,4,73,2,NA
fcp-trial,107,535362,0.0-82.0-0.0,voc_e2,11671,"[{""event"":""fullscreenenter"",""trial"":1,""time"":2435}]",NA,NA,NA,NA,NA,2,#D8271C,#741CD8,0,10,0,38,1,347.10000014305115,37,1,759.5999999046326,0,0,experiment,NA,NA,1,0.3,0.7,3,2,74,2,NA
fcp-trial,108,537806,0.0-83.0-0.0,voc_e2,11671,"[{""event"":""fullscreenenter"",""trial"":1,""time"":2435}]",NA,NA,NA,NA,NA,0,#3386FF,#D89F1C,0,10,0,38,1,427.40000009536743,39,0,510.2999999523163,10,1,experiment,NA,NA,0,0.1,0.9,1,0,75,2,NA
fcp-trial,109,541021,0.0-84.0-0.0,voc_e2,11671,"[{""event"":""fullscreenenter"",""trial"":1,""time"":2435}]",NA,NA,NA,NA,NA,0,#D8271C,#741CD8,10,10,0,38,1,967.8999998569489,37,1,732.2999999523163,10,0,experiment,NA,NA,1,0.3,0.7,3,2,76,2,NA
fcp-trial,110,543835,0.0-85.0-0.0,voc_e2,11671,"[{""event"":""fullscreenenter"",""trial"":1,""time"":2435}]",NA,NA,NA,NA,NA,1,#D8271C,#741CD8,10,10,0,38,1,701.4000000953674,37,1,606.1000001430511,10,0,experiment,NA,NA,1,0.3,0.7,3,2,77,2,NA
fcp-trial,111,546300,0.0-86.0-0.0,voc_e2,11671,"[{""event"":""fullscreenenter"",""trial"":1,""time"":2435}]",NA,NA,NA,NA,NA,1,#FA92F8,#1CD855,0,0,1,38,1,397.7999999523163,39,0,553.4000000953674,0,0,experiment,NA,NA,2,0.5,0.5,4,5,78,2,NA
fcp-trial,112,550065,0.0-87.0-0.0,voc_e2,11671,"[{""event"":""fullscreenenter"",""trial"":1,""time"":2435}]",NA,NA,NA,NA,NA,3,#3386FF,#D89F1C,0,10,0,38,1,1132.9000000953674,39,0,1120,10,1,experiment,NA,NA,0,0.1,0.9,1,0,79,2,NA
fcp-trial,113,553020,0.0-88.0-0.0,voc_e2,11671,"[{""event"":""fullscreenenter"",""trial"":1,""time"":2435}]",NA,NA,NA,NA,NA,2,#1CD855,#FA92F8,10,0,0,38,1,396.5,37,1,1045.7000000476837,10,0,experiment,NA,NA,2,0.5,0.5,5,4,80,2,NA
fcp-trial,114,555770,0.0-89.0-0.0,voc_e2,11671,"[{""event"":""fullscreenenter"",""trial"":1,""time"":2435}]",NA,NA,NA,NA,NA,4,#741CD8,#D8271C,0,0,1,38,1,691.2000000476837,39,0,537.2000000476837,0,0,experiment,NA,NA,1,0.7,0.3,2,3,81,2,NA
fcp-trial,115,558597,0.0-90.0-0.0,voc_e2,11671,"[{""event"":""fullscreenenter"",""trial"":1,""time"":2435}]",NA,NA,NA,NA,NA,4,#D89F1C,#3386FF,10,0,1,38,1,804.7000000476837,37,1,506.7999999523163,10,1,experiment,NA,NA,0,0.9,0.1,0,1,82,2,NA
fcp-trial,116,561479,0.0-91.0-0.0,voc_e2,11671,"[{""event"":""fullscreenenter"",""trial"":1,""time"":2435}]",NA,NA,NA,NA,NA,1,#D89F1C,#3386FF,10,0,1,38,1,954.5,37,1,416.2999999523163,10,1,experiment,NA,NA,0,0.9,0.1,0,1,83,2,NA
fcp-trial,117,564706,0.0-92.0-0.0,voc_e2,11671,"[{""event"":""fullscreenenter"",""trial"":1,""time"":2435}]",NA,NA,NA,NA,NA,6,#1CD855,#FA92F8,10,0,0,38,1,1217.0999999046326,37,1,502,10,0,experiment,NA,NA,2,0.5,0.5,5,4,84,2,NA
fcp-trial,118,567354,0.0-93.0-0.0,voc_e2,11671,"[{""event"":""fullscreenenter"",""trial"":1,""time"":2435}]",NA,NA,NA,NA,NA,2,#3386FF,#D89F1C,0,10,0,38,1,431.10000014305115,39,0,701.1000001430511,10,1,experiment,NA,NA,0,0.1,0.9,1,0,85,2,NA
fcp-trial,119,571619,0.0-94.0-0.0,voc_e2,11671,"[{""event"":""fullscreenenter"",""trial"":1,""time"":2435}]",NA,NA,NA,NA,NA,4,#D8271C,#741CD8,10,10,0,38,1,1338.5,37,1,1407.7999999523163,10,0,experiment,NA,NA,1,0.3,0.7,3,2,86,2,NA
fcp-trial,120,574467,0.0-95.0-0.0,voc_e2,11671,"[{""event"":""fullscreenenter"",""trial"":1,""time"":2435}]",NA,NA,NA,NA,NA,6,#FA92F8,#1CD855,10,10,1,38,1,903.9000000953674,39,0,429.5,10,0,experiment,NA,NA,2,0.5,0.5,4,5,87,2,NA
fcp-trial,121,577739,0.0-96.0-0.0,voc_e2,11671,"[{""event"":""fullscreenenter"",""trial"":1,""time"":2435}]",NA,NA,NA,NA,NA,2,#D8271C,#741CD8,10,0,0,38,1,935.0999999046326,39,0,825,0,1,experiment,NA,NA,1,0.3,0.7,3,2,88,2,NA
fcp-trial,122,580504,0.0-97.0-0.0,voc_e2,11671,"[{""event"":""fullscreenenter"",""trial"":1,""time"":2435}]",NA,NA,NA,NA,NA,4,#1CD855,#FA92F8,10,10,0,38,1,652,37,1,603,10,0,experiment,NA,NA,2,0.5,0.5,5,4,89,2,NA
fcp-trial,123,583238,0.0-98.0-0.0,voc_e2,11671,"[{""event"":""fullscreenenter"",""trial"":1,""time"":2435}]",NA,NA,NA,NA,NA,5,#D89F1C,#3386FF,10,0,1,38,1,861.5,37,1,358.5,10,1,experiment,NA,NA,0,0.9,0.1,0,1,90,2,NA
fcp-trial,124,586134,0.0-99.0-0.0,voc_e2,11671,"[{""event"":""fullscreenenter"",""trial"":1,""time"":2435}]",NA,NA,NA,NA,NA,0,#741CD8,#D8271C,10,0,1,38,1,317.09999990463257,39,0,1064.5,0,0,experiment,NA,NA,1,0.7,0.3,2,3,91,3,NA
fcp-trial,125,588784,0.0-100.0-0.0,voc_e2,11671,"[{""event"":""fullscreenenter"",""trial"":1,""time"":2435}]",NA,NA,NA,NA,NA,6,#741CD8,#D8271C,10,10,1,38,1,683.7999999523163,39,0,458,10,0,experiment,NA,NA,1,0.7,0.3,2,3,92,3,NA
fcp-trial,126,591201,0.0-101.0-0.0,voc_e2,11671,"[{""event"":""fullscreenenter"",""trial"":1,""time"":2435}]",NA,NA,NA,NA,NA,0,#3386FF,#D89F1C,0,10,0,38,1,406.2000000476837,39,0,488.09999990463257,10,1,experiment,NA,NA,0,0.1,0.9,1,0,93,3,NA
fcp-trial,127,593949,0.0-102.0-0.0,voc_e2,11671,"[{""event"":""fullscreenenter"",""trial"":1,""time"":2435}]",NA,NA,NA,NA,NA,0,#1CD855,#FA92F8,10,10,0,38,1,729.8000001907349,37,1,499.59999990463257,10,0,experiment,NA,NA,2,0.5,0.5,5,4,94,3,NA
fcp-trial,128,596402,0.0-103.0-0.0,voc_e2,11671,"[{""event"":""fullscreenenter"",""trial"":1,""time"":2435}]",NA,NA,NA,NA,NA,2,#1CD855,#FA92F8,10,0,0,38,1,331.7999999523163,37,1,609.0999999046326,10,0,experiment,NA,NA,2,0.5,0.5,5,4,95,3,NA
fcp-trial,129,599692,0.0-104.0-0.0,voc_e2,11671,"[{""event"":""fullscreenenter"",""trial"":1,""time"":2435}]",NA,NA,NA,NA,NA,5,#D8271C,#741CD8,0,0,0,38,1,377.7000000476837,37,1,1395.5,0,0,experiment,NA,NA,1,0.3,0.7,3,2,96,3,NA
fcp-trial,130,602390,0.0-105.0-0.0,voc_e2,11671,"[{""event"":""fullscreenenter"",""trial"":1,""time"":2435}]",NA,NA,NA,NA,NA,6,#3386FF,#D89F1C,0,10,0,38,1,512.4000000953674,39,0,673.5999999046326,10,1,experiment,NA,NA,0,0.1,0.9,1,0,97,3,NA
fcp-trial,131,605144,0.0-106.0-0.0,voc_e2,11671,"[{""event"":""fullscreenenter"",""trial"":1,""time"":2435}]",NA,NA,NA,NA,NA,3,#FA92F8,#1CD855,10,10,1,38,1,649.5,37,1,581.7000000476837,10,1,experiment,NA,NA,2,0.5,0.5,4,5,98,3,NA
fcp-trial,132,608227,0.0-107.0-0.0,voc_e2,11671,"[{""event"":""fullscreenenter"",""trial"":1,""time"":2435}]",NA,NA,NA,NA,NA,5,#1CD855,#FA92F8,10,10,0,38,1,838.5,39,0,726.7000000476837,10,1,experiment,NA,NA,2,0.5,0.5,5,4,99,3,NA
fcp-trial,133,611988,0.0-108.0-0.0,voc_e2,11671,"[{""event"":""fullscreenenter"",""trial"":1,""time"":2435}]",NA,NA,NA,NA,NA,1,#D8271C,#741CD8,0,0,0,38,1,413.5,37,1,1838.2000000476837,0,0,experiment,NA,NA,1,0.3,0.7,3,2,100,3,NA
fcp-trial,134,614712,0.0-109.0-0.0,voc_e2,11671,"[{""event"":""fullscreenenter"",""trial"":1,""time"":2435}]",NA,NA,NA,NA,NA,4,#D89F1C,#3386FF,10,0,1,38,1,399.09999990463257,37,1,815.7000000476837,10,1,experiment,NA,NA,0,0.9,0.1,0,1,101,3,NA
fcp-trial,135,617656,0.0-110.0-0.0,voc_e2,11671,"[{""event"":""fullscreenenter"",""trial"":1,""time"":2435}]",NA,NA,NA,NA,NA,3,#D8271C,#741CD8,0,10,0,38,1,391.7999999523163,37,1,1038.9000000953674,0,0,experiment,NA,NA,1,0.3,0.7,3,2,102,3,NA
fcp-trial,136,620349,0.0-111.0-0.0,voc_e2,11671,"[{""event"":""fullscreenenter"",""trial"":1,""time"":2435}]",NA,NA,NA,NA,NA,1,#FA92F8,#1CD855,10,0,1,38,1,354.2000000476837,37,1,819.1999998092651,10,1,experiment,NA,NA,2,0.5,0.5,4,5,103,3,NA
fcp-trial,137,622878,0.0-112.0-0.0,voc_e2,11671,"[{""event"":""fullscreenenter"",""trial"":1,""time"":2435}]",NA,NA,NA,NA,NA,3,#D89F1C,#3386FF,10,10,1,38,1,372.10000014305115,37,1,637,10,1,experiment,NA,NA,0,0.9,0.1,0,1,104,3,NA
fcp-trial,138,625426,0.0-113.0-0.0,voc_e2,11671,"[{""event"":""fullscreenenter"",""trial"":1,""time"":2435}]",NA,NA,NA,NA,NA,1,#3386FF,#D89F1C,0,10,0,38,1,341.5,39,0,692.4000000953674,10,1,experiment,NA,NA,0,0.1,0.9,1,0,105,3,NA
audio-instructions,139,632132,0.0-114.0,voc_e2,11671,"[{""event"":""fullscreenenter"",""trial"":1,""time"":2435}]",NA,2047.2999999523165,static/audio/pause.wav,NA,0,NA,NA,NA,NA,NA,NA,NA,NA,NA,NA,NA,NA,NA,NA,NA,NA,NA,NA,NA,NA,NA,NA,NA,NA,NA
fcp-trial,140,639827,0.0-115.0-0.0,voc_e2,11671,"[{""event"":""fullscreenenter"",""trial"":1,""time"":2435}]",NA,NA,NA,NA,NA,6,#D89F1C,#3386FF,10,0,1,38,1,4716.400000095367,37,1,1457.7000000476837,10,1,experiment,NA,NA,0,0.9,0.1,0,1,106,3,NA
fcp-trial,141,645486,0.0-116.0-0.0,voc_e2,11671,"[{""event"":""fullscreenenter"",""trial"":1,""time"":2435}]",NA,NA,NA,NA,NA,3,#3386FF,#D89F1C,0,10,0,38,1,3775.9000000953674,39,0,358.09999990463257,10,1,experiment,NA,NA,0,0.1,0.9,1,0,107,3,NA
fcp-trial,142,650830,0.0-117.0-0.0,voc_e2,11671,"[{""event"":""fullscreenenter"",""trial"":1,""time"":2435}]",NA,NA,NA,NA,NA,0,#D8271C,#741CD8,0,10,0,38,1,1518.6000001430511,37,1,2310.2999999523163,0,0,experiment,NA,NA,1,0.3,0.7,3,2,108,3,NA
fcp-trial,143,653729,0.0-118.0-0.0,voc_e2,11671,"[{""event"":""fullscreenenter"",""trial"":1,""time"":2435}]",NA,NA,NA,NA,NA,2,#3386FF,#D89F1C,0,10,0,38,1,776.0999999046326,39,0,605.6000001430511,10,1,experiment,NA,NA,0,0.1,0.9,1,0,109,3,NA
fcp-trial,144,656499,0.0-119.0-0.0,voc_e2,11671,"[{""event"":""fullscreenenter"",""trial"":1,""time"":2435}]",NA,NA,NA,NA,NA,5,#D8271C,#741CD8,0,10,0,38,1,587.3000001907349,39,0,663.3999998569489,10,1,experiment,NA,NA,1,0.3,0.7,3,2,110,3,NA
fcp-trial,145,659772,0.0-120.0-0.0,voc_e2,11671,"[{""event"":""fullscreenenter"",""trial"":1,""time"":2435}]",NA,NA,NA,NA,NA,0,#FA92F8,#1CD855,0,10,1,38,1,616.2000000476837,37,1,1140.9000000953674,0,1,experiment,NA,NA,2,0.5,0.5,4,5,111,3,NA
fcp-trial,146,662658,0.0-121.0-0.0,voc_e2,11671,"[{""event"":""fullscreenenter"",""trial"":1,""time"":2435}]",NA,NA,NA,NA,NA,5,#1CD855,#FA92F8,0,0,0,38,1,452.59999990463257,37,1,925.7000000476837,0,0,experiment,NA,NA,2,0.5,0.5,5,4,112,3,NA
fcp-trial,147,665598,0.0-122.0-0.0,voc_e2,11671,"[{""event"":""fullscreenenter"",""trial"":1,""time"":2435}]",NA,NA,NA,NA,NA,1,#D89F1C,#3386FF,0,0,1,38,1,490.2999999523163,37,1,941.2000000476837,0,1,experiment,NA,NA,0,0.9,0.1,0,1,113,3,NA
fcp-trial,148,668333,0.0-123.0-0.0,voc_e2,11671,"[{""event"":""fullscreenenter"",""trial"":1,""time"":2435}]",NA,NA,NA,NA,NA,4,#D8271C,#741CD8,0,0,0,38,1,551.5,39,0,669.5999999046326,0,1,experiment,NA,NA,1,0.3,0.7,3,2,114,3,NA
fcp-trial,149,671254,0.0-124.0-0.0,voc_e2,11671,"[{""event"":""fullscreenenter"",""trial"":1,""time"":2435}]",NA,NA,NA,NA,NA,4,#FA92F8,#1CD855,10,0,1,38,1,377.5,37,1,1032.7999999523163,10,1,experiment,NA,NA,2,0.5,0.5,4,5,115,3,NA
fcp-trial,150,673901,0.0-125.0-0.0,voc_e2,11671,"[{""event"":""fullscreenenter"",""trial"":1,""time"":2435}]",NA,NA,NA,NA,NA,3,#1CD855,#FA92F8,0,0,0,38,1,442.7999999523163,39,0,693.6999998092651,0,1,experiment,NA,NA,2,0.5,0.5,5,4,116,3,NA
fcp-trial,151,677281,0.0-126.0-0.0,voc_e2,11671,"[{""event"":""fullscreenenter"",""trial"":1,""time"":2435}]",NA,NA,NA,NA,NA,5,#D89F1C,#3386FF,10,0,1,38,1,374.10000014305115,37,1,1496.5,10,1,experiment,NA,NA,0,0.9,0.1,0,1,117,3,NA
fcp-trial,152,688637,0.0-127.0-0.0,voc_e2,11671,"[{""event"":""fullscreenenter"",""trial"":1,""time"":2435}]",NA,NA,NA,NA,NA,6,#741CD8,#D8271C,0,0,1,38,1,424.40000009536743,39,0,9423.600000143051,0,0,experiment,NA,NA,1,0.7,0.3,2,3,118,3,NA
fcp-trial,153,691443,0.0-128.0-0.0,voc_e2,11671,"[{""event"":""fullscreenenter"",""trial"":1,""time"":2435}]",NA,NA,NA,NA,NA,6,#1CD855,#FA92F8,0,0,0,38,1,491.2000000476837,37,1,805.2000000476837,0,0,experiment,NA,NA,2,0.5,0.5,5,4,119,3,NA
fcp-trial,154,694473,0.0-129.0-0.0,voc_e2,11671,"[{""event"":""fullscreenenter"",""trial"":1,""time"":2435}]",NA,NA,NA,NA,NA,2,#D8271C,#741CD8,0,10,0,38,1,1181.7000000476837,39,0,330.5,10,1,experiment,NA,NA,1,0.3,0.7,3,2,120,3,NA
fcp-trial,155,697230,0.0-130.0-0.0,voc_e2,11671,"[{""event"":""fullscreenenter"",""trial"":1,""time"":2435}]",NA,NA,NA,NA,NA,4,#3386FF,#D89F1C,10,10,0,38,1,683.5999999046326,39,0,552.8000001907349,10,1,experiment,NA,NA,0,0.1,0.9,1,0,121,3,NA
fcp-trial,156,700277,0.0-131.0-0.0,voc_e2,11671,"[{""event"":""fullscreenenter"",""trial"":1,""time"":2435}]",NA,NA,NA,NA,NA,3,#741CD8,#D8271C,10,0,1,38,1,510.90000009536743,39,0,1021.7999999523163,0,0,experiment,NA,NA,1,0.7,0.3,2,3,122,3,NA
fcp-trial,157,703098,0.0-132.0-0.0,voc_e2,11671,"[{""event"":""fullscreenenter"",""trial"":1,""time"":2435}]",NA,NA,NA,NA,NA,0,#D89F1C,#3386FF,10,0,1,38,1,342,37,1,970.9000000953674,10,1,experiment,NA,NA,0,0.9,0.1,0,1,123,3,NA
fcp-trial,158,705795,0.0-133.0-0.0,voc_e2,11671,"[{""event"":""fullscreenenter"",""trial"":1,""time"":2435}]",NA,NA,NA,NA,NA,1,#FA92F8,#1CD855,10,10,1,38,1,408.5,37,1,765.7999999523163,10,1,experiment,NA,NA,2,0.5,0.5,4,5,124,3,NA
fcp-trial,159,708714,0.0-134.0-0.0,voc_e2,11671,"[{""event"":""fullscreenenter"",""trial"":1,""time"":2435}]",NA,NA,NA,NA,NA,2,#FA92F8,#1CD855,10,0,1,38,1,735,37,1,664.3999998569489,10,1,experiment,NA,NA,2,0.5,0.5,4,5,125,3,NA
fcp-trial,160,711284,0.0-135.0-0.0,voc_e2,11671,"[{""event"":""fullscreenenter"",""trial"":1,""time"":2435}]",NA,NA,NA,NA,NA,1,#741CD8,#D8271C,10,10,1,38,1,300.5,39,0,759.2999999523163,10,0,experiment,NA,NA,1,0.7,0.3,2,3,126,3,NA
fcp-trial,161,714030,0.0-136.0-0.0,voc_e2,11671,"[{""event"":""fullscreenenter"",""trial"":1,""time"":2435}]",NA,NA,NA,NA,NA,0,#D89F1C,#3386FF,0,0,1,38,1,555.1999998092651,37,1,676.0999999046326,0,1,experiment,NA,NA,0,0.9,0.1,0,1,127,3,NA
fcp-trial,162,717177,0.0-137.0-0.0,voc_e2,11671,"[{""event"":""fullscreenenter"",""trial"":1,""time"":2435}]",NA,NA,NA,NA,NA,1,#3386FF,#D89F1C,0,10,0,38,1,407.90000009536743,39,0,1231.8999998569489,10,1,experiment,NA,NA,0,0.1,0.9,1,0,128,3,NA
fcp-trial,163,720269,0.0-138.0-0.0,voc_e2,11671,"[{""event"":""fullscreenenter"",""trial"":1,""time"":2435}]",NA,NA,NA,NA,NA,0,#741CD8,#D8271C,0,0,1,38,1,727.2999999523163,39,0,849.8999998569489,0,0,experiment,NA,NA,1,0.7,0.3,2,3,129,3,NA
fcp-trial,164,723365,0.0-139.0-0.0,voc_e2,11671,"[{""event"":""fullscreenenter"",""trial"":1,""time"":2435}]",NA,NA,NA,NA,NA,2,#D8271C,#741CD8,0,0,0,38,1,799.3000001907349,37,1,777.4000000953674,0,0,experiment,NA,NA,1,0.3,0.7,3,2,130,3,NA
fcp-trial,165,726203,0.0-140.0-0.0,voc_e2,11671,"[{""event"":""fullscreenenter"",""trial"":1,""time"":2435}]",NA,NA,NA,NA,NA,4,#FA92F8,#1CD855,10,0,1,38,1,449.60000014305115,37,1,873.6999998092651,10,1,experiment,NA,NA,2,0.5,0.5,4,5,131,3,NA
fcp-trial,166,728860,0.0-141.0-0.0,voc_e2,11671,"[{""event"":""fullscreenenter"",""trial"":1,""time"":2435}]",NA,NA,NA,NA,NA,5,#FA92F8,#1CD855,0,10,1,38,1,428.2000000476837,37,1,712.1999998092651,0,1,experiment,NA,NA,2,0.5,0.5,4,5,132,3,NA
fcp-trial,167,731541,0.0-142.0-0.0,voc_e2,11671,"[{""event"":""fullscreenenter"",""trial"":1,""time"":2435}]",NA,NA,NA,NA,NA,3,#3386FF,#D89F1C,0,10,0,38,1,349.7000000476837,39,0,814.0999999046326,10,1,experiment,NA,NA,0,0.1,0.9,1,0,133,3,NA
fcp-trial,168,734082,0.0-143.0-0.0,voc_e2,11671,"[{""event"":""fullscreenenter"",""trial"":1,""time"":2435}]",NA,NA,NA,NA,NA,3,#FA92F8,#1CD855,10,10,1,38,1,344,37,1,681,10,1,experiment,NA,NA,2,0.5,0.5,4,5,134,3,NA
fcp-trial,169,736664,0.0-144.0-0.0,voc_e2,11671,"[{""event"":""fullscreenenter"",""trial"":1,""time"":2435}]",NA,NA,NA,NA,NA,6,#741CD8,#D8271C,10,10,1,38,1,401.60000014305115,39,0,668.4000000953674,10,0,experiment,NA,NA,1,0.7,0.3,2,3,135,3,NA
fcp-trial,170,739286,0.0-145.0-0.0,voc_e2,11671,"[{""event"":""fullscreenenter"",""trial"":1,""time"":2435}]",NA,NA,NA,NA,NA,5,#D8271C,#741CD8,0,10,0,38,1,390.40000009536743,37,1,718.7999999523163,0,0,experiment,NA,NA,1,0.3,0.7,3,2,136,4,NA
fcp-trial,171,741845,0.0-146.0-0.0,voc_e2,11671,"[{""event"":""fullscreenenter"",""trial"":1,""time"":2435}]",NA,NA,NA,NA,NA,2,#D89F1C,#3386FF,10,0,1,38,1,228.79999995231628,37,1,818,10,1,experiment,NA,NA,0,0.9,0.1,0,1,137,4,NA
fcp-trial,172,744570,0.0-147.0-0.0,voc_e2,11671,"[{""event"":""fullscreenenter"",""trial"":1,""time"":2435}]",NA,NA,NA,NA,NA,6,#3386FF,#D89F1C,0,10,0,38,1,476.30000019073486,39,0,738.0999999046326,10,1,experiment,NA,NA,0,0.1,0.9,1,0,138,4,NA
fcp-trial,173,747436,0.0-148.0-0.0,voc_e2,11671,"[{""event"":""fullscreenenter"",""trial"":1,""time"":2435}]",NA,NA,NA,NA,NA,2,#1CD855,#FA92F8,10,0,0,38,1,601.2999999523163,39,0,756.3000001907349,0,1,experiment,NA,NA,2,0.5,0.5,5,4,139,4,NA
fcp-trial,174,750153,0.0-149.0-0.0,voc_e2,11671,"[{""event"":""fullscreenenter"",""trial"":1,""time"":2435}]",NA,NA,NA,NA,NA,5,#D89F1C,#3386FF,10,0,1,38,1,512.6000001430511,37,1,692.0999999046326,10,1,experiment,NA,NA,0,0.9,0.1,0,1,140,4,NA
fcp-trial,175,753421,0.0-150.0-0.0,voc_e2,11671,"[{""event"":""fullscreenenter"",""trial"":1,""time"":2435}]",NA,NA,NA,NA,NA,1,#D8271C,#741CD8,0,0,0,38,1,353.7000000476837,37,1,1391.5999999046326,0,0,experiment,NA,NA,1,0.3,0.7,3,2,141,4,NA
fcp-trial,176,756034,0.0-151.0-0.0,voc_e2,11671,"[{""event"":""fullscreenenter"",""trial"":1,""time"":2435}]",NA,NA,NA,NA,NA,4,#D8271C,#741CD8,10,10,0,38,1,362.09999990463257,37,1,732,10,0,experiment,NA,NA,1,0.3,0.7,3,2,142,4,NA
fcp-trial,177,759548,0.0-152.0-0.0,voc_e2,11671,"[{""event"":""fullscreenenter"",""trial"":1,""time"":2435}]",NA,NA,NA,NA,NA,0,#FA92F8,#1CD855,0,0,1,38,1,1053,37,1,944.4000000953674,0,1,experiment,NA,NA,2,0.5,0.5,4,5,143,4,NA
fcp-trial,178,761961,0.0-153.0-0.0,voc_e2,11671,"[{""event"":""fullscreenenter"",""trial"":1,""time"":2435}]",NA,NA,NA,NA,NA,1,#FA92F8,#1CD855,10,0,1,38,1,300.7999999523163,37,1,596.8000001907349,10,1,experiment,NA,NA,2,0.5,0.5,4,5,144,4,NA
fcp-trial,179,764344,0.0-154.0-0.0,voc_e2,11671,"[{""event"":""fullscreenenter"",""trial"":1,""time"":2435}]",NA,NA,NA,NA,NA,4,#3386FF,#D89F1C,0,10,0,38,1,306.7999999523163,39,0,557.5,10,1,experiment,NA,NA,0,0.1,0.9,1,0,145,4,NA
fcp-trial,180,767332,0.0-155.0-0.0,voc_e2,11671,"[{""event"":""fullscreenenter"",""trial"":1,""time"":2435}]",NA,NA,NA,NA,NA,3,#D8271C,#741CD8,10,10,0,38,1,385.89999985694885,37,1,1088,10,0,experiment,NA,NA,1,0.3,0.7,3,2,146,4,NA
fcp-trial,181,770038,0.0-156.0-0.0,voc_e2,11671,"[{""event"":""fullscreenenter"",""trial"":1,""time"":2435}]",NA,NA,NA,NA,NA,6,#FA92F8,#1CD855,10,0,1,38,1,264.5,37,1,922.0999999046326,10,1,experiment,NA,NA,2,0.5,0.5,4,5,147,4,NA
fcp-trial,182,772316,0.0-157.0-0.0,voc_e2,11671,"[{""event"":""fullscreenenter"",""trial"":1,""time"":2435}]",NA,NA,NA,NA,NA,3,#1CD855,#FA92F8,0,0,0,38,1,231.89999985694885,39,0,529.2000000476837,0,1,experiment,NA,NA,2,0.5,0.5,5,4,148,4,NA
fcp-trial,183,775358,0.0-158.0-0.0,voc_e2,11671,"[{""event"":""fullscreenenter"",""trial"":1,""time"":2435}]",NA,NA,NA,NA,NA,1,#D8271C,#741CD8,0,10,0,38,1,342.7000000476837,37,1,1187,0,0,experiment,NA,NA,1,0.3,0.7,3,2,149,4,NA
fcp-trial,184,777722,0.0-159.0-0.0,voc_e2,11671,"[{""event"":""fullscreenenter"",""trial"":1,""time"":2435}]",NA,NA,NA,NA,NA,2,#741CD8,#D8271C,0,10,1,38,1,287.2000000476837,39,0,566.2000000476837,10,0,experiment,NA,NA,1,0.7,0.3,2,3,150,4,NA
fcp-trial,185,780275,0.0-160.0-0.0,voc_e2,11671,"[{""event"":""fullscreenenter"",""trial"":1,""time"":2435}]",NA,NA,NA,NA,NA,2,#1CD855,#FA92F8,0,0,0,38,1,387.2000000476837,39,0,647.8999998569489,0,1,experiment,NA,NA,2,0.5,0.5,5,4,151,4,NA
fcp-trial,186,782634,0.0-161.0-0.0,voc_e2,11671,"[{""event"":""fullscreenenter"",""trial"":1,""time"":2435}]",NA,NA,NA,NA,NA,6,#3386FF,#D89F1C,0,10,0,38,1,301.69999980926514,39,0,545,10,1,experiment,NA,NA,0,0.1,0.9,1,0,152,4,NA
fcp-trial,187,785086,0.0-162.0-0.0,voc_e2,11671,"[{""event"":""fullscreenenter"",""trial"":1,""time"":2435}]",NA,NA,NA,NA,NA,2,#3386FF,#D89F1C,0,0,0,38,1,425.89999985694885,39,0,510,0,1,experiment,NA,NA,0,0.1,0.9,1,0,153,4,NA
fcp-trial,188,788095,0.0-163.0-0.0,voc_e2,11671,"[{""event"":""fullscreenenter"",""trial"":1,""time"":2435}]",NA,NA,NA,NA,NA,0,#741CD8,#D8271C,0,0,1,38,1,370.59999990463257,39,0,1123,0,0,experiment,NA,NA,1,0.7,0.3,2,3,154,4,NA
fcp-trial,189,790581,0.0-164.0-0.0,voc_e2,11671,"[{""event"":""fullscreenenter"",""trial"":1,""time"":2435}]",NA,NA,NA,NA,NA,3,#D8271C,#741CD8,0,0,0,38,1,270,37,1,703.2999999523163,0,0,experiment,NA,NA,1,0.3,0.7,3,2,155,4,NA
fcp-trial,190,793041,0.0-165.0-0.0,voc_e2,11671,"[{""event"":""fullscreenenter"",""trial"":1,""time"":2435}]",NA,NA,NA,NA,NA,1,#FA92F8,#1CD855,0,10,1,38,1,332.2999999523163,37,1,614.5999999046326,0,1,experiment,NA,NA,2,0.5,0.5,4,5,156,4,NA
fcp-trial,191,795339,0.0-166.0-0.0,voc_e2,11671,"[{""event"":""fullscreenenter"",""trial"":1,""time"":2435}]",NA,NA,NA,NA,NA,0,#1CD855,#FA92F8,10,0,0,38,1,301,39,0,486.40000009536743,0,1,experiment,NA,NA,2,0.5,0.5,5,4,157,4,NA
fcp-trial,192,797859,0.0-167.0-0.0,voc_e2,11671,"[{""event"":""fullscreenenter"",""trial"":1,""time"":2435}]",NA,NA,NA,NA,NA,1,#D89F1C,#3386FF,10,0,1,38,1,378,37,1,625.5,10,1,experiment,NA,NA,0,0.9,0.1,0,1,158,4,NA
fcp-trial,193,800543,0.0-168.0-0.0,voc_e2,11671,"[{""event"":""fullscreenenter"",""trial"":1,""time"":2435}]",NA,NA,NA,NA,NA,0,#D89F1C,#3386FF,0,0,1,38,1,612.1000001430511,37,1,553.4000000953674,0,1,experiment,NA,NA,0,0.9,0.1,0,1,159,4,NA
fcp-trial,194,802856,0.0-169.0-0.0,voc_e2,11671,"[{""event"":""fullscreenenter"",""trial"":1,""time"":2435}]",NA,NA,NA,NA,NA,4,#741CD8,#D8271C,10,0,1,38,1,256.80000019073486,39,0,537.9000000953674,0,0,experiment,NA,NA,1,0.7,0.3,2,3,160,4,NA
fcp-trial,195,805272,0.0-170.0-0.0,voc_e2,11671,"[{""event"":""fullscreenenter"",""trial"":1,""time"":2435}]",NA,NA,NA,NA,NA,4,#FA92F8,#1CD855,0,10,1,38,1,258.7999999523163,37,1,645.3999998569489,0,1,experiment,NA,NA,2,0.5,0.5,4,5,161,4,NA
fcp-trial,196,807715,0.0-171.0-0.0,voc_e2,11671,"[{""event"":""fullscreenenter"",""trial"":1,""time"":2435}]",NA,NA,NA,NA,NA,4,#3386FF,#D89F1C,0,10,0,38,1,382,39,0,539.5,10,1,experiment,NA,NA,0,0.1,0.9,1,0,162,4,NA
fcp-trial,197,810503,0.0-172.0-0.0,voc_e2,11671,"[{""event"":""fullscreenenter"",""trial"":1,""time"":2435}]",NA,NA,NA,NA,NA,5,#D8271C,#741CD8,0,10,0,38,1,515.0999999046326,37,1,759.3999998569489,0,0,experiment,NA,NA,1,0.3,0.7,3,2,163,4,NA
fcp-trial,198,814238,0.0-173.0-0.0,voc_e2,11671,"[{""event"":""fullscreenenter"",""trial"":1,""time"":2435}]",NA,NA,NA,NA,NA,5,#3386FF,#D89F1C,0,10,0,38,1,1707.7999999523163,39,0,517.4000000953674,10,1,experiment,NA,NA,0,0.1,0.9,1,0,164,4,NA
fcp-trial,199,817044,0.0-174.0-0.0,voc_e2,11671,"[{""event"":""fullscreenenter"",""trial"":1,""time"":2435}]",NA,NA,NA,NA,NA,5,#FA92F8,#1CD855,0,0,1,38,1,769.5999999046326,39,0,518,0,0,experiment,NA,NA,2,0.5,0.5,4,5,165,4,NA
fcp-trial,200,819591,0.0-175.0-0.0,voc_e2,11671,"[{""event"":""fullscreenenter"",""trial"":1,""time"":2435}]",NA,NA,NA,NA,NA,3,#D89F1C,#3386FF,10,0,1,38,1,280.09999990463257,37,1,748.7000000476837,10,1,experiment,NA,NA,0,0.9,0.1,0,1,166,4,NA
fcp-trial,201,822091,0.0-176.0-0.0,voc_e2,11671,"[{""event"":""fullscreenenter"",""trial"":1,""time"":2435}]",NA,NA,NA,NA,NA,6,#741CD8,#D8271C,0,0,1,38,1,315.30000019073486,39,0,674.5,0,0,experiment,NA,NA,1,0.7,0.3,2,3,167,4,NA
fcp-trial,202,824636,0.0-177.0-0.0,voc_e2,11671,"[{""event"":""fullscreenenter"",""trial"":1,""time"":2435}]",NA,NA,NA,NA,NA,6,#FA92F8,#1CD855,10,10,1,38,1,229.5,37,1,798.8999998569489,10,1,experiment,NA,NA,2,0.5,0.5,4,5,168,4,NA
fcp-trial,203,827442,0.0-178.0-0.0,voc_e2,11671,"[{""event"":""fullscreenenter"",""trial"":1,""time"":2435}]",NA,NA,NA,NA,NA,0,#FA92F8,#1CD855,0,10,1,38,1,380.5,37,1,914.6000001430511,0,1,experiment,NA,NA,2,0.5,0.5,4,5,169,4,NA
fcp-trial,204,830201,0.0-179.0-0.0,voc_e2,11671,"[{""event"":""fullscreenenter"",""trial"":1,""time"":2435}]",NA,NA,NA,NA,NA,2,#D8271C,#741CD8,0,0,0,38,1,344.80000019073486,37,1,899.0999999046326,0,0,experiment,NA,NA,1,0.3,0.7,3,2,170,4,NA
fcp-trial,205,832716,0.0-180.0-0.0,voc_e2,11671,"[{""event"":""fullscreenenter"",""trial"":1,""time"":2435}]",NA,NA,NA,NA,NA,2,#1CD855,#FA92F8,0,10,0,38,1,487.19999980926514,39,0,514.5999999046326,10,1,experiment,NA,NA,2,0.5,0.5,5,4,171,4,NA
fcp-trial,206,835363,0.0-181.0-0.0,voc_e2,11671,"[{""event"":""fullscreenenter"",""trial"":1,""time"":2435}]",NA,NA,NA,NA,NA,0,#D8271C,#741CD8,0,0,0,38,1,458,37,1,681.6000001430511,0,0,experiment,NA,NA,1,0.3,0.7,3,2,172,4,NA
fcp-trial,207,838049,0.0-182.0-0.0,voc_e2,11671,"[{""event"":""fullscreenenter"",""trial"":1,""time"":2435}]",NA,NA,NA,NA,NA,3,#3386FF,#D89F1C,0,10,0,38,1,617,39,0,554.2000000476837,10,1,experiment,NA,NA,0,0.1,0.9,1,0,173,4,NA
fcp-trial,208,840788,0.0-183.0-0.0,voc_e2,11671,"[{""event"":""fullscreenenter"",""trial"":1,""time"":2435}]",NA,NA,NA,NA,NA,4,#D8271C,#741CD8,10,10,0,38,1,473.59999990463257,37,1,755.3999998569489,10,0,experiment,NA,NA,1,0.3,0.7,3,2,174,4,NA
fcp-trial,209,843378,0.0-184.0-0.0,voc_e2,11671,"[{""event"":""fullscreenenter"",""trial"":1,""time"":2435}]",NA,NA,NA,NA,NA,5,#3386FF,#D89F1C,0,10,0,38,1,477.7999999523163,39,0,599.7000000476837,10,1,experiment,NA,NA,0,0.1,0.9,1,0,175,4,NA
fcp-trial,210,846145,0.0-185.0-0.0,voc_e2,11671,"[{""event"":""fullscreenenter"",""trial"":1,""time"":2435}]",NA,NA,NA,NA,NA,1,#1CD855,#FA92F8,10,10,0,38,1,723.3999998569489,39,0,531.2000000476837,10,1,experiment,NA,NA,2,0.5,0.5,5,4,176,4,NA
fcp-trial,211,849763,0.0-186.0-0.0,voc_e2,11671,"[{""event"":""fullscreenenter"",""trial"":1,""time"":2435}]",NA,NA,NA,NA,NA,0,#3386FF,#D89F1C,0,10,0,38,1,481.40000009536743,39,0,1625.4000000953674,10,1,experiment,NA,NA,0,0.1,0.9,1,0,177,4,NA
fcp-trial,212,852921,0.0-187.0-0.0,voc_e2,11671,"[{""event"":""fullscreenenter"",""trial"":1,""time"":2435}]",NA,NA,NA,NA,NA,5,#741CD8,#D8271C,10,0,1,38,1,940.7000000476837,39,0,700.0999999046326,0,0,experiment,NA,NA,1,0.7,0.3,2,3,178,4,NA
fcp-trial,213,855407,0.0-188.0-0.0,voc_e2,11671,"[{""event"":""fullscreenenter"",""trial"":1,""time"":2435}]",NA,NA,NA,NA,NA,3,#1CD855,#FA92F8,0,10,0,38,1,347.2000000476837,39,0,622.7999999523163,10,1,experiment,NA,NA,2,0.5,0.5,5,4,179,4,NA
fcp-trial,214,860928,0.0-189.0-0.0,voc_e2,11671,"[{""event"":""fullscreenenter"",""trial"":1,""time"":2435}]",NA,NA,NA,NA,NA,2,#D89F1C,#3386FF,10,0,1,38,1,3260.699999809265,37,1,747.5999999046326,10,1,experiment,NA,NA,0,0.9,0.1,0,1,180,4,NA
fcp-trial,215,863754,0.0-190.0-0.0,voc_e2,11671,"[{""event"":""fullscreenenter"",""trial"":1,""time"":2435}]",NA,NA,NA,NA,NA,5,#FA92F8,#1CD855,0,10,1,38,1,893.5,37,1,424.2000000476837,0,1,experiment,NA,NA,2,0.5,0.5,4,5,181,5,NA
fcp-trial,216,866206,0.0-191.0-0.0,voc_e2,11671,"[{""event"":""fullscreenenter"",""trial"":1,""time"":2435}]",NA,NA,NA,NA,NA,6,#741CD8,#D8271C,0,10,1,38,1,436.40000009536743,39,0,501.90000009536743,10,0,experiment,NA,NA,1,0.7,0.3,2,3,182,5,NA
fcp-trial,217,869139,0.0-192.0-0.0,voc_e2,11671,"[{""event"":""fullscreenenter"",""trial"":1,""time"":2435}]",NA,NA,NA,NA,NA,4,#FA92F8,#1CD855,0,0,1,38,1,608.2999999523163,37,1,809.7000000476837,0,1,experiment,NA,NA,2,0.5,0.5,4,5,183,5,NA
fcp-trial,218,871615,0.0-193.0-0.0,voc_e2,11671,"[{""event"":""fullscreenenter"",""trial"":1,""time"":2435}]",NA,NA,NA,NA,NA,1,#D89F1C,#3386FF,10,10,1,38,1,475.7000000476837,37,1,484.7000000476837,10,1,experiment,NA,NA,0,0.9,0.1,0,1,184,5,NA
fcp-trial,219,874615,0.0-194.0-0.0,voc_e2,11671,"[{""event"":""fullscreenenter"",""trial"":1,""time"":2435}]",NA,NA,NA,NA,NA,6,#1CD855,#FA92F8,10,10,0,38,1,455.7000000476837,39,0,1031.9000000953674,10,1,experiment,NA,NA,2,0.5,0.5,5,4,185,5,NA
fcp-trial,220,878145,0.0-195.0-0.0,voc_e2,11671,"[{""event"":""fullscreenenter"",""trial"":1,""time"":2435}]",NA,NA,NA,NA,NA,4,#D89F1C,#3386FF,10,0,1,38,1,1618.5,37,1,400.19999980926514,10,1,experiment,NA,NA,0,0.9,0.1,0,1,186,5,NA
fcp-trial,221,880776,0.0-196.0-0.0,voc_e2,11671,"[{""event"":""fullscreenenter"",""trial"":1,""time"":2435}]",NA,NA,NA,NA,NA,3,#D8271C,#741CD8,10,10,0,38,1,377.5,37,1,743.9000000953674,10,0,experiment,NA,NA,1,0.3,0.7,3,2,187,5,NA
fcp-trial,222,883081,0.0-197.0-0.0,voc_e2,11671,"[{""event"":""fullscreenenter"",""trial"":1,""time"":2435}]",NA,NA,NA,NA,NA,6,#3386FF,#D89F1C,10,10,0,38,1,299.80000019073486,39,0,493.39999985694885,10,1,experiment,NA,NA,0,0.1,0.9,1,0,188,5,NA
fcp-trial,223,886246,0.0-198.0-0.0,voc_e2,11671,"[{""event"":""fullscreenenter"",""trial"":1,""time"":2435}]",NA,NA,NA,NA,NA,1,#D8271C,#741CD8,10,10,0,38,1,1040.5999999046326,37,1,613.5,10,0,experiment,NA,NA,1,0.3,0.7,3,2,189,5,NA
fcp-trial,224,888619,0.0-199.0-0.0,voc_e2,11671,"[{""event"":""fullscreenenter"",""trial"":1,""time"":2435}]",NA,NA,NA,NA,NA,4,#1CD855,#FA92F8,0,10,0,38,1,350.09999990463257,39,0,503.5,10,1,experiment,NA,NA,2,0.5,0.5,5,4,190,5,NA
fcp-trial,225,891150,0.0-200.0-0.0,voc_e2,11671,"[{""event"":""fullscreenenter"",""trial"":1,""time"":2435}]",NA,NA,NA,NA,NA,5,#741CD8,#D8271C,0,0,1,38,1,512.9000000953674,39,0,503.40000009536743,0,0,experiment,NA,NA,1,0.7,0.3,2,3,191,5,NA
fcp-trial,226,893731,0.0-201.0-0.0,voc_e2,11671,"[{""event"":""fullscreenenter"",""trial"":1,""time"":2435}]",NA,NA,NA,NA,NA,5,#D89F1C,#3386FF,10,10,1,38,1,422.7000000476837,37,1,644.6000001430511,10,1,experiment,NA,NA,0,0.9,0.1,0,1,192,5,NA
fcp-trial,227,896439,0.0-202.0-0.0,voc_e2,11671,"[{""event"":""fullscreenenter"",""trial"":1,""time"":2435}]",NA,NA,NA,NA,NA,2,#1CD855,#FA92F8,0,0,0,38,1,494.7999999523163,39,0,702.6999998092651,0,1,experiment,NA,NA,2,0.5,0.5,5,4,193,5,NA
fcp-trial,228,899218,0.0-203.0-0.0,voc_e2,11671,"[{""event"":""fullscreenenter"",""trial"":1,""time"":2435}]",NA,NA,NA,NA,NA,4,#D89F1C,#3386FF,10,0,1,38,1,549.3999998569489,37,1,712.7000000476837,10,1,experiment,NA,NA,0,0.9,0.1,0,1,194,5,NA
fcp-trial,229,901873,0.0-204.0-0.0,voc_e2,11671,"[{""event"":""fullscreenenter"",""trial"":1,""time"":2435}]",NA,NA,NA,NA,NA,6,#D8271C,#741CD8,10,0,0,38,1,470.59999990463257,37,1,671.2000000476837,10,0,experiment,NA,NA,1,0.3,0.7,3,2,195,5,NA
fcp-trial,230,904199,0.0-205.0-0.0,voc_e2,11671,"[{""event"":""fullscreenenter"",""trial"":1,""time"":2435}]",NA,NA,NA,NA,NA,2,#D8271C,#741CD8,0,10,0,38,1,272.59999990463257,37,1,538,0,0,experiment,NA,NA,1,0.3,0.7,3,2,196,5,NA
fcp-trial,231,906636,0.0-206.0-0.0,voc_e2,11671,"[{""event"":""fullscreenenter"",""trial"":1,""time"":2435}]",NA,NA,NA,NA,NA,4,#D8271C,#741CD8,0,10,0,38,1,345.5,37,1,581.4000000953674,0,0,experiment,NA,NA,1,0.3,0.7,3,2,197,5,NA
fcp-trial,232,909224,0.0-207.0-0.0,voc_e2,11671,"[{""event"":""fullscreenenter"",""trial"":1,""time"":2435}]",NA,NA,NA,NA,NA,0,#FA92F8,#1CD855,10,0,1,38,1,577.7000000476837,37,1,495.7000000476837,10,1,experiment,NA,NA,2,0.5,0.5,4,5,198,5,NA
fcp-trial,233,911627,0.0-208.0-0.0,voc_e2,11671,"[{""event"":""fullscreenenter"",""trial"":1,""time"":2435}]",NA,NA,NA,NA,NA,1,#D89F1C,#3386FF,10,10,1,38,1,443,37,1,434.39999985694885,10,1,experiment,NA,NA,0,0.9,0.1,0,1,199,5,NA
fcp-trial,234,914181,0.0-209.0-0.0,voc_e2,11671,"[{""event"":""fullscreenenter"",""trial"":1,""time"":2435}]",NA,NA,NA,NA,NA,3,#3386FF,#D89F1C,0,0,0,38,1,405.2999999523163,39,0,636.2999999523163,0,1,experiment,NA,NA,0,0.1,0.9,1,0,200,5,NA
fcp-trial,235,916935,0.0-210.0-0.0,voc_e2,11671,"[{""event"":""fullscreenenter"",""trial"":1,""time"":2435}]",NA,NA,NA,NA,NA,3,#D8271C,#741CD8,10,10,0,38,1,854,37,1,388.10000014305115,10,0,experiment,NA,NA,1,0.3,0.7,3,2,201,5,NA
fcp-trial,236,919567,0.0-211.0-0.0,voc_e2,11671,"[{""event"":""fullscreenenter"",""trial"":1,""time"":2435}]",NA,NA,NA,NA,NA,5,#FA92F8,#1CD855,10,0,1,38,1,745,37,1,372.5,10,1,experiment,NA,NA,2,0.5,0.5,4,5,202,5,NA
fcp-trial,237,922162,0.0-212.0-0.0,voc_e2,11671,"[{""event"":""fullscreenenter"",""trial"":1,""time"":2435}]",NA,NA,NA,NA,NA,6,#3386FF,#D89F1C,10,10,0,38,1,511.69999980926514,39,0,566.1000001430511,10,1,experiment,NA,NA,0,0.1,0.9,1,0,203,5,NA
fcp-trial,238,924948,0.0-213.0-0.0,voc_e2,11671,"[{""event"":""fullscreenenter"",""trial"":1,""time"":2435}]",NA,NA,NA,NA,NA,1,#741CD8,#D8271C,10,10,1,38,1,853.3000001907349,39,0,408.90000009536743,10,0,experiment,NA,NA,1,0.7,0.3,2,3,204,5,NA
fcp-trial,239,928383,0.0-214.0-0.0,voc_e2,11671,"[{""event"":""fullscreenenter"",""trial"":1,""time"":2435}]",NA,NA,NA,NA,NA,6,#FA92F8,#1CD855,10,0,1,38,1,1255.2999999523163,37,1,666.7000000476837,10,1,experiment,NA,NA,2,0.5,0.5,4,5,205,5,NA
fcp-trial,240,930713,0.0-215.0-0.0,voc_e2,11671,"[{""event"":""fullscreenenter"",""trial"":1,""time"":2435}]",NA,NA,NA,NA,NA,0,#3386FF,#D89F1C,0,10,0,38,1,351.5,39,0,472.09999990463257,10,1,experiment,NA,NA,0,0.1,0.9,1,0,206,5,NA
fcp-trial,241,933570,0.0-216.0-0.0,voc_e2,11671,"[{""event"":""fullscreenenter"",""trial"":1,""time"":2435}]",NA,NA,NA,NA,NA,0,#741CD8,#D8271C,10,0,1,38,1,905.7000000476837,39,0,441.90000009536743,0,0,experiment,NA,NA,1,0.7,0.3,2,3,207,5,NA
fcp-trial,242,935935,0.0-217.0-0.0,voc_e2,11671,"[{""event"":""fullscreenenter"",""trial"":1,""time"":2435}]",NA,NA,NA,NA,NA,3,#1CD855,#FA92F8,0,0,0,38,1,413,39,0,434,0,1,experiment,NA,NA,2,0.5,0.5,5,4,208,5,NA
fcp-trial,243,939014,0.0-218.0-0.0,voc_e2,11671,"[{""event"":""fullscreenenter"",""trial"":1,""time"":2435}]",NA,NA,NA,NA,NA,2,#D89F1C,#3386FF,10,0,1,38,1,410.2999999523163,37,1,1154.5999999046326,10,1,experiment,NA,NA,0,0.9,0.1,0,1,209,5,NA
fcp-trial,244,941299,0.0-219.0-0.0,voc_e2,11671,"[{""event"":""fullscreenenter"",""trial"":1,""time"":2435}]",NA,NA,NA,NA,NA,1,#1CD855,#FA92F8,10,0,0,38,1,349.2999999523163,39,0,416.89999985694885,0,1,experiment,NA,NA,2,0.5,0.5,5,4,210,5,NA
audio-instructions,245,947433,0.0-220.0,voc_e2,11671,"[{""event"":""fullscreenenter"",""trial"":1,""time"":2435}]",NA,1479.0999999046326,static/audio/pause.wav,NA,0,NA,NA,NA,NA,NA,NA,NA,NA,NA,NA,NA,NA,NA,NA,NA,NA,NA,NA,NA,NA,NA,NA,NA,NA,NA
fcp-trial,246,951963,0.0-221.0-0.0,voc_e2,11671,"[{""event"":""fullscreenenter"",""trial"":1,""time"":2435}]",NA,NA,NA,NA,NA,4,#D8271C,#741CD8,0,10,0,38,1,2158.9000000953674,37,1,859.0999999046326,0,0,experiment,NA,NA,1,0.3,0.7,3,2,211,5,NA
fcp-trial,247,954383,0.0-222.0-0.0,voc_e2,11671,"[{""event"":""fullscreenenter"",""trial"":1,""time"":2435}]",NA,NA,NA,NA,NA,4,#D89F1C,#3386FF,10,0,1,38,1,372.2000000476837,37,1,539.5,10,1,experiment,NA,NA,0,0.9,0.1,0,1,212,5,NA
fcp-trial,248,956736,0.0-223.0-0.0,voc_e2,11671,"[{""event"":""fullscreenenter"",""trial"":1,""time"":2435}]",NA,NA,NA,NA,NA,6,#D89F1C,#3386FF,10,0,1,38,1,306.89999985694885,37,1,533.1999998092651,10,1,experiment,NA,NA,0,0.9,0.1,0,1,213,5,NA
fcp-trial,249,959289,0.0-224.0-0.0,voc_e2,11671,"[{""event"":""fullscreenenter"",""trial"":1,""time"":2435}]",NA,NA,NA,NA,NA,6,#FA92F8,#1CD855,0,10,1,38,1,352.7000000476837,37,1,688.7000000476837,0,1,experiment,NA,NA,2,0.5,0.5,4,5,214,5,NA
fcp-trial,250,961678,0.0-225.0-0.0,voc_e2,11671,"[{""event"":""fullscreenenter"",""trial"":1,""time"":2435}]",NA,NA,NA,NA,NA,3,#D89F1C,#3386FF,10,10,1,38,1,320.7999999523163,37,1,555.7999999523163,10,1,experiment,NA,NA,0,0.9,0.1,0,1,215,5,NA
fcp-trial,251,965123,0.0-226.0-0.0,voc_e2,11671,"[{""event"":""fullscreenenter"",""trial"":1,""time"":2435}]",NA,NA,NA,NA,NA,5,#741CD8,#D8271C,10,0,1,38,1,384.09999990463257,37,1,1539.7000000476837,10,1,experiment,NA,NA,1,0.7,0.3,2,3,216,5,NA
fcp-trial,252,968338,0.0-227.0-0.0,voc_e2,11671,"[{""event"":""fullscreenenter"",""trial"":1,""time"":2435}]",NA,NA,NA,NA,NA,2,#FA92F8,#1CD855,10,10,1,38,1,521.7999999523163,39,0,1177.7999999523163,10,0,experiment,NA,NA,2,0.5,0.5,4,5,217,5,NA
fcp-trial,253,971117,0.0-228.0-0.0,voc_e2,11671,"[{""event"":""fullscreenenter"",""trial"":1,""time"":2435}]",NA,NA,NA,NA,NA,1,#741CD8,#D8271C,0,10,1,38,1,537.7000000476837,37,1,725.3000001907349,0,1,experiment,NA,NA,1,0.7,0.3,2,3,218,5,NA
fcp-trial,254,973709,0.0-229.0-0.0,voc_e2,11671,"[{""event"":""fullscreenenter"",""trial"":1,""time"":2435}]",NA,NA,NA,NA,NA,3,#FA92F8,#1CD855,10,10,1,38,1,473.2000000476837,39,0,606.9000000953674,10,0,experiment,NA,NA,2,0.5,0.5,4,5,219,5,NA
fcp-trial,255,976265,0.0-230.0-0.0,voc_e2,11671,"[{""event"":""fullscreenenter"",""trial"":1,""time"":2435}]",NA,NA,NA,NA,NA,0,#3386FF,#D89F1C,0,10,0,38,1,417,39,0,628.8999998569489,10,1,experiment,NA,NA,0,0.1,0.9,1,0,220,5,NA
fcp-trial,256,978811,0.0-231.0-0.0,voc_e2,11671,"[{""event"":""fullscreenenter"",""trial"":1,""time"":2435}]",NA,NA,NA,NA,NA,2,#3386FF,#D89F1C,0,10,0,38,1,581.4000000953674,39,0,447.5,10,1,experiment,NA,NA,0,0.1,0.9,1,0,221,5,NA
fcp-trial,257,981641,0.0-232.0-0.0,voc_e2,11671,"[{""event"":""fullscreenenter"",""trial"":1,""time"":2435}]",NA,NA,NA,NA,NA,6,#741CD8,#D8271C,0,0,1,38,1,581.7999999523163,37,1,725.9000000953674,0,1,experiment,NA,NA,1,0.7,0.3,2,3,222,5,NA
fcp-trial,258,983997,0.0-233.0-0.0,voc_e2,11671,"[{""event"":""fullscreenenter"",""trial"":1,""time"":2435}]",NA,NA,NA,NA,NA,5,#FA92F8,#1CD855,10,0,1,38,1,323.7999999523163,39,0,516.2999999523163,0,0,experiment,NA,NA,2,0.5,0.5,4,5,223,5,NA
fcp-trial,259,986395,0.0-234.0-0.0,voc_e2,11671,"[{""event"":""fullscreenenter"",""trial"":1,""time"":2435}]",NA,NA,NA,NA,NA,4,#FA92F8,#1CD855,10,0,1,38,1,373.40000009536743,39,0,515.7000000476837,0,0,experiment,NA,NA,2,0.5,0.5,4,5,224,5,NA
fcp-trial,260,989246,0.0-235.0-0.0,voc_e2,11671,"[{""event"":""fullscreenenter"",""trial"":1,""time"":2435}]",NA,NA,NA,NA,NA,2,#D8271C,#741CD8,0,10,0,38,1,345.40000009536743,37,1,992.2999999523163,0,0,experiment,NA,NA,1,0.3,0.7,3,2,225,5,NA
fcp-trial,261,992240,0.0-236.0-0.0,voc_e2,11671,"[{""event"":""fullscreenenter"",""trial"":1,""time"":2435}]",NA,NA,NA,NA,NA,5,#D89F1C,#3386FF,10,10,1,38,1,1108.4000000953674,37,1,370.7999999523163,10,1,experiment,NA,NA,0,0.9,0.1,0,1,226,6,NA
fcp-trial,262,994877,0.0-237.0-0.0,voc_e2,11671,"[{""event"":""fullscreenenter"",""trial"":1,""time"":2435}]",NA,NA,NA,NA,NA,3,#D8271C,#741CD8,0,0,0,38,1,514.2000000476837,37,1,607.9000000953674,0,0,experiment,NA,NA,1,0.3,0.7,3,2,227,6,NA
fcp-trial,263,997278,0.0-238.0-0.0,voc_e2,11671,"[{""event"":""fullscreenenter"",""trial"":1,""time"":2435}]",NA,NA,NA,NA,NA,0,#FA92F8,#1CD855,0,10,1,38,1,289.90000009536743,37,1,595.3999998569489,0,1,experiment,NA,NA,2,0.5,0.5,4,5,228,6,NA
fcp-trial,264,999624,0.0-239.0-0.0,voc_e2,11671,"[{""event"":""fullscreenenter"",""trial"":1,""time"":2435}]",NA,NA,NA,NA,NA,0,#741CD8,#D8271C,10,0,1,38,1,248.30000019073486,37,1,581.9000000953674,10,1,experiment,NA,NA,1,0.7,0.3,2,3,229,6,NA
fcp-trial,265,1002074,0.0-240.0-0.0,voc_e2,11671,"[{""event"":""fullscreenenter"",""trial"":1,""time"":2435}]",NA,NA,NA,NA,NA,1,#3386FF,#D89F1C,0,10,0,38,1,345.90000009536743,39,0,590.7999999523163,10,1,experiment,NA,NA,0,0.1,0.9,1,0,230,6,NA
fcp-trial,266,1005413,0.0-241.0-0.0,voc_e2,11671,"[{""event"":""fullscreenenter"",""trial"":1,""time"":2435}]",NA,NA,NA,NA,NA,1,#FA92F8,#1CD855,0,10,1,38,1,886.7999999523163,37,1,937.7999999523163,0,1,experiment,NA,NA,2,0.5,0.5,4,5,231,6,NA
fcp-trial,267,1008168,0.0-242.0-0.0,voc_e2,11671,"[{""event"":""fullscreenenter"",""trial"":1,""time"":2435}]",NA,NA,NA,NA,NA,2,#741CD8,#D8271C,10,0,1,38,1,340.2000000476837,37,1,905.5,10,1,experiment,NA,NA,1,0.7,0.3,2,3,232,6,NA
fcp-trial,268,1011106,0.0-243.0-0.0,voc_e2,11671,"[{""event"":""fullscreenenter"",""trial"":1,""time"":2435}]",NA,NA,NA,NA,NA,1,#FA92F8,#1CD855,0,0,1,38,1,784.7999999523163,37,1,640.6000001430511,0,1,experiment,NA,NA,2,0.5,0.5,4,5,233,6,NA
fcp-trial,269,1014161,0.0-244.0-0.0,voc_e2,11671,"[{""event"":""fullscreenenter"",""trial"":1,""time"":2435}]",NA,NA,NA,NA,NA,3,#3386FF,#D89F1C,0,10,0,38,1,906.5999999046326,39,0,639.1999998092651,10,1,experiment,NA,NA,0,0.1,0.9,1,0,234,6,NA
fcp-trial,270,1016526,0.0-245.0-0.0,voc_e2,11671,"[{""event"":""fullscreenenter"",""trial"":1,""time"":2435}]",NA,NA,NA,NA,NA,1,#D89F1C,#3386FF,10,0,1,38,1,316.2999999523163,37,1,524.2999999523163,10,1,experiment,NA,NA,0,0.9,0.1,0,1,235,6,NA
fcp-trial,271,1019223,0.0-246.0-0.0,voc_e2,11671,"[{""event"":""fullscreenenter"",""trial"":1,""time"":2435}]",NA,NA,NA,NA,NA,3,#FA92F8,#1CD855,0,10,1,38,1,490,37,1,689.2000000476837,0,1,experiment,NA,NA,2,0.5,0.5,4,5,236,6,NA
fcp-trial,272,1021713,0.0-247.0-0.0,voc_e2,11671,"[{""event"":""fullscreenenter"",""trial"":1,""time"":2435}]",NA,NA,NA,NA,NA,6,#D8271C,#741CD8,10,10,0,38,1,330.89999985694885,39,0,648.7000000476837,10,1,experiment,NA,NA,1,0.3,0.7,3,2,237,6,NA
fcp-trial,273,1024220,0.0-248.0-0.0,voc_e2,11671,"[{""event"":""fullscreenenter"",""trial"":1,""time"":2435}]",NA,NA,NA,NA,NA,5,#3386FF,#D89F1C,0,10,0,38,1,337.19999980926514,39,0,657.7000000476837,10,1,experiment,NA,NA,0,0.1,0.9,1,0,238,6,NA
fcp-trial,274,1027407,0.0-249.0-0.0,voc_e2,11671,"[{""event"":""fullscreenenter"",""trial"":1,""time"":2435}]",NA,NA,NA,NA,NA,0,#FA92F8,#1CD855,10,0,1,38,1,1179.0999999046326,39,0,500.7999999523163,0,0,experiment,NA,NA,2,0.5,0.5,4,5,239,6,NA
fcp-trial,275,1029821,0.0-250.0-0.0,voc_e2,11671,"[{""event"":""fullscreenenter"",""trial"":1,""time"":2435}]",NA,NA,NA,NA,NA,0,#3386FF,#D89F1C,0,0,0,38,1,316.2000000476837,39,0,585.5999999046326,0,1,experiment,NA,NA,0,0.1,0.9,1,0,240,6,NA
fcp-trial,276,1032440,0.0-251.0-0.0,voc_e2,11671,"[{""event"":""fullscreenenter"",""trial"":1,""time"":2435}]",NA,NA,NA,NA,NA,2,#1CD855,#FA92F8,0,0,0,38,1,390.40000009536743,39,0,716.1000001430511,0,1,experiment,NA,NA,2,0.5,0.5,5,4,241,6,NA
fcp-trial,277,1035081,0.0-252.0-0.0,voc_e2,11671,"[{""event"":""fullscreenenter"",""trial"":1,""time"":2435}]",NA,NA,NA,NA,NA,5,#D8271C,#741CD8,0,10,0,38,1,344.39999985694885,39,0,782.7000000476837,10,1,experiment,NA,NA,1,0.3,0.7,3,2,242,6,NA
fcp-trial,278,1037533,0.0-253.0-0.0,voc_e2,11671,"[{""event"":""fullscreenenter"",""trial"":1,""time"":2435}]",NA,NA,NA,NA,NA,4,#D8271C,#741CD8,10,10,0,38,1,435.2999999523163,39,0,507.19999980926514,10,1,experiment,NA,NA,1,0.3,0.7,3,2,243,6,NA
fcp-trial,279,1040452,0.0-254.0-0.0,voc_e2,11671,"[{""event"":""fullscreenenter"",""trial"":1,""time"":2435}]",NA,NA,NA,NA,NA,2,#D89F1C,#3386FF,10,10,1,38,1,404.89999985694885,37,1,992.5,10,1,experiment,NA,NA,0,0.9,0.1,0,1,244,6,NA
fcp-trial,280,1043434,0.0-255.0-0.0,voc_e2,11671,"[{""event"":""fullscreenenter"",""trial"":1,""time"":2435}]",NA,NA,NA,NA,NA,6,#FA92F8,#1CD855,10,10,1,38,1,1029.6000001430511,37,1,439.60000014305115,10,1,experiment,NA,NA,2,0.5,0.5,4,5,245,6,NA
fcp-trial,281,1045895,0.0-256.0-0.0,voc_e2,11671,"[{""event"":""fullscreenenter"",""trial"":1,""time"":2435}]",NA,NA,NA,NA,NA,0,#D8271C,#741CD8,0,0,0,38,1,294.7000000476837,39,0,656.1000001430511,0,1,experiment,NA,NA,1,0.3,0.7,3,2,246,6,NA
fcp-trial,282,1048314,0.0-257.0-0.0,voc_e2,11671,"[{""event"":""fullscreenenter"",""trial"":1,""time"":2435}]",NA,NA,NA,NA,NA,6,#3386FF,#D89F1C,0,10,0,38,1,352.80000019073486,39,0,549.7000000476837,10,1,experiment,NA,NA,0,0.1,0.9,1,0,247,6,NA
fcp-trial,283,1051639,0.0-258.0-0.0,voc_e2,11671,"[{""event"":""fullscreenenter"",""trial"":1,""time"":2435}]",NA,NA,NA,NA,NA,5,#FA92F8,#1CD855,0,10,1,38,1,1096.8000001907349,37,1,707.6000001430511,0,1,experiment,NA,NA,2,0.5,0.5,4,5,248,6,NA
fcp-trial,284,1054275,0.0-259.0-0.0,voc_e2,11671,"[{""event"":""fullscreenenter"",""trial"":1,""time"":2435}]",NA,NA,NA,NA,NA,3,#D8271C,#741CD8,0,10,0,38,1,569.7000000476837,39,0,551.7999999523163,10,1,experiment,NA,NA,1,0.3,0.7,3,2,249,6,NA
fcp-trial,285,1057463,0.0-260.0-0.0,voc_e2,11671,"[{""event"":""fullscreenenter"",""trial"":1,""time"":2435}]",NA,NA,NA,NA,NA,1,#D8271C,#741CD8,10,10,0,38,1,882.7999999523163,39,0,788.0999999046326,10,1,experiment,NA,NA,1,0.3,0.7,3,2,250,6,NA
fcp-trial,286,1060318,0.0-261.0-0.0,voc_e2,11671,"[{""event"":""fullscreenenter"",""trial"":1,""time"":2435}]",NA,NA,NA,NA,NA,4,#3386FF,#D89F1C,0,10,0,38,1,882.7000000476837,39,0,457.39999985694885,10,1,experiment,NA,NA,0,0.1,0.9,1,0,251,6,NA
fcp-trial,287,1063424,0.0-262.0-0.0,voc_e2,11671,"[{""event"":""fullscreenenter"",""trial"":1,""time"":2435}]",NA,NA,NA,NA,NA,4,#FA92F8,#1CD855,10,0,1,38,1,1148.2999999523163,37,1,437.09999990463257,10,1,experiment,NA,NA,2,0.5,0.5,4,5,252,6,NA
fcp-trial,288,1066918,0.0-263.0-0.0,voc_e2,11671,"[{""event"":""fullscreenenter"",""trial"":1,""time"":2435}]",NA,NA,NA,NA,NA,0,#D8271C,#741CD8,10,0,0,38,1,1416.4000000953674,39,0,564,0,1,experiment,NA,NA,1,0.3,0.7,3,2,253,6,NA
fcp-trial,289,1071311,0.0-264.0-0.0,voc_e2,11671,"[{""event"":""fullscreenenter"",""trial"":1,""time"":2435}]",NA,NA,NA,NA,NA,5,#FA92F8,#1CD855,10,0,1,38,1,2359.899999856949,37,1,514.7999999523163,10,1,experiment,NA,NA,2,0.5,0.5,4,5,254,6,NA
fcp-trial,290,1075726,0.0-265.0-0.0,voc_e2,11671,"[{""event"":""fullscreenenter"",""trial"":1,""time"":2435}]",NA,NA,NA,NA,NA,6,#D89F1C,#3386FF,10,0,1,38,1,2560.7000000476837,37,1,347.7000000476837,10,1,experiment,NA,NA,0,0.9,0.1,0,1,255,6,NA
fcp-trial,291,1078767,0.0-266.0-0.0,voc_e2,11671,"[{""event"":""fullscreenenter"",""trial"":1,""time"":2435}]",NA,NA,NA,NA,NA,3,#D8271C,#741CD8,0,10,0,38,1,1116.4000000953674,39,0,413.2999999523163,10,1,experiment,NA,NA,1,0.3,0.7,3,2,256,6,NA
fcp-trial,292,1081579,0.0-267.0-0.0,voc_e2,11671,"[{""event"":""fullscreenenter"",""trial"":1,""time"":2435}]",NA,NA,NA,NA,NA,1,#3386FF,#D89F1C,10,10,0,38,1,917.8999998569489,39,0,366.89999985694885,10,1,experiment,NA,NA,0,0.1,0.9,1,0,257,6,NA
fcp-trial,293,1084525,0.0-268.0-0.0,voc_e2,11671,"[{""event"":""fullscreenenter"",""trial"":1,""time"":2435}]",NA,NA,NA,NA,NA,2,#FA92F8,#1CD855,10,10,1,38,1,1062.3000001907349,37,1,367.10000014305115,10,1,experiment,NA,NA,2,0.5,0.5,4,5,258,6,NA
fcp-trial,294,1087835,0.0-269.0-0.0,voc_e2,11671,"[{""event"":""fullscreenenter"",""trial"":1,""time"":2435}]",NA,NA,NA,NA,NA,0,#FA92F8,#1CD855,0,0,1,38,1,1106.2000000476837,37,1,692.8999998569489,0,1,experiment,NA,NA,2,0.5,0.5,4,5,259,6,NA
fcp-trial,295,1091100,0.0-270.0-0.0,voc_e2,11671,"[{""event"":""fullscreenenter"",""trial"":1,""time"":2435}]",NA,NA,NA,NA,NA,4,#3386FF,#D89F1C,0,10,0,38,1,1214.5999999046326,39,0,536,10,1,experiment,NA,NA,0,0.1,0.9,1,0,260,6,NA
fcp-trial,296,1094175,0.0-271.0-0.0,voc_e2,11671,"[{""event"":""fullscreenenter"",""trial"":1,""time"":2435}]",NA,NA,NA,NA,NA,1,#741CD8,#D8271C,10,0,1,38,1,1147.5,37,1,414.40000009536743,10,1,experiment,NA,NA,1,0.7,0.3,2,3,261,6,NA
fcp-trial,297,1097544,0.0-272.0-0.0,voc_e2,11671,"[{""event"":""fullscreenenter"",""trial"":1,""time"":2435}]",NA,NA,NA,NA,NA,4,#FA92F8,#1CD855,10,10,1,38,1,1283,37,1,573.6000001430511,10,1,experiment,NA,NA,2,0.5,0.5,4,5,262,6,NA
fcp-trial,298,1100325,0.0-273.0-0.0,voc_e2,11671,"[{""event"":""fullscreenenter"",""trial"":1,""time"":2435}]",NA,NA,NA,NA,NA,3,#3386FF,#D89F1C,0,10,0,38,1,738.6000001430511,39,0,531.1000001430511,10,1,experiment,NA,NA,0,0.1,0.9,1,0,263,6,NA
fcp-trial,299,1102929,0.0-274.0-0.0,voc_e2,11671,"[{""event"":""fullscreenenter"",""trial"":1,""time"":2435}]",NA,NA,NA,NA,NA,6,#D8271C,#741CD8,0,10,0,38,1,556.7999999523163,39,0,536.4000000953674,10,1,experiment,NA,NA,1,0.3,0.7,3,2,264,6,NA
fcp-trial,300,1105892,0.0-275.0-0.0,voc_e2,11671,"[{""event"":""fullscreenenter"",""trial"":1,""time"":2435}]",NA,NA,NA,NA,NA,2,#D89F1C,#3386FF,10,0,1,38,1,846.2000000476837,37,1,596.7000000476837,10,1,experiment,NA,NA,0,0.9,0.1,0,1,265,6,NA
fcp-trial,301,1108449,0.0-276.0-0.0,voc_e2,11671,"[{""event"":""fullscreenenter"",""trial"":1,""time"":2435}]",NA,NA,NA,NA,NA,6,#FA92F8,#1CD855,0,0,1,38,1,441.59999990463257,37,1,597.3999998569489,0,1,experiment,NA,NA,2,0.5,0.5,4,5,266,6,NA
fcp-trial,302,1111556,0.0-277.0-0.0,voc_e2,11671,"[{""event"":""fullscreenenter"",""trial"":1,""time"":2435}]",NA,NA,NA,NA,NA,5,#D8271C,#741CD8,0,10,0,38,1,1226.5,39,0,364.59999990463257,10,1,experiment,NA,NA,1,0.3,0.7,3,2,267,6,NA
fcp-trial,303,1114219,0.0-278.0-0.0,voc_e2,11671,"[{""event"":""fullscreenenter"",""trial"":1,""time"":2435}]",NA,NA,NA,NA,NA,2,#741CD8,#D8271C,0,0,1,38,1,555.5999999046326,37,1,586.3999998569489,0,1,experiment,NA,NA,1,0.7,0.3,2,3,268,6,NA
fcp-trial,304,1117964,0.0-279.0-0.0,voc_e2,11671,"[{""event"":""fullscreenenter"",""trial"":1,""time"":2435}]",NA,NA,NA,NA,NA,0,#D89F1C,#3386FF,10,0,1,38,1,1898.0999999046326,37,1,329.7999999523163,10,1,experiment,NA,NA,0,0.9,0.1,0,1,269,6,NA
fcp-trial,305,1120543,0.0-280.0-0.0,voc_e2,11671,"[{""event"":""fullscreenenter"",""trial"":1,""time"":2435}]",NA,NA,NA,NA,NA,1,#1CD855,#FA92F8,0,0,0,38,1,610.3999998569489,39,0,451.7000000476837,0,1,experiment,NA,NA,2,0.5,0.5,5,4,270,6,NA
fcp-trial,306,1123842,0.0-281.0-0.0,voc_e2,11671,"[{""event"":""fullscreenenter"",""trial"":1,""time"":2435}]",NA,NA,NA,NA,NA,4,#741CD8,#D8271C,10,0,1,38,1,1210.4000000953674,37,1,567.0999999046326,10,1,experiment,NA,NA,1,0.7,0.3,2,3,271,7,NA
fcp-trial,307,1126219,0.0-282.0-0.0,voc_e2,11671,"[{""event"":""fullscreenenter"",""trial"":1,""time"":2435}]",NA,NA,NA,NA,NA,3,#1CD855,#FA92F8,0,10,0,38,1,398.2000000476837,39,0,467.5,10,1,experiment,NA,NA,2,0.5,0.5,5,4,272,7,NA
fcp-trial,308,1128720,0.0-283.0-0.0,voc_e2,11671,"[{""event"":""fullscreenenter"",""trial"":1,""time"":2435}]",NA,NA,NA,NA,NA,5,#D89F1C,#3386FF,10,0,1,38,1,387.7000000476837,37,1,599.5,10,1,experiment,NA,NA,0,0.9,0.1,0,1,273,7,NA
fcp-trial,309,1131138,0.0-284.0-0.0,voc_e2,11671,"[{""event"":""fullscreenenter"",""trial"":1,""time"":2435}]",NA,NA,NA,NA,NA,6,#D8271C,#741CD8,0,0,0,38,1,382.39999985694885,39,0,519.7999999523163,0,1,experiment,NA,NA,1,0.3,0.7,3,2,274,7,NA
fcp-trial,310,1133629,0.0-285.0-0.0,voc_e2,11671,"[{""event"":""fullscreenenter"",""trial"":1,""time"":2435}]",NA,NA,NA,NA,NA,4,#3386FF,#D89F1C,0,10,0,38,1,518,39,0,459.10000014305115,10,1,experiment,NA,NA,0,0.1,0.9,1,0,275,7,NA
fcp-trial,311,1136522,0.0-286.0-0.0,voc_e2,11671,"[{""event"":""fullscreenenter"",""trial"":1,""time"":2435}]",NA,NA,NA,NA,NA,5,#1CD855,#FA92F8,10,10,0,38,1,789.6000001430511,39,0,582.6000001430511,10,1,experiment,NA,NA,2,0.5,0.5,5,4,276,7,NA
fcp-trial,312,1139040,0.0-287.0-0.0,voc_e2,11671,"[{""event"":""fullscreenenter"",""trial"":1,""time"":2435}]",NA,NA,NA,NA,NA,6,#3386FF,#D89F1C,0,10,0,38,1,473.2000000476837,39,0,530.4000000953674,10,1,experiment,NA,NA,0,0.1,0.9,1,0,277,7,NA
fcp-trial,313,1141975,0.0-288.0-0.0,voc_e2,11671,"[{""event"":""fullscreenenter"",""trial"":1,""time"":2435}]",NA,NA,NA,NA,NA,0,#D8271C,#741CD8,0,10,0,38,1,686.4000000953674,39,0,741.4000000953674,10,1,experiment,NA,NA,1,0.3,0.7,3,2,278,7,NA
fcp-trial,314,1145177,0.0-289.0-0.0,voc_e2,11671,"[{""event"":""fullscreenenter"",""trial"":1,""time"":2435}]",NA,NA,NA,NA,NA,3,#FA92F8,#1CD855,10,0,1,38,1,1314.6000001430511,37,1,376.10000014305115,10,1,experiment,NA,NA,2,0.5,0.5,4,5,279,7,NA
fcp-trial,315,1147915,0.0-290.0-0.0,voc_e2,11671,"[{""event"":""fullscreenenter"",""trial"":1,""time"":2435}]",NA,NA,NA,NA,NA,2,#FA92F8,#1CD855,10,0,1,38,1,640.9000000953674,37,1,584.6000001430511,10,1,experiment,NA,NA,2,0.5,0.5,4,5,280,7,NA
fcp-trial,316,1150261,0.0-291.0-0.0,voc_e2,11671,"[{""event"":""fullscreenenter"",""trial"":1,""time"":2435}]",NA,NA,NA,NA,NA,5,#3386FF,#D89F1C,0,10,0,38,1,299.7999999523163,39,0,525.9000000953674,10,1,experiment,NA,NA,0,0.1,0.9,1,0,281,7,NA
fcp-trial,317,1152652,0.0-292.0-0.0,voc_e2,11671,"[{""event"":""fullscreenenter"",""trial"":1,""time"":2435}]",NA,NA,NA,NA,NA,0,#FA92F8,#1CD855,0,10,1,38,1,299,37,1,577,0,1,experiment,NA,NA,2,0.5,0.5,4,5,282,7,NA
fcp-trial,318,1156848,0.0-293.0-0.0,voc_e2,11671,"[{""event"":""fullscreenenter"",""trial"":1,""time"":2435}]",NA,NA,NA,NA,NA,3,#741CD8,#D8271C,0,0,1,38,1,475.90000009536743,39,0,2211.2999999523163,0,0,experiment,NA,NA,1,0.7,0.3,2,3,283,7,NA
fcp-trial,319,1159839,0.0-294.0-0.0,voc_e2,11671,"[{""event"":""fullscreenenter"",""trial"":1,""time"":2435}]",NA,NA,NA,NA,NA,3,#D89F1C,#3386FF,10,0,1,38,1,532.2999999523163,37,1,949,10,1,experiment,NA,NA,0,0.9,0.1,0,1,284,7,NA
fcp-trial,320,1162401,0.0-295.0-0.0,voc_e2,11671,"[{""event"":""fullscreenenter"",""trial"":1,""time"":2435}]",NA,NA,NA,NA,NA,6,#1CD855,#FA92F8,0,10,0,38,1,527.7000000476837,39,0,517.2000000476837,10,1,experiment,NA,NA,2,0.5,0.5,5,4,285,7,NA
fcp-trial,321,1165407,0.0-296.0-0.0,voc_e2,11671,"[{""event"":""fullscreenenter"",""trial"":1,""time"":2435}]",NA,NA,NA,NA,NA,1,#3386FF,#D89F1C,0,10,0,38,1,1088.7999999523163,39,0,403.69999980926514,10,1,experiment,NA,NA,0,0.1,0.9,1,0,286,7,NA
fcp-trial,322,1168379,0.0-297.0-0.0,voc_e2,11671,"[{""event"":""fullscreenenter"",""trial"":1,""time"":2435}]",NA,NA,NA,NA,NA,2,#D89F1C,#3386FF,10,0,1,38,1,690.8999998569489,37,1,770.2999999523163,10,1,experiment,NA,NA,0,0.9,0.1,0,1,287,7,NA
fcp-trial,323,1171761,0.0-298.0-0.0,voc_e2,11671,"[{""event"":""fullscreenenter"",""trial"":1,""time"":2435}]",NA,NA,NA,NA,NA,4,#D8271C,#741CD8,0,10,0,38,1,1377.7000000476837,39,0,483.59999990463257,10,1,experiment,NA,NA,1,0.3,0.7,3,2,288,7,NA
fcp-trial,324,1174844,0.0-299.0-0.0,voc_e2,11671,"[{""event"":""fullscreenenter"",""trial"":1,""time"":2435}]",NA,NA,NA,NA,NA,4,#FA92F8,#1CD855,0,0,1,38,1,1049.3999998569489,37,1,506.60000014305115,0,1,experiment,NA,NA,2,0.5,0.5,4,5,289,7,NA
fcp-trial,325,1177666,0.0-300.0-0.0,voc_e2,11671,"[{""event"":""fullscreenenter"",""trial"":1,""time"":2435}]",NA,NA,NA,NA,NA,5,#741CD8,#D8271C,0,0,1,38,1,427.60000014305115,39,0,883.7000000476837,0,0,experiment,NA,NA,1,0.7,0.3,2,3,290,7,NA
fcp-trial,326,1180470,0.0-301.0-0.0,voc_e2,11671,"[{""event"":""fullscreenenter"",""trial"":1,""time"":2435}]",NA,NA,NA,NA,NA,1,#FA92F8,#1CD855,10,0,1,38,1,630,37,1,665.6000001430511,10,1,experiment,NA,NA,2,0.5,0.5,4,5,291,7,NA
fcp-trial,327,1183084,0.0-302.0-0.0,voc_e2,11671,"[{""event"":""fullscreenenter"",""trial"":1,""time"":2435}]",NA,NA,NA,NA,NA,0,#3386FF,#D89F1C,0,10,0,38,1,581.7000000476837,39,0,509.60000014305115,10,1,experiment,NA,NA,0,0.1,0.9,1,0,292,7,NA
fcp-trial,328,1185567,0.0-303.0-0.0,voc_e2,11671,"[{""event"":""fullscreenenter"",""trial"":1,""time"":2435}]",NA,NA,NA,NA,NA,1,#741CD8,#D8271C,10,0,1,38,1,366.10000014305115,39,0,589.2000000476837,0,0,experiment,NA,NA,1,0.7,0.3,2,3,293,7,NA
fcp-trial,329,1188197,0.0-304.0-0.0,voc_e2,11671,"[{""event"":""fullscreenenter"",""trial"":1,""time"":2435}]",NA,NA,NA,NA,NA,2,#741CD8,#D8271C,0,0,1,38,1,444.19999980926514,37,1,670.7999999523163,0,1,experiment,NA,NA,1,0.7,0.3,2,3,294,7,NA
fcp-trial,330,1190575,0.0-305.0-0.0,voc_e2,11671,"[{""event"":""fullscreenenter"",""trial"":1,""time"":2435}]",NA,NA,NA,NA,NA,5,#1CD855,#FA92F8,10,10,0,38,1,377.30000019073486,39,0,482.5,10,1,experiment,NA,NA,2,0.5,0.5,5,4,295,7,NA
fcp-trial,331,1194296,0.0-306.0-0.0,voc_e2,11671,"[{""event"":""fullscreenenter"",""trial"":1,""time"":2435}]",NA,NA,NA,NA,NA,0,#741CD8,#D8271C,10,10,1,38,1,1594.9000000953674,39,0,608.2000000476837,10,0,experiment,NA,NA,1,0.7,0.3,2,3,296,7,NA
fcp-trial,332,1196894,0.0-307.0-0.0,voc_e2,11671,"[{""event"":""fullscreenenter"",""trial"":1,""time"":2435}]",NA,NA,NA,NA,NA,1,#D8271C,#741CD8,0,0,0,38,1,437.09999990463257,37,1,648.5999999046326,0,0,experiment,NA,NA,1,0.3,0.7,3,2,297,7,NA
fcp-trial,333,1199658,0.0-308.0-0.0,voc_e2,11671,"[{""event"":""fullscreenenter"",""trial"":1,""time"":2435}]",NA,NA,NA,NA,NA,1,#3386FF,#D89F1C,0,10,0,38,1,828.6000001430511,39,0,422.7999999523163,10,1,experiment,NA,NA,0,0.1,0.9,1,0,298,7,NA
fcp-trial,334,1202163,0.0-309.0-0.0,voc_e2,11671,"[{""event"":""fullscreenenter"",""trial"":1,""time"":2435}]",NA,NA,NA,NA,NA,6,#1CD855,#FA92F8,10,10,0,38,1,518.3999998569489,39,0,473.2000000476837,10,1,experiment,NA,NA,2,0.5,0.5,5,4,299,7,NA
fcp-trial,335,1204917,0.0-310.0-0.0,voc_e2,11671,"[{""event"":""fullscreenenter"",""trial"":1,""time"":2435}]",NA,NA,NA,NA,NA,3,#D8271C,#741CD8,0,0,0,38,1,406.19999980926514,37,1,821.5,0,0,experiment,NA,NA,1,0.3,0.7,3,2,300,7,NA
fcp-trial,336,1207293,0.0-311.0-0.0,voc_e2,11671,"[{""event"":""fullscreenenter"",""trial"":1,""time"":2435}]",NA,NA,NA,NA,NA,3,#D89F1C,#3386FF,10,10,1,38,1,370,37,1,484.09999990463257,10,1,experiment,NA,NA,0,0.9,0.1,0,1,301,7,NA
fcp-trial,337,1209763,0.0-312.0-0.0,voc_e2,11671,"[{""event"":""fullscreenenter"",""trial"":1,""time"":2435}]",NA,NA,NA,NA,NA,4,#3386FF,#D89F1C,10,10,0,38,1,473.39999985694885,39,0,479.2999999523163,10,1,experiment,NA,NA,0,0.1,0.9,1,0,302,7,NA
fcp-trial,338,1212464,0.0-313.0-0.0,voc_e2,11671,"[{""event"":""fullscreenenter"",""trial"":1,""time"":2435}]",NA,NA,NA,NA,NA,5,#D8271C,#741CD8,10,10,0,38,1,543.8999998569489,37,1,644.2000000476837,10,0,experiment,NA,NA,1,0.3,0.7,3,2,303,7,NA
fcp-trial,339,1215299,0.0-314.0-0.0,voc_e2,11671,"[{""event"":""fullscreenenter"",""trial"":1,""time"":2435}]",NA,NA,NA,NA,NA,2,#FA92F8,#1CD855,10,10,1,38,1,615.3999998569489,37,1,707.8000001907349,10,1,experiment,NA,NA,2,0.5,0.5,4,5,304,7,NA
fcp-trial,340,1217791,0.0-315.0-0.0,voc_e2,11671,"[{""event"":""fullscreenenter"",""trial"":1,""time"":2435}]",NA,NA,NA,NA,NA,0,#1CD855,#FA92F8,10,10,0,38,1,525.7000000476837,39,0,456.7000000476837,10,1,experiment,NA,NA,2,0.5,0.5,5,4,305,7,NA
fcp-trial,341,1220624,0.0-316.0-0.0,voc_e2,11671,"[{""event"":""fullscreenenter"",""trial"":1,""time"":2435}]",NA,NA,NA,NA,NA,1,#FA92F8,#1CD855,10,0,1,38,1,829,37,1,483.7000000476837,10,1,experiment,NA,NA,2,0.5,0.5,4,5,306,7,NA
fcp-trial,342,1223604,0.0-317.0-0.0,voc_e2,11671,"[{""event"":""fullscreenenter"",""trial"":1,""time"":2435}]",NA,NA,NA,NA,NA,2,#3386FF,#D89F1C,10,10,0,38,1,960.5999999046326,39,0,502.10000014305115,10,1,experiment,NA,NA,0,0.1,0.9,1,0,307,7,NA
fcp-trial,343,1226889,0.0-318.0-0.0,voc_e2,11671,"[{""event"":""fullscreenenter"",""trial"":1,""time"":2435}]",NA,NA,NA,NA,NA,6,#741CD8,#D8271C,10,0,1,38,1,741.3999998569489,39,0,1031.5,0,0,experiment,NA,NA,1,0.7,0.3,2,3,308,7,NA
fcp-trial,344,1230078,0.0-319.0-0.0,voc_e2,11671,"[{""event"":""fullscreenenter"",""trial"":1,""time"":2435}]",NA,NA,NA,NA,NA,5,#3386FF,#D89F1C,0,10,0,38,1,1299.7000000476837,39,0,381.2999999523163,10,1,experiment,NA,NA,0,0.1,0.9,1,0,309,7,NA
fcp-trial,345,1232576,0.0-320.0-0.0,voc_e2,11671,"[{""event"":""fullscreenenter"",""trial"":1,""time"":2435}]",NA,NA,NA,NA,NA,4,#741CD8,#D8271C,10,0,1,38,1,440.7999999523163,39,0,541.6000001430511,0,0,experiment,NA,NA,1,0.7,0.3,2,3,310,7,NA
fcp-trial,346,1235471,0.0-321.0-0.0,voc_e2,11671,"[{""event"":""fullscreenenter"",""trial"":1,""time"":2435}]",NA,NA,NA,NA,NA,4,#FA92F8,#1CD855,0,0,1,38,1,886.7999999523163,37,1,492.90000009536743,0,1,experiment,NA,NA,2,0.5,0.5,4,5,311,7,NA
fcp-trial,347,1237960,0.0-322.0-0.0,voc_e2,11671,"[{""event"":""fullscreenenter"",""trial"":1,""time"":2435}]",NA,NA,NA,NA,NA,6,#3386FF,#D89F1C,0,10,0,38,1,391.59999990463257,39,0,579.4000000953674,10,1,experiment,NA,NA,0,0.1,0.9,1,0,312,7,NA
fcp-trial,348,1240826,0.0-323.0-0.0,voc_e2,11671,"[{""event"":""fullscreenenter"",""trial"":1,""time"":2435}]",NA,NA,NA,NA,NA,2,#D8271C,#741CD8,0,10,0,38,1,487.60000014305115,37,1,865.8999998569489,0,0,experiment,NA,NA,1,0.3,0.7,3,2,313,7,NA
fcp-trial,349,1243247,0.0-324.0-0.0,voc_e2,11671,"[{""event"":""fullscreenenter"",""trial"":1,""time"":2435}]",NA,NA,NA,NA,NA,3,#FA92F8,#1CD855,10,10,1,38,1,453.2999999523163,37,1,456.39999985694885,10,1,experiment,NA,NA,2,0.5,0.5,4,5,314,7,NA
fcp-trial,350,1245920,0.0-325.0-0.0,voc_e2,11671,"[{""event"":""fullscreenenter"",""trial"":1,""time"":2435}]",NA,NA,NA,NA,NA,0,#3386FF,#D89F1C,0,10,0,38,1,754.4000000953674,39,0,405.59999990463257,10,1,experiment,NA,NA,0,0.1,0.9,1,0,315,7,NA
audio-instructions,351,1253101,0.0-326.0,voc_e2,11671,"[{""event"":""fullscreenenter"",""trial"":1,""time"":2435}]",NA,1310.5,static/audio/finished.wav,NA,0,NA,NA,NA,NA,NA,NA,NA,NA,NA,NA,NA,NA,NA,NA,NA,NA,NA,NA,NA,NA,NA,NA,NA,NA,NA
audio-instructions,352,1264726,0.0-327.0-0.0,voc_e2,11671,"[{""event"":""fullscreenenter"",""trial"":1,""time"":2435}]",NA,785.2000000476837,static/audio/explicit1.wav,NA,0,NA,NA,NA,NA,NA,NA,NA,NA,NA,NA,NA,NA,NA,NA,NA,NA,NA,NA,NA,NA,NA,NA,NA,NA,NA
audio-instructions,353,1273395,0.0-327.0-1.0,voc_e2,11671,"[{""event"":""fullscreenenter"",""trial"":1,""time"":2435}]",NA,1064.3999998569489,static/audio/explicit2.wav,NA,0,NA,NA,NA,NA,NA,NA,NA,NA,NA,NA,NA,NA,NA,NA,NA,NA,NA,NA,NA,NA,NA,NA,NA,NA,NA
image-slider-response,354,1281274,0.0-328.0,voc_e2,11671,"[{""event"":""fullscreenenter"",""trial"":1,""time"":2435}]",NA,7872.299999952316,static/img/machines/machine1.png,NA,NA,NA,NA,NA,NA,NA,NA,NA,NA,NA,NA,NA,NA,NA,NA,explicit,NA,NA,NA,NA,NA,NA,NA,NA,NA,6
image-slider-response,355,1284558,0.0-329.0,voc_e2,11671,"[{""event"":""fullscreenenter"",""trial"":1,""time"":2435}]",NA,3281.7000000476837,static/img/machines/machine6.png,NA,NA,NA,NA,NA,NA,NA,NA,NA,NA,NA,NA,NA,NA,NA,NA,explicit,NA,NA,NA,NA,NA,NA,NA,NA,NA,3
image-slider-response,356,1287804,0.0-330.0,voc_e2,11671,"[{""event"":""fullscreenenter"",""trial"":1,""time"":2435}]",NA,3242.5,static/img/machines/machine5.png,NA,NA,NA,NA,NA,NA,NA,NA,NA,NA,NA,NA,NA,NA,NA,NA,explicit,NA,NA,NA,NA,NA,NA,NA,NA,NA,7
image-slider-response,357,1291350,0.0-331.0,voc_e2,11671,"[{""event"":""fullscreenenter"",""trial"":1,""time"":2435}]",NA,3542.2999999523163,static/img/machines/machine2.png,NA,NA,NA,NA,NA,NA,NA,NA,NA,NA,NA,NA,NA,NA,NA,NA,explicit,NA,NA,NA,NA,NA,NA,NA,NA,NA,3
image-slider-response,358,1293990,0.0-332.0,voc_e2,11671,"[{""event"":""fullscreenenter"",""trial"":1,""time"":2435}]",NA,2634.900000095367,static/img/machines/machine3.png,NA,NA,NA,NA,NA,NA,NA,NA,NA,NA,NA,NA,NA,NA,NA,NA,explicit,NA,NA,NA,NA,NA,NA,NA,NA,NA,2
image-slider-response,359,1296671,0.0-333.0,voc_e2,11671,"[{""event"":""fullscreenenter"",""trial"":1,""time"":2435}]",NA,2678.400000095367,static/img/machines/machine4.png,NA,NA,NA,NA,NA,NA,NA,NA,NA,NA,NA,NA,NA,NA,NA,NA,explicit,NA,NA,NA,NA,NA,NA,NA,NA,NA,7
