trial_type,trial_index,time_elapsed,internal_node_id,task_version,subject_id,interactions,success,rt,stimulus,key_press,button_pressed,offer,arcade_color_L,arcade_color_R,arcade_outcome_L,arcade_outcome_R,correct,stage_1_key,stage_1_choice,stage_1_rt,stage_2_key,stage_2_choice,stage_2_rt,stage_3_outcome,accuracy,phase,responses,num_errors,context,reward_prob_L,reward_prob_R,arcade_id_L,arcade_id_R,trial,block,response
pavlovia,0,14,0.0-0.0,voc_e2,12269,[],NA,NA,NA,NA,NA,NA,NA,NA,NA,NA,NA,NA,NA,NA,NA,NA,NA,NA,NA,NA,NA,NA,NA,NA,NA,NA,NA,NA,NA,NA
fullscreen,1,4421,0.0-1.0,voc_e2,12269,"[{""event"":""fullscreenenter"",""trial"":1,""time"":3422}]",TRUE,NA,NA,NA,NA,NA,NA,NA,NA,NA,NA,NA,NA,NA,NA,NA,NA,NA,NA,NA,NA,NA,NA,NA,NA,NA,NA,NA,NA,NA
audio-keyboard-response,2,9647,0.0-2.0,voc_e2,12269,"[{""event"":""fullscreenenter"",""trial"":1,""time"":3422}]",NA,5097,static/audio/beep_loop.wav,32,NA,NA,NA,NA,NA,NA,NA,NA,NA,NA,NA,NA,NA,NA,NA,NA,NA,NA,NA,NA,NA,NA,NA,NA,NA,NA
audio-test,3,11376,0.0-3.0,voc_e2,12269,"[{""event"":""fullscreenenter"",""trial"":1,""time"":3422}]",NA,NA,static/audio/turtle.wav,NA,3,NA,NA,NA,NA,NA,NA,NA,NA,NA,NA,NA,NA,NA,NA,NA,NA,NA,NA,NA,NA,NA,NA,NA,NA,NA
audio-test,4,13870,0.0-4.0,voc_e2,12269,"[{""event"":""fullscreenenter"",""trial"":1,""time"":3422}]",NA,NA,static/audio/shark.wav,NA,2,NA,NA,NA,NA,NA,NA,NA,NA,NA,NA,NA,NA,NA,NA,NA,NA,NA,NA,NA,NA,NA,NA,NA,NA,NA
audio-instructions,5,22272,0.0-5.0-0.0,voc_e2,12269,"[{""event"":""fullscreenenter"",""trial"":1,""time"":3422}]",NA,2615.0999999940395,static/audio/instructions1.wav,NA,0,NA,NA,NA,NA,NA,NA,NA,NA,NA,NA,NA,NA,NA,NA,NA,NA,NA,NA,NA,NA,NA,NA,NA,NA,NA
audio-instructions,6,30825,0.0-5.0-1.0,voc_e2,12269,"[{""event"":""fullscreenenter"",""trial"":1,""time"":3422}]",NA,1810.899999976158,static/audio/instructions2.wav,NA,0,NA,NA,NA,NA,NA,NA,NA,NA,NA,NA,NA,NA,NA,NA,NA,NA,NA,NA,NA,NA,NA,NA,NA,NA,NA
audio-instructions,7,37843,0.0-5.0-2.0,voc_e2,12269,"[{""event"":""fullscreenenter"",""trial"":1,""time"":3422}]",NA,1213.2999999821186,static/audio/instructions3.wav,NA,0,NA,NA,NA,NA,NA,NA,NA,NA,NA,NA,NA,NA,NA,NA,NA,NA,NA,NA,NA,NA,NA,NA,NA,NA,NA
audio-instructions,8,51619,0.0-5.0-3.0,voc_e2,12269,"[{""event"":""fullscreenenter"",""trial"":1,""time"":3422}]",NA,546.1000000238419,static/audio/instructions4.wav,NA,0,NA,NA,NA,NA,NA,NA,NA,NA,NA,NA,NA,NA,NA,NA,NA,NA,NA,NA,NA,NA,NA,NA,NA,NA,NA
audio-instructions,9,62612,0.0-5.0-4.0,voc_e2,12269,"[{""event"":""fullscreenenter"",""trial"":1,""time"":3422}]",NA,1607.800000011921,static/audio/instructions5.wav,NA,0,NA,NA,NA,NA,NA,NA,NA,NA,NA,NA,NA,NA,NA,NA,NA,NA,NA,NA,NA,NA,NA,NA,NA,NA,NA
fcp-practice,10,133051,0.0-5.0-5.0-0.0,voc_e2,12269,"[{""event"":""fullscreenenter"",""trial"":1,""time"":3422},{""event"":""fullscreenexit"",""trial"":10,""time"":93911}]",NA,NA,NA,NA,NA,NA,#EDC948,#46d3c8,10,0,1,null,null,null,37,1,68930.19999998808,10,1,practice,NA,NA,NA,NA,NA,NA,NA,NA,NA,NA
fcp-practice,11,136041,0.0-5.0-5.0-1.0,voc_e2,12269,"[{""event"":""fullscreenenter"",""trial"":1,""time"":3422},{""event"":""fullscreenexit"",""trial"":10,""time"":93911}]",NA,NA,NA,NA,NA,NA,#EDC948,#46d3c8,10,0,1,null,null,null,37,1,1484.2000000178814,10,1,practice,NA,NA,NA,NA,NA,NA,NA,NA,NA,NA
fcp-practice,12,137911,0.0-5.0-5.0-2.0,voc_e2,12269,"[{""event"":""fullscreenenter"",""trial"":1,""time"":3422},{""event"":""fullscreenexit"",""trial"":10,""time"":93911}]",NA,NA,NA,NA,NA,NA,#EDC948,#46d3c8,0,10,1,null,null,null,37,1,366.5,0,1,practice,NA,NA,NA,NA,NA,NA,NA,NA,NA,NA
fcp-practice,13,139776,0.0-5.0-5.0-3.0,voc_e2,12269,"[{""event"":""fullscreenenter"",""trial"":1,""time"":3422},{""event"":""fullscreenexit"",""trial"":10,""time"":93911}]",NA,NA,NA,NA,NA,NA,#EDC948,#46d3c8,10,0,1,null,null,null,37,1,359.09999999403954,10,1,practice,NA,NA,NA,NA,NA,NA,NA,NA,NA,NA
fcp-practice,14,141535,0.0-5.0-5.0-4.0,voc_e2,12269,"[{""event"":""fullscreenenter"",""trial"":1,""time"":3422},{""event"":""fullscreenexit"",""trial"":10,""time"":93911}]",NA,NA,NA,NA,NA,NA,#EDC948,#46d3c8,10,0,1,null,null,null,37,1,255.19999998807907,10,1,practice,NA,NA,NA,NA,NA,NA,NA,NA,NA,NA
audio-instructions,15,161674,0.0-5.0-6.0,voc_e2,12269,"[{""event"":""fullscreenenter"",""trial"":1,""time"":3422},{""event"":""fullscreenexit"",""trial"":10,""time"":93911}]",NA,2005.800000011921,static/audio/instructions6.wav,NA,0,NA,NA,NA,NA,NA,NA,NA,NA,NA,NA,NA,NA,NA,NA,NA,NA,NA,NA,NA,NA,NA,NA,NA,NA,NA
audio-instructions,16,183081,0.0-5.0-7.0,voc_e2,12269,"[{""event"":""fullscreenenter"",""trial"":1,""time"":3422},{""event"":""fullscreenexit"",""trial"":10,""time"":93911}]",NA,2207.9000000059605,static/audio/instructions7.wav,NA,0,NA,NA,NA,NA,NA,NA,NA,NA,NA,NA,NA,NA,NA,NA,NA,NA,NA,NA,NA,NA,NA,NA,NA,NA,NA
audio-instructions,17,193891,0.0-5.0-8.0,voc_e2,12269,"[{""event"":""fullscreenenter"",""trial"":1,""time"":3422},{""event"":""fullscreenexit"",""trial"":10,""time"":93911}]",NA,1338.5,static/audio/instructions8.wav,NA,0,NA,NA,NA,NA,NA,NA,NA,NA,NA,NA,NA,NA,NA,NA,NA,NA,NA,NA,NA,NA,NA,NA,NA,NA,NA
fcp-comprehension,18,210538,0.0-5.0-9.0,voc_e2,12269,"[{""event"":""fullscreenenter"",""trial"":1,""time"":3422},{""event"":""fullscreenexit"",""trial"":10,""time"":93911}]",NA,16646.20000001788,NA,NA,NA,NA,NA,NA,NA,NA,NA,NA,NA,NA,NA,NA,NA,NA,NA,NA,"true,true",0,NA,NA,NA,NA,NA,NA,NA,NA
audio-instructions,19,217020,0.0-6.0-0.0,voc_e2,12269,"[{""event"":""fullscreenenter"",""trial"":1,""time"":3422},{""event"":""fullscreenexit"",""trial"":10,""time"":93911}]",NA,929.4000000059604,static/audio/instructions9.wav,NA,0,NA,NA,NA,NA,NA,NA,NA,NA,NA,NA,NA,NA,NA,NA,NA,NA,NA,NA,NA,NA,NA,NA,NA,NA,NA
audio-instructions,20,229645,0.0-6.0-1.0,voc_e2,12269,"[{""event"":""fullscreenenter"",""trial"":1,""time"":3422},{""event"":""fullscreenexit"",""trial"":10,""time"":93911}]",NA,505.800000011921,static/audio/instructions10.wav,NA,0,NA,NA,NA,NA,NA,NA,NA,NA,NA,NA,NA,NA,NA,NA,NA,NA,NA,NA,NA,NA,NA,NA,NA,NA,NA
fcp-trial,21,238765,0.0-6.0-2.0,voc_e2,12269,"[{""event"":""fullscreenenter"",""trial"":1,""time"":3422},{""event"":""fullscreenexit"",""trial"":10,""time"":93911}]",NA,NA,NA,NA,NA,0,#EDC948,#46d3c8,10,10,1,38,1,4928.5999999940395,39,0,2678.0999999940395,10,0,practice,NA,NA,NA,NA,NA,NA,NA,NA,NA,NA
audio-instructions,22,251771,0.0-6.0-3.0,voc_e2,12269,"[{""event"":""fullscreenenter"",""trial"":1,""time"":3422},{""event"":""fullscreenexit"",""trial"":10,""time"":93911}]",NA,1995.100000023842,static/audio/instructions11.wav,NA,0,NA,NA,NA,NA,NA,NA,NA,NA,NA,NA,NA,NA,NA,NA,NA,NA,NA,NA,NA,NA,NA,NA,NA,NA,NA
fcp-trial,23,260571,0.0-6.0-4.0,voc_e2,12269,"[{""event"":""fullscreenenter"",""trial"":1,""time"":3422},{""event"":""fullscreenexit"",""trial"":10,""time"":93911}]",NA,NA,NA,NA,NA,6,#EDC948,#46d3c8,10,10,1,40,0,5870.299999982119,39,0,1422.4000000059605,10,0,practice,NA,NA,NA,NA,NA,NA,NA,NA,NA,NA
audio-instructions,24,281307,0.0-6.0-5.0,voc_e2,12269,"[{""event"":""fullscreenenter"",""trial"":1,""time"":3422},{""event"":""fullscreenexit"",""trial"":10,""time"":93911}]",NA,2043.699999988079,static/audio/instructions12.wav,NA,0,NA,NA,NA,NA,NA,NA,NA,NA,NA,NA,NA,NA,NA,NA,NA,NA,NA,NA,NA,NA,NA,NA,NA,NA,NA
audio-instructions,25,291111,0.0-6.0-6.0,voc_e2,12269,"[{""event"":""fullscreenenter"",""trial"":1,""time"":3422},{""event"":""fullscreenexit"",""trial"":10,""time"":93911}]",NA,2205.5,static/audio/instructions13.wav,NA,0,NA,NA,NA,NA,NA,NA,NA,NA,NA,NA,NA,NA,NA,NA,NA,NA,NA,NA,NA,NA,NA,NA,NA,NA,NA
audio-instructions,26,301809,0.0-6.0-7.0,voc_e2,12269,"[{""event"":""fullscreenenter"",""trial"":1,""time"":3422},{""event"":""fullscreenexit"",""trial"":10,""time"":93911}]",NA,2246.0999999940395,static/audio/instructions14.wav,NA,0,NA,NA,NA,NA,NA,NA,NA,NA,NA,NA,NA,NA,NA,NA,NA,NA,NA,NA,NA,NA,NA,NA,NA,NA,NA
audio-instructions,27,309307,0.0-7.0-0.0,voc_e2,12269,"[{""event"":""fullscreenenter"",""trial"":1,""time"":3422},{""event"":""fullscreenexit"",""trial"":10,""time"":93911}]",NA,583.5,static/audio/instructions15.wav,NA,0,NA,NA,NA,NA,NA,NA,NA,NA,NA,NA,NA,NA,NA,NA,NA,NA,NA,NA,NA,NA,NA,NA,NA,NA,NA
audio-instructions,28,316430,0.0-7.0-1.0,voc_e2,12269,"[{""event"":""fullscreenenter"",""trial"":1,""time"":3422},{""event"":""fullscreenexit"",""trial"":10,""time"":93911}]",NA,300,static/audio/instructions16.wav,NA,0,NA,NA,NA,NA,NA,NA,NA,NA,NA,NA,NA,NA,NA,NA,NA,NA,NA,NA,NA,NA,NA,NA,NA,NA,NA
audio-instructions,29,324310,0.0-7.0-2.0,voc_e2,12269,"[{""event"":""fullscreenenter"",""trial"":1,""time"":3422},{""event"":""fullscreenexit"",""trial"":10,""time"":93911}]",NA,198.2999999821186,static/audio/instructions17.wav,NA,0,NA,NA,NA,NA,NA,NA,NA,NA,NA,NA,NA,NA,NA,NA,NA,NA,NA,NA,NA,NA,NA,NA,NA,NA,NA
audio-instructions,30,332475,0.0-7.0-3.0,voc_e2,12269,"[{""event"":""fullscreenenter"",""trial"":1,""time"":3422},{""event"":""fullscreenexit"",""trial"":10,""time"":93911}]",NA,399.89999997615814,static/audio/instructions18.wav,NA,0,NA,NA,NA,NA,NA,NA,NA,NA,NA,NA,NA,NA,NA,NA,NA,NA,NA,NA,NA,NA,NA,NA,NA,NA,NA
audio-instructions,31,339617,0.0-7.0-4.0,voc_e2,12269,"[{""event"":""fullscreenenter"",""trial"":1,""time"":3422},{""event"":""fullscreenexit"",""trial"":10,""time"":93911}]",NA,395.7999999821186,static/audio/instructions19.wav,NA,0,NA,NA,NA,NA,NA,NA,NA,NA,NA,NA,NA,NA,NA,NA,NA,NA,NA,NA,NA,NA,NA,NA,NA,NA,NA
fcp-comprehension,32,363933,0.0-7.0-5.0,voc_e2,12269,"[{""event"":""fullscreenenter"",""trial"":1,""time"":3422},{""event"":""fullscreenexit"",""trial"":10,""time"":93911}]",NA,24315.19999998808,NA,NA,NA,NA,NA,NA,NA,NA,NA,NA,NA,NA,NA,NA,NA,NA,NA,NA,"false,true,false,true",1,NA,NA,NA,NA,NA,NA,NA,NA
audio-instructions,33,372756,0.0-7.1-0.1,voc_e2,12269,"[{""event"":""fullscreenenter"",""trial"":1,""time"":3422},{""event"":""fullscreenexit"",""trial"":10,""time"":93911}]",NA,1910.2999999821184,static/audio/instructions15.wav,NA,0,NA,NA,NA,NA,NA,NA,NA,NA,NA,NA,NA,NA,NA,NA,NA,NA,NA,NA,NA,NA,NA,NA,NA,NA,NA
audio-instructions,34,380828,0.0-7.1-1.1,voc_e2,12269,"[{""event"":""fullscreenenter"",""trial"":1,""time"":3422},{""event"":""fullscreenexit"",""trial"":10,""time"":93911}]",NA,1245.7999999821186,static/audio/instructions16.wav,NA,0,NA,NA,NA,NA,NA,NA,NA,NA,NA,NA,NA,NA,NA,NA,NA,NA,NA,NA,NA,NA,NA,NA,NA,NA,NA
audio-instructions,35,388977,0.0-7.1-2.1,voc_e2,12269,"[{""event"":""fullscreenenter"",""trial"":1,""time"":3422},{""event"":""fullscreenexit"",""trial"":10,""time"":93911}]",NA,473.40000000596046,static/audio/instructions17.wav,NA,0,NA,NA,NA,NA,NA,NA,NA,NA,NA,NA,NA,NA,NA,NA,NA,NA,NA,NA,NA,NA,NA,NA,NA,NA,NA
audio-instructions,36,397181,0.0-7.1-3.1,voc_e2,12269,"[{""event"":""fullscreenenter"",""trial"":1,""time"":3422},{""event"":""fullscreenexit"",""trial"":10,""time"":93911}]",NA,440.40000000596046,static/audio/instructions18.wav,NA,0,NA,NA,NA,NA,NA,NA,NA,NA,NA,NA,NA,NA,NA,NA,NA,NA,NA,NA,NA,NA,NA,NA,NA,NA,NA
audio-instructions,37,405292,0.0-7.1-4.1,voc_e2,12269,"[{""event"":""fullscreenenter"",""trial"":1,""time"":3422},{""event"":""fullscreenexit"",""trial"":10,""time"":93911}]",NA,1365.5999999940395,static/audio/instructions19.wav,NA,0,NA,NA,NA,NA,NA,NA,NA,NA,NA,NA,NA,NA,NA,NA,NA,NA,NA,NA,NA,NA,NA,NA,NA,NA,NA
fcp-comprehension,38,447768,0.0-7.1-5.1,voc_e2,12269,"[{""event"":""fullscreenenter"",""trial"":1,""time"":3422},{""event"":""fullscreenexit"",""trial"":10,""time"":93911}]",NA,42475.19999998808,NA,NA,NA,NA,NA,NA,NA,NA,NA,NA,NA,NA,NA,NA,NA,NA,NA,NA,"false,false,false,true",0,NA,NA,NA,NA,NA,NA,NA,NA
audio-instructions,39,458546,0.0-8.0,voc_e2,12269,"[{""event"":""fullscreenenter"",""trial"":1,""time"":3422},{""event"":""fullscreenexit"",""trial"":10,""time"":93911}]",NA,1554.199999988079,static/audio/ready.wav,NA,0,NA,NA,NA,NA,NA,NA,NA,NA,NA,NA,NA,NA,NA,NA,NA,NA,NA,NA,NA,NA,NA,NA,NA,NA,NA
fcp-trial,40,464330,0.0-9.0-0.0,voc_e2,12269,"[{""event"":""fullscreenenter"",""trial"":1,""time"":3422},{""event"":""fullscreenexit"",""trial"":10,""time"":93911}]",NA,NA,NA,NA,NA,4,#FA92F8,#1CD855,0,0,0,40,0,2894.9000000059605,37,1,1380.800000011921,0,0,experiment,NA,NA,0,0.1,0.9,1,0,1,1,NA
fcp-trial,41,469010,0.0-10.0-0.0,voc_e2,12269,"[{""event"":""fullscreenenter"",""trial"":1,""time"":3422},{""event"":""fullscreenexit"",""trial"":10,""time"":93911}]",NA,NA,NA,NA,NA,1,#741CD8,#D8271C,0,10,0,38,1,2051.800000011921,39,0,1118,10,1,experiment,NA,NA,1,0.3,0.7,3,2,2,1,NA
fcp-trial,42,471978,0.0-11.0-0.0,voc_e2,12269,"[{""event"":""fullscreenenter"",""trial"":1,""time"":3422},{""event"":""fullscreenexit"",""trial"":10,""time"":93911}]",NA,NA,NA,NA,NA,3,#D89F1C,#3386FF,0,10,1,38,1,951.5,37,1,509.90000000596046,0,1,experiment,NA,NA,2,0.5,0.5,4,5,3,1,NA
fcp-trial,43,474393,0.0-12.0-0.0,voc_e2,12269,"[{""event"":""fullscreenenter"",""trial"":1,""time"":3422},{""event"":""fullscreenexit"",""trial"":10,""time"":93911}]",NA,NA,NA,NA,NA,2,#3386FF,#D89F1C,10,0,0,38,1,383.40000000596046,37,1,525.5999999940395,10,0,experiment,NA,NA,2,0.5,0.5,5,4,4,1,NA
fcp-trial,44,476676,0.0-13.0-0.0,voc_e2,12269,"[{""event"":""fullscreenenter"",""trial"":1,""time"":3422},{""event"":""fullscreenexit"",""trial"":10,""time"":93911}]",NA,NA,NA,NA,NA,0,#1CD855,#FA92F8,10,0,1,38,1,242.09999999403954,37,1,534,10,1,experiment,NA,NA,0,0.9,0.1,0,1,5,1,NA
fcp-trial,45,478978,0.0-14.0-0.0,voc_e2,12269,"[{""event"":""fullscreenenter"",""trial"":1,""time"":3422},{""event"":""fullscreenexit"",""trial"":10,""time"":93911}]",NA,NA,NA,NA,NA,4,#741CD8,#D8271C,10,10,0,38,1,317.40000000596046,37,1,478.5,10,0,experiment,NA,NA,1,0.3,0.7,3,2,6,1,NA
fcp-trial,46,481177,0.0-15.0-0.0,voc_e2,12269,"[{""event"":""fullscreenenter"",""trial"":1,""time"":3422},{""event"":""fullscreenexit"",""trial"":10,""time"":93911}]",NA,NA,NA,NA,NA,1,#1CD855,#FA92F8,10,0,1,38,1,341.59999999403954,37,1,350.19999998807907,10,1,experiment,NA,NA,0,0.9,0.1,0,1,7,1,NA
fcp-trial,47,483626,0.0-16.0-0.0,voc_e2,12269,"[{""event"":""fullscreenenter"",""trial"":1,""time"":3422},{""event"":""fullscreenexit"",""trial"":10,""time"":93911}]",NA,NA,NA,NA,NA,5,#FA92F8,#1CD855,0,10,0,38,1,630.5999999940395,37,1,311.90000000596046,0,0,experiment,NA,NA,0,0.1,0.9,1,0,8,1,NA
fcp-trial,48,485746,0.0-17.0-0.0,voc_e2,12269,"[{""event"":""fullscreenenter"",""trial"":1,""time"":3422},{""event"":""fullscreenexit"",""trial"":10,""time"":93911}]",NA,NA,NA,NA,NA,6,#D89F1C,#3386FF,0,10,1,38,1,103.2000000178814,37,1,510,0,1,experiment,NA,NA,2,0.5,0.5,4,5,9,1,NA
fcp-trial,49,488745,0.0-18.0-0.0,voc_e2,12269,"[{""event"":""fullscreenenter"",""trial"":1,""time"":3422},{""event"":""fullscreenexit"",""trial"":10,""time"":93911}]",NA,NA,NA,NA,NA,1,#D89F1C,#3386FF,0,0,1,38,1,1150.199999988079,37,1,342.59999999403954,0,1,experiment,NA,NA,2,0.5,0.5,4,5,10,1,NA
fcp-trial,50,491309,0.0-19.0-0.0,voc_e2,12269,"[{""event"":""fullscreenenter"",""trial"":1,""time"":3422},{""event"":""fullscreenexit"",""trial"":10,""time"":93911}]",NA,NA,NA,NA,NA,6,#741CD8,#D8271C,0,0,0,38,1,321.59999999403954,39,0,736,0,1,experiment,NA,NA,1,0.3,0.7,3,2,11,1,NA
fcp-trial,51,493410,0.0-20.0-0.0,voc_e2,12269,"[{""event"":""fullscreenenter"",""trial"":1,""time"":3422},{""event"":""fullscreenexit"",""trial"":10,""time"":93911}]",NA,NA,NA,NA,NA,5,#D89F1C,#3386FF,10,10,1,38,1,29,37,1,565.3000000119209,10,1,experiment,NA,NA,2,0.5,0.5,4,5,12,1,NA
fcp-trial,52,495865,0.0-21.0-0.0,voc_e2,12269,"[{""event"":""fullscreenenter"",""trial"":1,""time"":3422},{""event"":""fullscreenexit"",""trial"":10,""time"":93911}]",NA,NA,NA,NA,NA,2,#1CD855,#FA92F8,10,0,1,38,1,441.19999998807907,37,1,506.90000000596046,10,1,experiment,NA,NA,0,0.9,0.1,0,1,13,1,NA
fcp-trial,53,497947,0.0-22.0-0.0,voc_e2,12269,"[{""event"":""fullscreenenter"",""trial"":1,""time"":3422},{""event"":""fullscreenexit"",""trial"":10,""time"":93911}]",NA,NA,NA,NA,NA,4,#D89F1C,#3386FF,10,0,1,38,1,70.39999997615814,37,1,503.40000000596046,10,1,experiment,NA,NA,2,0.5,0.5,4,5,14,1,NA
fcp-trial,54,500080,0.0-23.0-0.0,voc_e2,12269,"[{""event"":""fullscreenenter"",""trial"":1,""time"":3422},{""event"":""fullscreenexit"",""trial"":10,""time"":93911}]",NA,NA,NA,NA,NA,0,#D8271C,#741CD8,10,10,1,38,1,71.09999999403954,37,1,555.9000000059605,10,1,experiment,NA,NA,1,0.7,0.3,2,3,15,1,NA
fcp-trial,55,504314,0.0-24.0-0.0,voc_e2,12269,"[{""event"":""fullscreenenter"",""trial"":1,""time"":3422},{""event"":""fullscreenexit"",""trial"":10,""time"":93911}]",NA,NA,NA,NA,NA,2,#D8271C,#741CD8,10,0,1,38,1,2262.9000000059605,37,1,464.40000000596046,10,1,experiment,NA,NA,1,0.7,0.3,2,3,16,1,NA
fcp-trial,56,507496,0.0-25.0-0.0,voc_e2,12269,"[{""event"":""fullscreenenter"",""trial"":1,""time"":3422},{""event"":""fullscreenexit"",""trial"":10,""time"":93911}]",NA,NA,NA,NA,NA,3,#D8271C,#741CD8,10,0,1,38,1,708.4000000059605,37,1,968.5999999940396,10,1,experiment,NA,NA,1,0.7,0.3,2,3,17,1,NA
fcp-trial,57,509675,0.0-26.0-0.0,voc_e2,12269,"[{""event"":""fullscreenenter"",""trial"":1,""time"":3422},{""event"":""fullscreenexit"",""trial"":10,""time"":93911}]",NA,NA,NA,NA,NA,3,#FA92F8,#1CD855,10,10,0,38,1,57.400000005960464,37,1,616.4000000059605,10,0,experiment,NA,NA,0,0.1,0.9,1,0,18,1,NA
fcp-trial,58,511897,0.0-27.0-0.0,voc_e2,12269,"[{""event"":""fullscreenenter"",""trial"":1,""time"":3422},{""event"":""fullscreenexit"",""trial"":10,""time"":93911}]",NA,NA,NA,NA,NA,0,#D89F1C,#3386FF,10,10,1,38,1,20.599999994039536,37,1,696.3000000119209,10,1,experiment,NA,NA,2,0.5,0.5,4,5,19,1,NA
fcp-trial,59,514131,0.0-28.0-0.0,voc_e2,12269,"[{""event"":""fullscreenenter"",""trial"":1,""time"":3422},{""event"":""fullscreenexit"",""trial"":10,""time"":93911}]",NA,NA,NA,NA,NA,6,#FA92F8,#1CD855,0,10,0,38,1,376,37,1,351.30000001192093,0,0,experiment,NA,NA,0,0.1,0.9,1,0,20,1,NA
fcp-trial,60,516432,0.0-29.0-0.0,voc_e2,12269,"[{""event"":""fullscreenenter"",""trial"":1,""time"":3422},{""event"":""fullscreenexit"",""trial"":10,""time"":93911}]",NA,NA,NA,NA,NA,5,#741CD8,#D8271C,0,0,0,38,1,253.19999998807907,37,1,542.4000000059605,0,0,experiment,NA,NA,1,0.3,0.7,3,2,21,1,NA
fcp-trial,61,518816,0.0-30.0-0.0,voc_e2,12269,"[{""event"":""fullscreenenter"",""trial"":1,""time"":3422},{""event"":""fullscreenexit"",""trial"":10,""time"":93911}]",NA,NA,NA,NA,NA,1,#3386FF,#D89F1C,10,0,0,38,1,457.2999999821186,37,1,421.09999999403954,10,0,experiment,NA,NA,2,0.5,0.5,5,4,22,1,NA
fcp-trial,62,521237,0.0-31.0-0.0,voc_e2,12269,"[{""event"":""fullscreenenter"",""trial"":1,""time"":3422},{""event"":""fullscreenexit"",""trial"":10,""time"":93911}]",NA,NA,NA,NA,NA,5,#741CD8,#D8271C,10,10,0,38,1,241,37,1,516.6999999880791,10,0,experiment,NA,NA,1,0.3,0.7,3,2,23,1,NA
fcp-trial,63,523447,0.0-32.0-0.0,voc_e2,12269,"[{""event"":""fullscreenenter"",""trial"":1,""time"":3422},{""event"":""fullscreenexit"",""trial"":10,""time"":93911}]",NA,NA,NA,NA,NA,6,#1CD855,#FA92F8,10,0,1,38,1,263.90000000596046,37,1,441.199999988079,10,1,experiment,NA,NA,0,0.9,0.1,0,1,24,1,NA
fcp-trial,64,526192,0.0-33.0-0.0,voc_e2,12269,"[{""event"":""fullscreenenter"",""trial"":1,""time"":3422},{""event"":""fullscreenexit"",""trial"":10,""time"":93911}]",NA,NA,NA,NA,NA,3,#D8271C,#741CD8,0,0,1,38,1,831.1999999880791,37,1,404.59999999403954,0,1,experiment,NA,NA,1,0.7,0.3,2,3,25,1,NA
fcp-trial,65,530290,0.0-34.0-0.0,voc_e2,12269,"[{""event"":""fullscreenenter"",""trial"":1,""time"":3422},{""event"":""fullscreenexit"",""trial"":10,""time"":93911}]",NA,NA,NA,NA,NA,6,#D89F1C,#3386FF,10,0,1,40,0,1607.9000000059605,39,0,983.9000000059604,0,0,experiment,NA,NA,2,0.5,0.5,4,5,26,1,NA
fcp-trial,66,532625,0.0-35.0-0.0,voc_e2,12269,"[{""event"":""fullscreenenter"",""trial"":1,""time"":3422},{""event"":""fullscreenexit"",""trial"":10,""time"":93911}]",NA,NA,NA,NA,NA,1,#FA92F8,#1CD855,0,10,0,40,0,236.30000001192093,39,0,592,10,1,experiment,NA,NA,0,0.1,0.9,1,0,27,1,NA
fcp-trial,67,534858,0.0-36.0-0.0,voc_e2,12269,"[{""event"":""fullscreenenter"",""trial"":1,""time"":3422},{""event"":""fullscreenexit"",""trial"":10,""time"":93911}]",NA,NA,NA,NA,NA,6,#741CD8,#D8271C,0,0,0,40,0,159.5,39,0,566.5,0,1,experiment,NA,NA,1,0.3,0.7,3,2,28,1,NA
fcp-trial,68,537322,0.0-37.0-0.0,voc_e2,12269,"[{""event"":""fullscreenenter"",""trial"":1,""time"":3422},{""event"":""fullscreenexit"",""trial"":10,""time"":93911}]",NA,NA,NA,NA,NA,0,#D8271C,#741CD8,0,0,1,40,0,604.4000000059605,39,0,354.59999999403954,0,0,experiment,NA,NA,1,0.7,0.3,2,3,29,1,NA
fcp-trial,69,541183,0.0-38.0-0.0,voc_e2,12269,"[{""event"":""fullscreenenter"",""trial"":1,""time"":3422},{""event"":""fullscreenexit"",""trial"":10,""time"":93911}]",NA,NA,NA,NA,NA,4,#FA92F8,#1CD855,0,0,0,40,0,311,37,1,2043.300000011921,0,0,experiment,NA,NA,0,0.1,0.9,1,0,30,1,NA
fcp-trial,70,543844,0.0-39.0-0.0,voc_e2,12269,"[{""event"":""fullscreenenter"",""trial"":1,""time"":3422},{""event"":""fullscreenexit"",""trial"":10,""time"":93911}]",NA,NA,NA,NA,NA,4,#D89F1C,#3386FF,0,10,1,40,0,477,39,0,674.7000000178814,10,0,experiment,NA,NA,2,0.5,0.5,4,5,31,1,NA
fcp-trial,71,547983,0.0-40.0-0.0,voc_e2,12269,"[{""event"":""fullscreenenter"",""trial"":1,""time"":3422},{""event"":""fullscreenexit"",""trial"":10,""time"":93911}]",NA,NA,NA,NA,NA,4,#D8271C,#741CD8,10,0,1,40,0,741.1999999880791,37,1,1892.5,10,1,experiment,NA,NA,1,0.7,0.3,2,3,32,1,NA
fcp-trial,72,550249,0.0-41.0-0.0,voc_e2,12269,"[{""event"":""fullscreenenter"",""trial"":1,""time"":3422},{""event"":""fullscreenexit"",""trial"":10,""time"":93911}]",NA,NA,NA,NA,NA,3,#1CD855,#FA92F8,10,0,1,40,0,268.59999999403954,39,0,489.09999999403954,0,0,experiment,NA,NA,0,0.9,0.1,0,1,33,1,NA
fcp-trial,73,553612,0.0-42.0-0.0,voc_e2,12269,"[{""event"":""fullscreenenter"",""trial"":1,""time"":3422},{""event"":""fullscreenexit"",""trial"":10,""time"":93911}]",NA,NA,NA,NA,NA,3,#3386FF,#D89F1C,0,0,0,40,0,118.2999999821186,39,0,1735.5999999940395,0,1,experiment,NA,NA,2,0.5,0.5,5,4,34,1,NA
fcp-trial,74,557114,0.0-43.0-0.0,voc_e2,12269,"[{""event"":""fullscreenenter"",""trial"":1,""time"":3422},{""event"":""fullscreenexit"",""trial"":10,""time"":93911}]",NA,NA,NA,NA,NA,1,#D8271C,#741CD8,10,0,1,40,0,1508.2999999821186,39,0,486.90000000596046,0,0,experiment,NA,NA,1,0.7,0.3,2,3,35,1,NA
fcp-trial,75,559811,0.0-44.0-0.0,voc_e2,12269,"[{""event"":""fullscreenenter"",""trial"":1,""time"":3422},{""event"":""fullscreenexit"",""trial"":10,""time"":93911}]",NA,NA,NA,NA,NA,2,#1CD855,#FA92F8,0,0,1,40,0,774.5999999940395,39,0,414.7000000178814,0,0,experiment,NA,NA,0,0.9,0.1,0,1,36,1,NA
fcp-trial,76,563384,0.0-45.0-0.0,voc_e2,12269,"[{""event"":""fullscreenenter"",""trial"":1,""time"":3422},{""event"":""fullscreenexit"",""trial"":10,""time"":93911}]",NA,NA,NA,NA,NA,2,#D89F1C,#3386FF,0,0,1,40,0,2.800000011920929,37,1,2062.9000000059605,0,1,experiment,NA,NA,2,0.5,0.5,4,5,37,1,NA
fcp-trial,77,565649,0.0-46.0-0.0,voc_e2,12269,"[{""event"":""fullscreenenter"",""trial"":1,""time"":3422},{""event"":""fullscreenexit"",""trial"":10,""time"":93911}]",NA,NA,NA,NA,NA,2,#741CD8,#D8271C,0,10,0,40,0,255.59999999403954,37,1,501.89999997615814,0,0,experiment,NA,NA,1,0.3,0.7,3,2,38,1,NA
fcp-trial,78,568828,0.0-47.0-0.0,voc_e2,12269,"[{""event"":""fullscreenenter"",""trial"":1,""time"":3422},{""event"":""fullscreenexit"",""trial"":10,""time"":93911}]",NA,NA,NA,NA,NA,0,#3386FF,#D89F1C,0,10,0,40,0,1076.9000000059605,37,1,594.7999999821186,0,0,experiment,NA,NA,2,0.5,0.5,5,4,39,1,NA
fcp-trial,79,571440,0.0-48.0-0.0,voc_e2,12269,"[{""event"":""fullscreenenter"",""trial"":1,""time"":3422},{""event"":""fullscreenexit"",""trial"":10,""time"":93911}]",NA,NA,NA,NA,NA,0,#FA92F8,#1CD855,0,10,0,40,0,630.2000000178814,37,1,474.300000011921,0,0,experiment,NA,NA,0,0.1,0.9,1,0,40,1,NA
fcp-trial,80,574136,0.0-49.0-0.0,voc_e2,12269,"[{""event"":""fullscreenenter"",""trial"":1,""time"":3422},{""event"":""fullscreenexit"",""trial"":10,""time"":93911}]",NA,NA,NA,NA,NA,5,#3386FF,#D89F1C,0,0,0,40,0,101.40000000596046,39,0,1086.199999988079,0,1,experiment,NA,NA,2,0.5,0.5,5,4,41,1,NA
fcp-trial,81,577733,0.0-50.0-0.0,voc_e2,12269,"[{""event"":""fullscreenenter"",""trial"":1,""time"":3422},{""event"":""fullscreenexit"",""trial"":10,""time"":93911}]",NA,NA,NA,NA,NA,5,#1CD855,#FA92F8,10,0,1,40,0,182.5,37,1,1906.5,10,1,experiment,NA,NA,0,0.9,0.1,0,1,42,1,NA
fcp-trial,82,580824,0.0-51.0-0.0,voc_e2,12269,"[{""event"":""fullscreenenter"",""trial"":1,""time"":3422},{""event"":""fullscreenexit"",""trial"":10,""time"":93911}]",NA,NA,NA,NA,NA,5,#FA92F8,#1CD855,0,0,0,40,0,1098.300000011921,37,1,486.5,0,0,experiment,NA,NA,0,0.1,0.9,1,0,43,1,NA
fcp-trial,83,583577,0.0-52.0-0.0,voc_e2,12269,"[{""event"":""fullscreenenter"",""trial"":1,""time"":3422},{""event"":""fullscreenexit"",""trial"":10,""time"":93911}]",NA,NA,NA,NA,NA,6,#D89F1C,#3386FF,0,10,1,40,0,214.09999999403954,39,0,1029.699999988079,10,0,experiment,NA,NA,2,0.5,0.5,4,5,44,1,NA
fcp-trial,84,586248,0.0-53.0-0.0,voc_e2,12269,"[{""event"":""fullscreenenter"",""trial"":1,""time"":3422},{""event"":""fullscreenexit"",""trial"":10,""time"":93911}]",NA,NA,NA,NA,NA,2,#1CD855,#FA92F8,10,0,1,40,0,230.40000000596046,37,1,933.5999999940396,10,1,experiment,NA,NA,0,0.9,0.1,0,1,45,1,NA
fcp-trial,85,588770,0.0-54.0-0.0,voc_e2,12269,"[{""event"":""fullscreenenter"",""trial"":1,""time"":3422},{""event"":""fullscreenexit"",""trial"":10,""time"":93911}]",NA,NA,NA,NA,NA,1,#FA92F8,#1CD855,0,10,0,40,0,288.2999999821186,39,0,727.9000000059605,10,1,experiment,NA,NA,0,0.1,0.9,1,0,46,2,NA
fcp-trial,86,591270,0.0-55.0-0.0,voc_e2,12269,"[{""event"":""fullscreenenter"",""trial"":1,""time"":3422},{""event"":""fullscreenexit"",""trial"":10,""time"":93911}]",NA,NA,NA,NA,NA,5,#741CD8,#D8271C,10,10,0,40,0,396.90000000596046,37,1,594.8000000119209,10,0,experiment,NA,NA,1,0.3,0.7,3,2,47,2,NA
fcp-trial,87,594129,0.0-56.0-0.0,voc_e2,12269,"[{""event"":""fullscreenenter"",""trial"":1,""time"":3422},{""event"":""fullscreenexit"",""trial"":10,""time"":93911}]",NA,NA,NA,NA,NA,6,#1CD855,#FA92F8,10,0,1,40,0,545.5,39,0,807.7000000178814,0,0,experiment,NA,NA,0,0.9,0.1,0,1,48,2,NA
fcp-trial,88,596300,0.0-57.0-0.0,voc_e2,12269,"[{""event"":""fullscreenenter"",""trial"":1,""time"":3422},{""event"":""fullscreenexit"",""trial"":10,""time"":93911}]",NA,NA,NA,NA,NA,1,#D89F1C,#3386FF,10,0,1,40,0,125.69999998807907,39,0,536.5999999940395,0,0,experiment,NA,NA,2,0.5,0.5,4,5,49,2,NA
fcp-trial,89,598588,0.0-58.0-0.0,voc_e2,12269,"[{""event"":""fullscreenenter"",""trial"":1,""time"":3422},{""event"":""fullscreenexit"",""trial"":10,""time"":93911}]",NA,NA,NA,NA,NA,0,#741CD8,#D8271C,0,10,0,40,0,284.59999999403954,37,1,497.7999999821186,0,0,experiment,NA,NA,1,0.3,0.7,3,2,50,2,NA
fcp-trial,90,601074,0.0-59.0-0.0,voc_e2,12269,"[{""event"":""fullscreenenter"",""trial"":1,""time"":3422},{""event"":""fullscreenexit"",""trial"":10,""time"":93911}]",NA,NA,NA,NA,NA,2,#3386FF,#D89F1C,10,0,0,40,0,309.7999999821186,39,0,669.4000000059605,0,1,experiment,NA,NA,2,0.5,0.5,5,4,51,2,NA
fcp-trial,91,603409,0.0-60.0-0.0,voc_e2,12269,"[{""event"":""fullscreenenter"",""trial"":1,""time"":3422},{""event"":""fullscreenexit"",""trial"":10,""time"":93911}]",NA,NA,NA,NA,NA,0,#D89F1C,#3386FF,0,10,1,40,0,358,37,1,469.59999999403954,0,1,experiment,NA,NA,2,0.5,0.5,4,5,52,2,NA
fcp-trial,92,606146,0.0-61.0-0.0,voc_e2,12269,"[{""event"":""fullscreenenter"",""trial"":1,""time"":3422},{""event"":""fullscreenexit"",""trial"":10,""time"":93911}]",NA,NA,NA,NA,NA,0,#1CD855,#FA92F8,10,0,1,40,0,215.89999997615814,37,1,1014.3000000119208,10,1,experiment,NA,NA,0,0.9,0.1,0,1,53,2,NA
fcp-trial,93,608673,0.0-62.0-0.0,voc_e2,12269,"[{""event"":""fullscreenenter"",""trial"":1,""time"":3422},{""event"":""fullscreenexit"",""trial"":10,""time"":93911}]",NA,NA,NA,NA,NA,2,#741CD8,#D8271C,0,0,0,40,0,509,37,1,509,0,0,experiment,NA,NA,1,0.3,0.7,3,2,54,2,NA
fcp-trial,94,610993,0.0-63.0-0.0,voc_e2,12269,"[{""event"":""fullscreenenter"",""trial"":1,""time"":3422},{""event"":""fullscreenexit"",""trial"":10,""time"":93911}]",NA,NA,NA,NA,NA,4,#3386FF,#D89F1C,10,10,0,40,0,136,37,1,678.8000000119209,10,0,experiment,NA,NA,2,0.5,0.5,5,4,55,2,NA
fcp-trial,95,613637,0.0-64.0-0.0,voc_e2,12269,"[{""event"":""fullscreenenter"",""trial"":1,""time"":3422},{""event"":""fullscreenexit"",""trial"":10,""time"":93911}]",NA,NA,NA,NA,NA,6,#D8271C,#741CD8,10,0,1,40,0,326.10000002384186,39,0,811.0999999940395,0,0,experiment,NA,NA,1,0.7,0.3,2,3,56,2,NA
fcp-trial,96,615974,0.0-65.0-0.0,voc_e2,12269,"[{""event"":""fullscreenenter"",""trial"":1,""time"":3422},{""event"":""fullscreenexit"",""trial"":10,""time"":93911}]",NA,NA,NA,NA,NA,3,#D89F1C,#3386FF,10,10,1,40,0,340.7999999821186,39,0,491.199999988079,10,0,experiment,NA,NA,2,0.5,0.5,4,5,57,2,NA
fcp-trial,97,619177,0.0-66.0-0.0,voc_e2,12269,"[{""event"":""fullscreenenter"",""trial"":1,""time"":3422},{""event"":""fullscreenexit"",""trial"":10,""time"":93911}]",NA,NA,NA,NA,NA,4,#FA92F8,#1CD855,0,10,0,40,0,1137.5,39,0,558.7999999821186,10,1,experiment,NA,NA,0,0.1,0.9,1,0,58,2,NA
fcp-trial,98,621362,0.0-67.0-0.0,voc_e2,12269,"[{""event"":""fullscreenenter"",""trial"":1,""time"":3422},{""event"":""fullscreenexit"",""trial"":10,""time"":93911}]",NA,NA,NA,NA,NA,5,#3386FF,#D89F1C,10,0,0,40,0,184.39999997615814,39,0,494,0,1,experiment,NA,NA,2,0.5,0.5,5,4,59,2,NA
fcp-trial,99,623788,0.0-68.0-0.0,voc_e2,12269,"[{""event"":""fullscreenenter"",""trial"":1,""time"":3422},{""event"":""fullscreenexit"",""trial"":10,""time"":93911}]",NA,NA,NA,NA,NA,1,#741CD8,#D8271C,0,0,0,40,0,109.7000000178814,37,1,810.9000000059605,0,0,experiment,NA,NA,1,0.3,0.7,3,2,60,2,NA
fcp-trial,100,626511,0.0-69.0-0.0,voc_e2,12269,"[{""event"":""fullscreenenter"",""trial"":1,""time"":3422},{""event"":""fullscreenexit"",""trial"":10,""time"":93911}]",NA,NA,NA,NA,NA,3,#FA92F8,#1CD855,0,10,0,40,0,773.3000000119209,37,1,442.09999999403954,0,0,experiment,NA,NA,0,0.1,0.9,1,0,61,2,NA
fcp-trial,101,628876,0.0-70.0-0.0,voc_e2,12269,"[{""event"":""fullscreenenter"",""trial"":1,""time"":3422},{""event"":""fullscreenexit"",""trial"":10,""time"":93911}]",NA,NA,NA,NA,NA,4,#D8271C,#741CD8,10,0,1,40,0,161.2000000178814,39,0,698.2000000178814,0,0,experiment,NA,NA,1,0.7,0.3,2,3,62,2,NA
fcp-trial,102,631313,0.0-71.0-0.0,voc_e2,12269,"[{""event"":""fullscreenenter"",""trial"":1,""time"":3422},{""event"":""fullscreenexit"",""trial"":10,""time"":93911}]",NA,NA,NA,NA,NA,3,#D8271C,#741CD8,10,0,1,40,0,19.700000017881393,37,1,911.2999999821186,10,1,experiment,NA,NA,1,0.7,0.3,2,3,63,2,NA
fcp-trial,103,634186,0.0-72.0-0.0,voc_e2,12269,"[{""event"":""fullscreenenter"",""trial"":1,""time"":3422},{""event"":""fullscreenexit"",""trial"":10,""time"":93911}]",NA,NA,NA,NA,NA,4,#1CD855,#FA92F8,10,0,1,40,0,575.7999999821186,39,0,792.2999999821186,0,0,experiment,NA,NA,0,0.9,0.1,0,1,64,2,NA
fcp-trial,104,637147,0.0-73.0-0.0,voc_e2,12269,"[{""event"":""fullscreenenter"",""trial"":1,""time"":3422},{""event"":""fullscreenexit"",""trial"":10,""time"":93911}]",NA,NA,NA,NA,NA,1,#741CD8,#D8271C,10,10,0,40,0,769.1999999880791,39,0,685.6000000238419,10,1,experiment,NA,NA,1,0.3,0.7,3,2,65,2,NA
fcp-trial,105,639586,0.0-74.0-0.0,voc_e2,12269,"[{""event"":""fullscreenenter"",""trial"":1,""time"":3422},{""event"":""fullscreenexit"",""trial"":10,""time"":93911}]",NA,NA,NA,NA,NA,2,#D8271C,#741CD8,10,10,1,40,0,505,39,0,428.40000000596046,10,0,experiment,NA,NA,1,0.7,0.3,2,3,66,2,NA
fcp-trial,106,643930,0.0-75.0-0.0,voc_e2,12269,"[{""event"":""fullscreenenter"",""trial"":1,""time"":3422},{""event"":""fullscreenexit"",""trial"":10,""time"":93911}]",NA,NA,NA,NA,NA,0,#D89F1C,#3386FF,0,10,1,40,0,1083.9000000059605,37,1,1751.0999999940395,0,1,experiment,NA,NA,2,0.5,0.5,4,5,67,2,NA
fcp-trial,107,646882,0.0-76.0-0.0,voc_e2,12269,"[{""event"":""fullscreenenter"",""trial"":1,""time"":3422},{""event"":""fullscreenexit"",""trial"":10,""time"":93911}]",NA,NA,NA,NA,NA,5,#FA92F8,#1CD855,0,10,0,40,0,143.09999999403954,37,1,1301.699999988079,0,0,experiment,NA,NA,0,0.1,0.9,1,0,68,2,NA
fcp-trial,108,649309,0.0-77.0-0.0,voc_e2,12269,"[{""event"":""fullscreenenter"",""trial"":1,""time"":3422},{""event"":""fullscreenexit"",""trial"":10,""time"":93911}]",NA,NA,NA,NA,NA,3,#1CD855,#FA92F8,10,0,1,40,0,88.19999998807907,39,0,832.9000000059605,0,0,experiment,NA,NA,0,0.9,0.1,0,1,69,2,NA
fcp-trial,109,651814,0.0-78.0-0.0,voc_e2,12269,"[{""event"":""fullscreenenter"",""trial"":1,""time"":3422},{""event"":""fullscreenexit"",""trial"":10,""time"":93911}]",NA,NA,NA,NA,NA,0,#D8271C,#741CD8,10,0,1,40,0,46.19999998807907,39,0,949.5,0,0,experiment,NA,NA,1,0.7,0.3,2,3,70,2,NA
fcp-trial,110,655019,0.0-79.0-0.0,voc_e2,12269,"[{""event"":""fullscreenenter"",""trial"":1,""time"":3422},{""event"":""fullscreenexit"",""trial"":10,""time"":93911}]",NA,NA,NA,NA,NA,3,#3386FF,#D89F1C,10,0,0,40,0,604.7000000178814,37,1,1094,10,0,experiment,NA,NA,2,0.5,0.5,5,4,71,2,NA
fcp-trial,111,657300,0.0-80.0-0.0,voc_e2,12269,"[{""event"":""fullscreenenter"",""trial"":1,""time"":3422},{""event"":""fullscreenexit"",""trial"":10,""time"":93911}]",NA,NA,NA,NA,NA,1,#1CD855,#FA92F8,0,0,1,40,0,126.30000001192093,39,0,648.5999999940395,0,0,experiment,NA,NA,0,0.9,0.1,0,1,72,2,NA
fcp-trial,112,659262,0.0-81.0-0.0,voc_e2,12269,"[{""event"":""fullscreenenter"",""trial"":1,""time"":3422},{""event"":""fullscreenexit"",""trial"":10,""time"":93911}]",NA,NA,NA,NA,NA,2,#D89F1C,#3386FF,10,0,1,40,0,55.20000001788139,39,0,398.5,0,0,experiment,NA,NA,2,0.5,0.5,4,5,73,2,NA
fcp-trial,113,661846,0.0-82.0-0.0,voc_e2,12269,"[{""event"":""fullscreenenter"",""trial"":1,""time"":3422},{""event"":""fullscreenexit"",""trial"":10,""time"":93911}]",NA,NA,NA,NA,NA,3,#741CD8,#D8271C,0,0,0,40,0,332.09999999403954,37,1,745.7999999821186,0,0,experiment,NA,NA,1,0.3,0.7,3,2,74,2,NA
fcp-trial,114,663984,0.0-83.0-0.0,voc_e2,12269,"[{""event"":""fullscreenenter"",""trial"":1,""time"":3422},{""event"":""fullscreenexit"",""trial"":10,""time"":93911}]",NA,NA,NA,NA,NA,6,#FA92F8,#1CD855,0,10,0,40,0,84,37,1,547,0,0,experiment,NA,NA,0,0.1,0.9,1,0,75,2,NA
fcp-trial,115,667074,0.0-84.0-0.0,voc_e2,12269,"[{""event"":""fullscreenenter"",""trial"":1,""time"":3422},{""event"":""fullscreenexit"",""trial"":10,""time"":93911}]",NA,NA,NA,NA,NA,6,#741CD8,#D8271C,0,0,0,40,0,477.09999999403954,39,0,1107.300000011921,0,1,experiment,NA,NA,1,0.3,0.7,3,2,76,2,NA
fcp-trial,116,669716,0.0-85.0-0.0,voc_e2,12269,"[{""event"":""fullscreenenter"",""trial"":1,""time"":3422},{""event"":""fullscreenexit"",""trial"":10,""time"":93911}]",NA,NA,NA,NA,NA,1,#3386FF,#D89F1C,10,0,0,40,0,317.19999998807907,37,1,815.2000000178814,10,0,experiment,NA,NA,2,0.5,0.5,5,4,77,2,NA
fcp-trial,117,672204,0.0-86.0-0.0,voc_e2,12269,"[{""event"":""fullscreenenter"",""trial"":1,""time"":3422},{""event"":""fullscreenexit"",""trial"":10,""time"":93911}]",NA,NA,NA,NA,NA,5,#D89F1C,#3386FF,0,10,1,40,0,303.2000000178814,39,0,678,10,0,experiment,NA,NA,2,0.5,0.5,4,5,78,2,NA
fcp-trial,118,675059,0.0-87.0-0.0,voc_e2,12269,"[{""event"":""fullscreenenter"",""trial"":1,""time"":3422},{""event"":""fullscreenexit"",""trial"":10,""time"":93911}]",NA,NA,NA,NA,NA,2,#1CD855,#FA92F8,10,0,1,40,0,534.5,39,0,814.6999999880791,0,0,experiment,NA,NA,0,0.9,0.1,0,1,79,2,NA
fcp-trial,119,677686,0.0-88.0-0.0,voc_e2,12269,"[{""event"":""fullscreenenter"",""trial"":1,""time"":3422},{""event"":""fullscreenexit"",""trial"":10,""time"":93911}]",NA,NA,NA,NA,NA,6,#D89F1C,#3386FF,10,0,1,40,0,453,39,0,665.4000000059605,0,0,experiment,NA,NA,2,0.5,0.5,4,5,80,2,NA
fcp-trial,120,681702,0.0-89.0-0.0,voc_e2,12269,"[{""event"":""fullscreenenter"",""trial"":1,""time"":3422},{""event"":""fullscreenexit"",""trial"":10,""time"":93911}]",NA,NA,NA,NA,NA,5,#741CD8,#D8271C,0,10,0,40,0,326.30000001192093,37,1,2184,0,0,experiment,NA,NA,1,0.3,0.7,3,2,81,2,NA
fcp-trial,121,683956,0.0-90.0-0.0,voc_e2,12269,"[{""event"":""fullscreenenter"",""trial"":1,""time"":3422},{""event"":""fullscreenexit"",""trial"":10,""time"":93911}]",NA,NA,NA,NA,NA,4,#D89F1C,#3386FF,10,10,1,40,0,142.10000002384186,37,1,605.3000000119209,10,1,experiment,NA,NA,2,0.5,0.5,4,5,82,2,NA
fcp-trial,122,686491,0.0-91.0-0.0,voc_e2,12269,"[{""event"":""fullscreenenter"",""trial"":1,""time"":3422},{""event"":""fullscreenexit"",""trial"":10,""time"":93911}]",NA,NA,NA,NA,NA,0,#1CD855,#FA92F8,10,10,1,40,0,358.89999997615814,37,1,670,10,1,experiment,NA,NA,0,0.9,0.1,0,1,83,2,NA
fcp-trial,123,689702,0.0-92.0-0.0,voc_e2,12269,"[{""event"":""fullscreenenter"",""trial"":1,""time"":3422},{""event"":""fullscreenexit"",""trial"":10,""time"":93911}]",NA,NA,NA,NA,NA,4,#741CD8,#D8271C,0,10,0,40,0,1048.5999999940395,39,0,656.2999999821186,10,1,experiment,NA,NA,1,0.3,0.7,3,2,84,2,NA
fcp-trial,124,692227,0.0-93.0-0.0,voc_e2,12269,"[{""event"":""fullscreenenter"",""trial"":1,""time"":3422},{""event"":""fullscreenexit"",""trial"":10,""time"":93911}]",NA,NA,NA,NA,NA,2,#D89F1C,#3386FF,0,0,1,40,0,310.7999999821186,39,0,707.8999999761581,0,0,experiment,NA,NA,2,0.5,0.5,4,5,85,2,NA
fcp-trial,125,695256,0.0-94.0-0.0,voc_e2,12269,"[{""event"":""fullscreenenter"",""trial"":1,""time"":3422},{""event"":""fullscreenexit"",""trial"":10,""time"":93911}]",NA,NA,NA,NA,NA,4,#741CD8,#D8271C,10,10,0,40,0,846.2999999821186,39,0,674.5999999940395,10,1,experiment,NA,NA,1,0.3,0.7,3,2,86,2,NA
fcp-trial,126,697806,0.0-95.0-0.0,voc_e2,12269,"[{""event"":""fullscreenenter"",""trial"":1,""time"":3422},{""event"":""fullscreenexit"",""trial"":10,""time"":93911}]",NA,NA,NA,NA,NA,3,#D89F1C,#3386FF,10,0,1,40,0,541.7000000178814,39,0,503.7000000178814,0,0,experiment,NA,NA,2,0.5,0.5,4,5,87,2,NA
fcp-trial,127,700903,0.0-96.0-0.0,voc_e2,12269,"[{""event"":""fullscreenenter"",""trial"":1,""time"":3422},{""event"":""fullscreenexit"",""trial"":10,""time"":93911}]",NA,NA,NA,NA,NA,0,#FA92F8,#1CD855,0,10,0,40,0,821,37,1,769.4000000059605,0,0,experiment,NA,NA,0,0.1,0.9,1,0,88,2,NA
fcp-trial,128,703380,0.0-97.0-0.0,voc_e2,12269,"[{""event"":""fullscreenenter"",""trial"":1,""time"":3422},{""event"":""fullscreenexit"",""trial"":10,""time"":93911}]",NA,NA,NA,NA,NA,4,#FA92F8,#1CD855,10,10,0,40,0,323.89999997615814,39,0,646.6999999880791,10,1,experiment,NA,NA,0,0.1,0.9,1,0,89,2,NA
fcp-trial,129,706608,0.0-98.0-0.0,voc_e2,12269,"[{""event"":""fullscreenenter"",""trial"":1,""time"":3422},{""event"":""fullscreenexit"",""trial"":10,""time"":93911}]",NA,NA,NA,NA,NA,2,#D8271C,#741CD8,10,0,1,40,0,1085.199999988079,39,0,633.6999999880791,0,0,experiment,NA,NA,1,0.7,0.3,2,3,90,2,NA
fcp-trial,130,709209,0.0-99.0-0.0,voc_e2,12269,"[{""event"":""fullscreenenter"",""trial"":1,""time"":3422},{""event"":""fullscreenexit"",""trial"":10,""time"":93911}]",NA,NA,NA,NA,NA,6,#D89F1C,#3386FF,10,10,1,40,0,577.8999999761581,39,0,516.3999999761581,10,0,experiment,NA,NA,2,0.5,0.5,4,5,91,3,NA
fcp-trial,131,713542,0.0-100.0-0.0,voc_e2,12269,"[{""event"":""fullscreenenter"",""trial"":1,""time"":3422},{""event"":""fullscreenexit"",""trial"":10,""time"":93911}]",NA,NA,NA,NA,NA,5,#D8271C,#741CD8,10,0,1,40,0,1419.3999999761581,37,1,1408.0999999940395,10,1,experiment,NA,NA,1,0.7,0.3,2,3,92,3,NA
fcp-trial,132,715949,0.0-101.0-0.0,voc_e2,12269,"[{""event"":""fullscreenenter"",""trial"":1,""time"":3422},{""event"":""fullscreenexit"",""trial"":10,""time"":93911}]",NA,NA,NA,NA,NA,2,#1CD855,#FA92F8,10,0,1,40,0,53.5,37,1,846.7000000178814,10,1,experiment,NA,NA,0,0.9,0.1,0,1,93,3,NA
fcp-trial,133,718469,0.0-102.0-0.0,voc_e2,12269,"[{""event"":""fullscreenenter"",""trial"":1,""time"":3422},{""event"":""fullscreenexit"",""trial"":10,""time"":93911}]",NA,NA,NA,NA,NA,0,#741CD8,#D8271C,0,10,0,40,0,118.59999999403954,39,0,893.8000000119209,10,1,experiment,NA,NA,1,0.3,0.7,3,2,94,3,NA
fcp-trial,134,720917,0.0-103.0-0.0,voc_e2,12269,"[{""event"":""fullscreenenter"",""trial"":1,""time"":3422},{""event"":""fullscreenexit"",""trial"":10,""time"":93911}]",NA,NA,NA,NA,NA,1,#1CD855,#FA92F8,10,0,1,40,0,166.09999999403954,37,1,773.5,10,1,experiment,NA,NA,0,0.9,0.1,0,1,95,3,NA
fcp-trial,135,723129,0.0-104.0-0.0,voc_e2,12269,"[{""event"":""fullscreenenter"",""trial"":1,""time"":3422},{""event"":""fullscreenexit"",""trial"":10,""time"":93911}]",NA,NA,NA,NA,NA,1,#D89F1C,#3386FF,0,10,1,40,0,166.5,37,1,537.5,0,1,experiment,NA,NA,2,0.5,0.5,4,5,96,3,NA
fcp-trial,136,725497,0.0-105.0-0.0,voc_e2,12269,"[{""event"":""fullscreenenter"",""trial"":1,""time"":3422},{""event"":""fullscreenexit"",""trial"":10,""time"":93911}]",NA,NA,NA,NA,NA,0,#3386FF,#D89F1C,10,10,0,40,0,409.69999998807907,37,1,450.09999999403954,10,0,experiment,NA,NA,2,0.5,0.5,5,4,97,3,NA
fcp-trial,137,727959,0.0-106.0-0.0,voc_e2,12269,"[{""event"":""fullscreenenter"",""trial"":1,""time"":3422},{""event"":""fullscreenexit"",""trial"":10,""time"":93911}]",NA,NA,NA,NA,NA,3,#741CD8,#D8271C,0,10,0,40,0,236,39,0,721.2000000178814,10,1,experiment,NA,NA,1,0.3,0.7,3,2,98,3,NA
fcp-trial,138,730349,0.0-107.0-0.0,voc_e2,12269,"[{""event"":""fullscreenenter"",""trial"":1,""time"":3422},{""event"":""fullscreenexit"",""trial"":10,""time"":93911}]",NA,NA,NA,NA,NA,3,#FA92F8,#1CD855,0,10,0,40,0,63.400000005960464,39,0,820.3000000119209,10,1,experiment,NA,NA,0,0.1,0.9,1,0,99,3,NA
fcp-trial,139,732576,0.0-108.0-0.0,voc_e2,12269,"[{""event"":""fullscreenenter"",""trial"":1,""time"":3422},{""event"":""fullscreenexit"",""trial"":10,""time"":93911}]",NA,NA,NA,NA,NA,4,#D89F1C,#3386FF,10,0,1,40,0,174.90000000596046,39,0,545.8000000119209,0,0,experiment,NA,NA,2,0.5,0.5,4,5,100,3,NA
fcp-trial,140,735133,0.0-109.0-0.0,voc_e2,12269,"[{""event"":""fullscreenenter"",""trial"":1,""time"":3422},{""event"":""fullscreenexit"",""trial"":10,""time"":93911}]",NA,NA,NA,NA,NA,1,#741CD8,#D8271C,0,10,0,40,0,172.7000000178814,37,1,878.0999999940395,0,0,experiment,NA,NA,1,0.3,0.7,3,2,101,3,NA
fcp-trial,141,737345,0.0-110.0-0.0,voc_e2,12269,"[{""event"":""fullscreenenter"",""trial"":1,""time"":3422},{""event"":""fullscreenexit"",""trial"":10,""time"":93911}]",NA,NA,NA,NA,NA,6,#D8271C,#741CD8,0,10,1,40,0,183.09999999403954,39,0,521.9000000059605,10,0,experiment,NA,NA,1,0.7,0.3,2,3,102,3,NA
fcp-trial,142,739511,0.0-111.0-0.0,voc_e2,12269,"[{""event"":""fullscreenenter"",""trial"":1,""time"":3422},{""event"":""fullscreenexit"",""trial"":10,""time"":93911}]",NA,NA,NA,NA,NA,5,#D89F1C,#3386FF,0,10,1,40,0,147.90000000596046,39,0,512.8000000119209,10,0,experiment,NA,NA,2,0.5,0.5,4,5,103,3,NA
fcp-trial,143,741982,0.0-112.0-0.0,voc_e2,12269,"[{""event"":""fullscreenenter"",""trial"":1,""time"":3422},{""event"":""fullscreenexit"",""trial"":10,""time"":93911}]",NA,NA,NA,NA,NA,6,#FA92F8,#1CD855,0,10,0,40,0,164.90000000596046,39,0,799.6999999880791,10,1,experiment,NA,NA,0,0.1,0.9,1,0,104,3,NA
fcp-trial,144,744533,0.0-113.0-0.0,voc_e2,12269,"[{""event"":""fullscreenenter"",""trial"":1,""time"":3422},{""event"":""fullscreenexit"",""trial"":10,""time"":93911}]",NA,NA,NA,NA,NA,5,#1CD855,#FA92F8,10,0,1,40,0,61.5,39,0,983.4000000059604,0,0,experiment,NA,NA,0,0.9,0.1,0,1,105,3,NA
audio-instructions,145,812420,0.0-114.0,voc_e2,12269,"[{""event"":""fullscreenenter"",""trial"":1,""time"":3422},{""event"":""fullscreenexit"",""trial"":10,""time"":93911}]",NA,63322.5,static/audio/pause.wav,NA,0,NA,NA,NA,NA,NA,NA,NA,NA,NA,NA,NA,NA,NA,NA,NA,NA,NA,NA,NA,NA,NA,NA,NA,NA,NA
fcp-trial,146,815704,0.0-115.0-0.0,voc_e2,12269,"[{""event"":""fullscreenenter"",""trial"":1,""time"":3422},{""event"":""fullscreenexit"",""trial"":10,""time"":93911}]",NA,NA,NA,NA,NA,1,#3386FF,#D89F1C,10,10,0,40,0,922.8999999761581,39,0,856.3999999761581,10,1,experiment,NA,NA,2,0.5,0.5,5,4,106,3,NA
fcp-trial,147,817727,0.0-116.0-0.0,voc_e2,12269,"[{""event"":""fullscreenenter"",""trial"":1,""time"":3422},{""event"":""fullscreenexit"",""trial"":10,""time"":93911}]",NA,NA,NA,NA,NA,5,#741CD8,#D8271C,0,10,0,40,0,5.5999999940395355,39,0,510.199999988079,10,1,experiment,NA,NA,1,0.3,0.7,3,2,107,3,NA
fcp-trial,148,820386,0.0-117.0-0.0,voc_e2,12269,"[{""event"":""fullscreenenter"",""trial"":1,""time"":3422},{""event"":""fullscreenexit"",""trial"":10,""time"":93911}]",NA,NA,NA,NA,NA,0,#FA92F8,#1CD855,0,10,0,40,0,136.60000002384186,37,1,1015.3000000119208,0,0,experiment,NA,NA,0,0.1,0.9,1,0,108,3,NA
fcp-trial,149,822838,0.0-118.0-0.0,voc_e2,12269,"[{""event"":""fullscreenenter"",""trial"":1,""time"":3422},{""event"":""fullscreenexit"",""trial"":10,""time"":93911}]",NA,NA,NA,NA,NA,5,#3386FF,#D89F1C,10,0,0,40,0,76.7000000178814,39,0,867.5,0,1,experiment,NA,NA,2,0.5,0.5,5,4,109,3,NA
fcp-trial,150,825144,0.0-119.0-0.0,voc_e2,12269,"[{""event"":""fullscreenenter"",""trial"":1,""time"":3422},{""event"":""fullscreenexit"",""trial"":10,""time"":93911}]",NA,NA,NA,NA,NA,1,#741CD8,#D8271C,10,10,0,40,0,161.80000001192093,37,1,638.1999999880791,10,0,experiment,NA,NA,1,0.3,0.7,3,2,110,3,NA
fcp-trial,151,827480,0.0-120.0-0.0,voc_e2,12269,"[{""event"":""fullscreenenter"",""trial"":1,""time"":3422},{""event"":""fullscreenexit"",""trial"":10,""time"":93911}]",NA,NA,NA,NA,NA,2,#741CD8,#D8271C,10,10,0,40,0,73.09999999403954,39,0,755.6000000238419,10,1,experiment,NA,NA,1,0.3,0.7,3,2,111,3,NA
fcp-trial,152,829679,0.0-121.0-0.0,voc_e2,12269,"[{""event"":""fullscreenenter"",""trial"":1,""time"":3422},{""event"":""fullscreenexit"",""trial"":10,""time"":93911}]",NA,NA,NA,NA,NA,3,#D8271C,#741CD8,0,10,1,40,0,121.2999999821186,39,0,571.8000000119209,10,0,experiment,NA,NA,1,0.7,0.3,2,3,112,3,NA
fcp-trial,153,831896,0.0-122.0-0.0,voc_e2,12269,"[{""event"":""fullscreenenter"",""trial"":1,""time"":3422},{""event"":""fullscreenexit"",""trial"":10,""time"":93911}]",NA,NA,NA,NA,NA,6,#FA92F8,#1CD855,0,10,0,40,0,72.10000002384186,37,1,639.8000000119209,0,0,experiment,NA,NA,0,0.1,0.9,1,0,113,3,NA
fcp-trial,154,834983,0.0-123.0-0.0,voc_e2,12269,"[{""event"":""fullscreenenter"",""trial"":1,""time"":3422},{""event"":""fullscreenexit"",""trial"":10,""time"":93911}]",NA,NA,NA,NA,NA,6,#D89F1C,#3386FF,10,0,1,40,0,1111.4000000059605,37,1,468.800000011921,10,1,experiment,NA,NA,2,0.5,0.5,4,5,114,3,NA
fcp-trial,155,837122,0.0-124.0-0.0,voc_e2,12269,"[{""event"":""fullscreenenter"",""trial"":1,""time"":3422},{""event"":""fullscreenexit"",""trial"":10,""time"":93911}]",NA,NA,NA,NA,NA,3,#FA92F8,#1CD855,0,10,0,40,0,32.29999998211861,39,0,597.5999999940395,10,1,experiment,NA,NA,0,0.1,0.9,1,0,115,3,NA
fcp-trial,156,839713,0.0-125.0-0.0,voc_e2,12269,"[{""event"":""fullscreenenter"",""trial"":1,""time"":3422},{""event"":""fullscreenexit"",""trial"":10,""time"":93911}]",NA,NA,NA,NA,NA,4,#D8271C,#741CD8,10,10,1,40,0,282.80000001192093,37,1,800.7000000178814,10,1,experiment,NA,NA,1,0.7,0.3,2,3,116,3,NA
fcp-trial,157,841929,0.0-126.0-0.0,voc_e2,12269,"[{""event"":""fullscreenenter"",""trial"":1,""time"":3422},{""event"":""fullscreenexit"",""trial"":10,""time"":93911}]",NA,NA,NA,NA,NA,4,#1CD855,#FA92F8,10,0,1,40,0,62.80000001192093,37,1,648,10,1,experiment,NA,NA,0,0.9,0.1,0,1,117,3,NA
fcp-trial,158,844459,0.0-127.0-0.0,voc_e2,12269,"[{""event"":""fullscreenenter"",""trial"":1,""time"":3422},{""event"":""fullscreenexit"",""trial"":10,""time"":93911}]",NA,NA,NA,NA,NA,2,#D89F1C,#3386FF,0,0,1,40,0,272.19999998807907,37,1,751.4000000059605,0,1,experiment,NA,NA,2,0.5,0.5,4,5,118,3,NA
fcp-trial,159,847234,0.0-128.0-0.0,voc_e2,12269,"[{""event"":""fullscreenenter"",""trial"":1,""time"":3422},{""event"":""fullscreenexit"",""trial"":10,""time"":93911}]",NA,NA,NA,NA,NA,4,#D89F1C,#3386FF,10,0,1,40,0,147.59999999403954,39,0,1119.5999999940395,0,0,experiment,NA,NA,2,0.5,0.5,4,5,119,3,NA
fcp-trial,160,849594,0.0-129.0-0.0,voc_e2,12269,"[{""event"":""fullscreenenter"",""trial"":1,""time"":3422},{""event"":""fullscreenexit"",""trial"":10,""time"":93911}]",NA,NA,NA,NA,NA,6,#D8271C,#741CD8,10,10,1,40,0,20.100000023841858,37,1,832.6000000238419,10,1,experiment,NA,NA,1,0.7,0.3,2,3,120,3,NA
fcp-trial,161,852136,0.0-130.0-0.0,voc_e2,12269,"[{""event"":""fullscreenenter"",""trial"":1,""time"":3422},{""event"":""fullscreenexit"",""trial"":10,""time"":93911}]",NA,NA,NA,NA,NA,1,#FA92F8,#1CD855,10,10,0,40,0,230.69999998807907,39,0,806.1999999880791,10,1,experiment,NA,NA,0,0.1,0.9,1,0,121,3,NA
fcp-trial,162,854401,0.0-131.0-0.0,voc_e2,12269,"[{""event"":""fullscreenenter"",""trial"":1,""time"":3422},{""event"":""fullscreenexit"",""trial"":10,""time"":93911}]",NA,NA,NA,NA,NA,3,#D89F1C,#3386FF,0,10,1,40,0,142.2999999821186,39,0,615.2999999821186,10,0,experiment,NA,NA,2,0.5,0.5,4,5,122,3,NA
fcp-trial,163,856833,0.0-132.0-0.0,voc_e2,12269,"[{""event"":""fullscreenenter"",""trial"":1,""time"":3422},{""event"":""fullscreenexit"",""trial"":10,""time"":93911}]",NA,NA,NA,NA,NA,5,#1CD855,#FA92F8,0,0,1,40,0,461.90000000596046,39,0,463.59999999403954,0,0,experiment,NA,NA,0,0.9,0.1,0,1,123,3,NA
fcp-trial,164,859001,0.0-133.0-0.0,voc_e2,12269,"[{""event"":""fullscreenenter"",""trial"":1,""time"":3422},{""event"":""fullscreenexit"",""trial"":10,""time"":93911}]",NA,NA,NA,NA,NA,0,#741CD8,#D8271C,0,0,0,40,0,151.5,39,0,510.699999988079,0,1,experiment,NA,NA,1,0.3,0.7,3,2,124,3,NA
fcp-trial,165,861769,0.0-134.0-0.0,voc_e2,12269,"[{""event"":""fullscreenenter"",""trial"":1,""time"":3422},{""event"":""fullscreenexit"",""trial"":10,""time"":93911}]",NA,NA,NA,NA,NA,0,#D89F1C,#3386FF,0,0,1,40,0,103.19999998807907,37,1,1158,0,1,experiment,NA,NA,2,0.5,0.5,4,5,125,3,NA
fcp-trial,166,864666,0.0-135.0-0.0,voc_e2,12269,"[{""event"":""fullscreenenter"",""trial"":1,""time"":3422},{""event"":""fullscreenexit"",""trial"":10,""time"":93911}]",NA,NA,NA,NA,NA,2,#1CD855,#FA92F8,10,0,1,40,0,695,39,0,695.1000000238419,0,0,experiment,NA,NA,0,0.9,0.1,0,1,126,3,NA
fcp-trial,167,867570,0.0-136.0-0.0,voc_e2,12269,"[{""event"":""fullscreenenter"",""trial"":1,""time"":3422},{""event"":""fullscreenexit"",""trial"":10,""time"":93911}]",NA,NA,NA,NA,NA,2,#3386FF,#D89F1C,0,10,0,40,0,997.9000000059605,39,0,400.2999999821186,10,1,experiment,NA,NA,2,0.5,0.5,5,4,127,3,NA
fcp-trial,168,870985,0.0-137.0-0.0,voc_e2,12269,"[{""event"":""fullscreenenter"",""trial"":1,""time"":3422},{""event"":""fullscreenexit"",""trial"":10,""time"":93911}]",NA,NA,NA,NA,NA,0,#D8271C,#741CD8,0,10,1,40,0,262.5,39,0,1647.300000011921,10,0,experiment,NA,NA,1,0.7,0.3,2,3,128,3,NA
fcp-trial,169,873785,0.0-138.0-0.0,voc_e2,12269,"[{""event"":""fullscreenenter"",""trial"":1,""time"":3422},{""event"":""fullscreenexit"",""trial"":10,""time"":93911}]",NA,NA,NA,NA,NA,2,#1CD855,#FA92F8,10,0,1,40,0,14.5,39,0,1279,0,0,experiment,NA,NA,0,0.9,0.1,0,1,129,3,NA
fcp-trial,170,876073,0.0-139.0-0.0,voc_e2,12269,"[{""event"":""fullscreenenter"",""trial"":1,""time"":3422},{""event"":""fullscreenexit"",""trial"":10,""time"":93911}]",NA,NA,NA,NA,NA,5,#741CD8,#D8271C,10,10,0,40,0,151.80000001192093,39,0,630.9000000059605,10,1,experiment,NA,NA,1,0.3,0.7,3,2,130,3,NA
fcp-trial,171,878115,0.0-140.0-0.0,voc_e2,12269,"[{""event"":""fullscreenenter"",""trial"":1,""time"":3422},{""event"":""fullscreenexit"",""trial"":10,""time"":93911}]",NA,NA,NA,NA,NA,6,#D89F1C,#3386FF,0,0,1,40,0,24.69999998807907,39,0,511,0,0,experiment,NA,NA,2,0.5,0.5,4,5,131,3,NA
fcp-trial,172,880209,0.0-141.0-0.0,voc_e2,12269,"[{""event"":""fullscreenenter"",""trial"":1,""time"":3422},{""event"":""fullscreenexit"",""trial"":10,""time"":93911}]",NA,NA,NA,NA,NA,6,#FA92F8,#1CD855,0,10,0,40,0,164.90000000596046,39,0,421.5,10,1,experiment,NA,NA,0,0.1,0.9,1,0,132,3,NA
fcp-trial,173,882642,0.0-142.0-0.0,voc_e2,12269,"[{""event"":""fullscreenenter"",""trial"":1,""time"":3422},{""event"":""fullscreenexit"",""trial"":10,""time"":93911}]",NA,NA,NA,NA,NA,1,#741CD8,#D8271C,0,10,0,40,0,2.4000000059604645,37,1,922.8000000119208,0,0,experiment,NA,NA,1,0.3,0.7,3,2,133,3,NA
fcp-trial,174,885274,0.0-143.0-0.0,voc_e2,12269,"[{""event"":""fullscreenenter"",""trial"":1,""time"":3422},{""event"":""fullscreenexit"",""trial"":10,""time"":93911}]",NA,NA,NA,NA,NA,3,#741CD8,#D8271C,0,10,0,40,0,389.09999999403954,39,0,735.2999999821186,10,1,experiment,NA,NA,1,0.3,0.7,3,2,134,3,NA
fcp-trial,175,888194,0.0-144.0-0.0,voc_e2,12269,"[{""event"":""fullscreenenter"",""trial"":1,""time"":3422},{""event"":""fullscreenexit"",""trial"":10,""time"":93911}]",NA,NA,NA,NA,NA,4,#FA92F8,#1CD855,10,10,0,40,0,719.2999999821186,37,1,692.5999999940395,10,0,experiment,NA,NA,0,0.1,0.9,1,0,135,3,NA
fcp-trial,176,890403,0.0-145.0-0.0,voc_e2,12269,"[{""event"":""fullscreenenter"",""trial"":1,""time"":3422},{""event"":""fullscreenexit"",""trial"":10,""time"":93911}]",NA,NA,NA,NA,NA,4,#3386FF,#D89F1C,0,10,0,40,0,94.40000000596046,37,1,608.7999999821186,0,0,experiment,NA,NA,2,0.5,0.5,5,4,136,4,NA
fcp-trial,177,892971,0.0-146.0-0.0,voc_e2,12269,"[{""event"":""fullscreenenter"",""trial"":1,""time"":3422},{""event"":""fullscreenexit"",""trial"":10,""time"":93911}]",NA,NA,NA,NA,NA,1,#D89F1C,#3386FF,0,0,1,40,0,37.79999998211861,39,0,1023.9000000059604,0,0,experiment,NA,NA,2,0.5,0.5,4,5,137,4,NA
fcp-trial,178,895762,0.0-147.0-0.0,voc_e2,12269,"[{""event"":""fullscreenenter"",""trial"":1,""time"":3422},{""event"":""fullscreenexit"",""trial"":10,""time"":93911}]",NA,NA,NA,NA,NA,3,#1CD855,#FA92F8,10,0,1,40,0,53.60000002384186,39,0,1231.0999999940395,0,0,experiment,NA,NA,0,0.9,0.1,0,1,138,4,NA
fcp-trial,179,897925,0.0-148.0-0.0,voc_e2,12269,"[{""event"":""fullscreenenter"",""trial"":1,""time"":3422},{""event"":""fullscreenexit"",""trial"":10,""time"":93911}]",NA,NA,NA,NA,NA,4,#741CD8,#D8271C,0,0,0,40,0,110.59999999403954,39,0,545.1000000238419,0,1,experiment,NA,NA,1,0.3,0.7,3,2,139,4,NA
fcp-trial,180,900513,0.0-149.0-0.0,voc_e2,12269,"[{""event"":""fullscreenenter"",""trial"":1,""time"":3422},{""event"":""fullscreenexit"",""trial"":10,""time"":93911}]",NA,NA,NA,NA,NA,3,#D89F1C,#3386FF,0,10,1,40,0,573.4000000059605,39,0,509.59999999403954,10,0,experiment,NA,NA,2,0.5,0.5,4,5,140,4,NA
fcp-trial,181,902681,0.0-150.0-0.0,voc_e2,12269,"[{""event"":""fullscreenenter"",""trial"":1,""time"":3422},{""event"":""fullscreenexit"",""trial"":10,""time"":93911}]",NA,NA,NA,NA,NA,2,#741CD8,#D8271C,0,10,0,40,0,271.30000001192093,39,0,389.300000011921,10,1,experiment,NA,NA,1,0.3,0.7,3,2,141,4,NA
fcp-trial,182,904930,0.0-151.0-0.0,voc_e2,12269,"[{""event"":""fullscreenenter"",""trial"":1,""time"":3422},{""event"":""fullscreenexit"",""trial"":10,""time"":93911}]",NA,NA,NA,NA,NA,0,#3386FF,#D89F1C,10,0,0,40,0,54.30000001192093,37,1,686.1999999880791,10,0,experiment,NA,NA,2,0.5,0.5,5,4,142,4,NA
fcp-trial,183,907243,0.0-152.0-0.0,voc_e2,12269,"[{""event"":""fullscreenenter"",""trial"":1,""time"":3422},{""event"":""fullscreenexit"",""trial"":10,""time"":93911}]",NA,NA,NA,NA,NA,5,#1CD855,#FA92F8,10,0,1,40,0,46.30000001192093,37,1,760.5,10,1,experiment,NA,NA,0,0.9,0.1,0,1,143,4,NA
fcp-trial,184,909979,0.0-153.0-0.0,voc_e2,12269,"[{""event"":""fullscreenenter"",""trial"":1,""time"":3422},{""event"":""fullscreenexit"",""trial"":10,""time"":93911}]",NA,NA,NA,NA,NA,6,#741CD8,#D8271C,0,0,0,40,0,382,37,1,847.5,0,0,experiment,NA,NA,1,0.3,0.7,3,2,144,4,NA
fcp-trial,185,913644,0.0-154.0-0.0,voc_e2,12269,"[{""event"":""fullscreenenter"",""trial"":1,""time"":3422},{""event"":""fullscreenexit"",""trial"":10,""time"":93911}]",NA,NA,NA,NA,NA,1,#1CD855,#FA92F8,10,0,1,40,0,709.5,39,0,1448.5999999940395,0,0,experiment,NA,NA,0,0.9,0.1,0,1,145,4,NA
fcp-trial,186,915931,0.0-155.0-0.0,voc_e2,12269,"[{""event"":""fullscreenenter"",""trial"":1,""time"":3422},{""event"":""fullscreenexit"",""trial"":10,""time"":93911}]",NA,NA,NA,NA,NA,0,#1CD855,#FA92F8,10,0,1,40,0,224.2000000178814,37,1,556.8000000119209,10,1,experiment,NA,NA,0,0.9,0.1,0,1,146,4,NA
fcp-trial,187,918114,0.0-156.0-0.0,voc_e2,12269,"[{""event"":""fullscreenenter"",""trial"":1,""time"":3422},{""event"":""fullscreenexit"",""trial"":10,""time"":93911}]",NA,NA,NA,NA,NA,5,#3386FF,#D89F1C,0,0,0,40,0,201,37,1,475,0,0,experiment,NA,NA,2,0.5,0.5,5,4,147,4,NA
fcp-trial,188,921012,0.0-157.0-0.0,voc_e2,12269,"[{""event"":""fullscreenenter"",""trial"":1,""time"":3422},{""event"":""fullscreenexit"",""trial"":10,""time"":93911}]",NA,NA,NA,NA,NA,1,#1CD855,#FA92F8,10,0,1,40,0,888.6999999880791,37,1,503.09999999403954,10,1,experiment,NA,NA,0,0.9,0.1,0,1,148,4,NA
fcp-trial,189,923111,0.0-158.0-0.0,voc_e2,12269,"[{""event"":""fullscreenenter"",""trial"":1,""time"":3422},{""event"":""fullscreenexit"",""trial"":10,""time"":93911}]",NA,NA,NA,NA,NA,0,#741CD8,#D8271C,0,10,0,40,0,85.7000000178814,37,1,506.59999999403954,0,0,experiment,NA,NA,1,0.3,0.7,3,2,149,4,NA
fcp-trial,190,925188,0.0-159.0-0.0,voc_e2,12269,"[{""event"":""fullscreenenter"",""trial"":1,""time"":3422},{""event"":""fullscreenexit"",""trial"":10,""time"":93911}]",NA,NA,NA,NA,NA,4,#D89F1C,#3386FF,10,10,1,40,0,61.39999997615814,37,1,510.699999988079,10,1,experiment,NA,NA,2,0.5,0.5,4,5,150,4,NA
fcp-trial,191,927726,0.0-160.0-0.0,voc_e2,12269,"[{""event"":""fullscreenenter"",""trial"":1,""time"":3422},{""event"":""fullscreenexit"",""trial"":10,""time"":93911}]",NA,NA,NA,NA,NA,6,#1CD855,#FA92F8,10,0,1,40,0,131.7999999821186,39,0,898.1000000238419,0,0,experiment,NA,NA,0,0.9,0.1,0,1,151,4,NA
fcp-trial,192,930331,0.0-161.0-0.0,voc_e2,12269,"[{""event"":""fullscreenenter"",""trial"":1,""time"":3422},{""event"":""fullscreenexit"",""trial"":10,""time"":93911}]",NA,NA,NA,NA,NA,2,#3386FF,#D89F1C,10,10,0,40,0,331.09999999403954,37,1,768,10,0,experiment,NA,NA,2,0.5,0.5,5,4,152,4,NA
fcp-trial,193,933500,0.0-162.0-0.0,voc_e2,12269,"[{""event"":""fullscreenenter"",""trial"":1,""time"":3422},{""event"":""fullscreenexit"",""trial"":10,""time"":93911}]",NA,NA,NA,NA,NA,6,#741CD8,#D8271C,0,10,0,40,0,1136.5,37,1,525.9000000059605,0,0,experiment,NA,NA,1,0.3,0.7,3,2,153,4,NA
fcp-trial,194,935462,0.0-163.0-0.0,voc_e2,12269,"[{""event"":""fullscreenenter"",""trial"":1,""time"":3422},{""event"":""fullscreenexit"",""trial"":10,""time"":93911}]",NA,NA,NA,NA,NA,5,#1CD855,#FA92F8,10,0,1,40,0,70.59999999403954,37,1,384.5,10,1,experiment,NA,NA,0,0.9,0.1,0,1,154,4,NA
fcp-trial,195,938603,0.0-164.0-0.0,voc_e2,12269,"[{""event"":""fullscreenenter"",""trial"":1,""time"":3422},{""event"":""fullscreenexit"",""trial"":10,""time"":93911}]",NA,NA,NA,NA,NA,0,#D89F1C,#3386FF,0,0,1,40,0,974.5,37,1,660.9000000059605,0,1,experiment,NA,NA,2,0.5,0.5,4,5,155,4,NA
fcp-trial,196,941231,0.0-165.0-0.0,voc_e2,12269,"[{""event"":""fullscreenenter"",""trial"":1,""time"":3422},{""event"":""fullscreenexit"",""trial"":10,""time"":93911}]",NA,NA,NA,NA,NA,5,#D8271C,#741CD8,0,0,1,40,0,725.0999999940395,37,1,394.59999999403954,0,1,experiment,NA,NA,1,0.7,0.3,2,3,156,4,NA
fcp-trial,197,944012,0.0-166.0-0.0,voc_e2,12269,"[{""event"":""fullscreenenter"",""trial"":1,""time"":3422},{""event"":""fullscreenexit"",""trial"":10,""time"":93911}]",NA,NA,NA,NA,NA,0,#1CD855,#FA92F8,10,0,1,40,0,283.30000001192093,39,0,992.7999999821186,0,0,experiment,NA,NA,0,0.9,0.1,0,1,157,4,NA
fcp-trial,198,947324,0.0-167.0-0.0,voc_e2,12269,"[{""event"":""fullscreenenter"",""trial"":1,""time"":3422},{""event"":""fullscreenexit"",""trial"":10,""time"":93911}]",NA,NA,NA,NA,NA,1,#3386FF,#D89F1C,10,10,0,40,0,446.5,37,1,1357.9000000059605,10,0,experiment,NA,NA,2,0.5,0.5,5,4,158,4,NA
fcp-trial,199,950494,0.0-168.0-0.0,voc_e2,12269,"[{""event"":""fullscreenenter"",""trial"":1,""time"":3422},{""event"":""fullscreenexit"",""trial"":10,""time"":93911}]",NA,NA,NA,NA,NA,4,#741CD8,#D8271C,0,10,0,40,0,403.7999999821186,39,0,1257,10,1,experiment,NA,NA,1,0.3,0.7,3,2,159,4,NA
fcp-trial,200,953450,0.0-169.0-0.0,voc_e2,12269,"[{""event"":""fullscreenenter"",""trial"":1,""time"":3422},{""event"":""fullscreenexit"",""trial"":10,""time"":93911}]",NA,NA,NA,NA,NA,2,#FA92F8,#1CD855,0,10,0,40,0,794.7000000178814,37,1,653.6999999880791,0,0,experiment,NA,NA,0,0.1,0.9,1,0,160,4,NA
fcp-trial,201,957629,0.0-170.0-0.0,voc_e2,12269,"[{""event"":""fullscreenenter"",""trial"":1,""time"":3422},{""event"":""fullscreenexit"",""trial"":10,""time"":93911}]",NA,NA,NA,NA,NA,6,#D89F1C,#3386FF,10,10,1,40,0,360.69999998807907,39,0,2312,10,0,experiment,NA,NA,2,0.5,0.5,4,5,161,4,NA
fcp-trial,202,960675,0.0-171.0-0.0,voc_e2,12269,"[{""event"":""fullscreenenter"",""trial"":1,""time"":3422},{""event"":""fullscreenexit"",""trial"":10,""time"":93911}]",NA,NA,NA,NA,NA,3,#741CD8,#D8271C,10,0,0,40,0,764.3000000119209,39,0,773.5,0,1,experiment,NA,NA,1,0.3,0.7,3,2,162,4,NA
fcp-trial,203,963277,0.0-172.0-0.0,voc_e2,12269,"[{""event"":""fullscreenenter"",""trial"":1,""time"":3422},{""event"":""fullscreenexit"",""trial"":10,""time"":93911}]",NA,NA,NA,NA,NA,5,#3386FF,#D89F1C,0,10,0,40,0,416.30000001192093,39,0,676.5,10,1,experiment,NA,NA,2,0.5,0.5,5,4,163,4,NA
fcp-trial,204,966371,0.0-173.0-0.0,voc_e2,12269,"[{""event"":""fullscreenenter"",""trial"":1,""time"":3422},{""event"":""fullscreenexit"",""trial"":10,""time"":93911}]",NA,NA,NA,NA,NA,3,#3386FF,#D89F1C,0,10,0,40,0,884.9000000059605,37,1,702.2000000178814,0,0,experiment,NA,NA,2,0.5,0.5,5,4,164,4,NA
fcp-trial,205,969292,0.0-174.0-0.0,voc_e2,12269,"[{""event"":""fullscreenenter"",""trial"":1,""time"":3422},{""event"":""fullscreenexit"",""trial"":10,""time"":93911}]",NA,NA,NA,NA,NA,3,#FA92F8,#1CD855,0,10,0,40,0,263.30000001192093,37,1,1151.0999999940395,0,0,experiment,NA,NA,0,0.1,0.9,1,0,165,4,NA
fcp-trial,206,972352,0.0-175.0-0.0,voc_e2,12269,"[{""event"":""fullscreenenter"",""trial"":1,""time"":3422},{""event"":""fullscreenexit"",""trial"":10,""time"":93911}]",NA,NA,NA,NA,NA,4,#1CD855,#FA92F8,10,0,1,40,0,541.9000000059605,39,0,1010.8000000119208,0,0,experiment,NA,NA,0,0.9,0.1,0,1,166,4,NA
fcp-trial,207,974686,0.0-176.0-0.0,voc_e2,12269,"[{""event"":""fullscreenenter"",""trial"":1,""time"":3422},{""event"":""fullscreenexit"",""trial"":10,""time"":93911}]",NA,NA,NA,NA,NA,2,#741CD8,#D8271C,0,10,0,40,0,246.19999998807907,39,0,584,10,1,experiment,NA,NA,1,0.3,0.7,3,2,167,4,NA
fcp-trial,208,978169,0.0-177.0-0.0,voc_e2,12269,"[{""event"":""fullscreenenter"",""trial"":1,""time"":3422},{""event"":""fullscreenexit"",""trial"":10,""time"":93911}]",NA,NA,NA,NA,NA,1,#D8271C,#741CD8,10,0,1,40,0,1414.0999999940395,37,1,563.2000000178814,10,1,experiment,NA,NA,1,0.7,0.3,2,3,168,4,NA
fcp-trial,209,981197,0.0-178.0-0.0,voc_e2,12269,"[{""event"":""fullscreenenter"",""trial"":1,""time"":3422},{""event"":""fullscreenexit"",""trial"":10,""time"":93911}]",NA,NA,NA,NA,NA,0,#D89F1C,#3386FF,0,10,1,40,0,723.4000000059605,39,0,798.0999999940395,10,0,experiment,NA,NA,2,0.5,0.5,4,5,169,4,NA
fcp-trial,210,983859,0.0-179.0-0.0,voc_e2,12269,"[{""event"":""fullscreenenter"",""trial"":1,""time"":3422},{""event"":""fullscreenexit"",""trial"":10,""time"":93911}]",NA,NA,NA,NA,NA,1,#741CD8,#D8271C,0,0,0,40,0,399.39999997615814,37,1,755.8000000119209,0,0,experiment,NA,NA,1,0.3,0.7,3,2,170,4,NA
fcp-trial,211,986103,0.0-180.0-0.0,voc_e2,12269,"[{""event"":""fullscreenenter"",""trial"":1,""time"":3422},{""event"":""fullscreenexit"",""trial"":10,""time"":93911}]",NA,NA,NA,NA,NA,3,#FA92F8,#1CD855,0,10,0,40,0,112.19999998807907,37,1,626.4000000059605,0,0,experiment,NA,NA,0,0.1,0.9,1,0,171,4,NA
fcp-trial,212,988705,0.0-181.0-0.0,voc_e2,12269,"[{""event"":""fullscreenenter"",""trial"":1,""time"":3422},{""event"":""fullscreenexit"",""trial"":10,""time"":93911}]",NA,NA,NA,NA,NA,2,#D89F1C,#3386FF,0,10,1,40,0,180.90000000596046,39,0,915.1999999880792,10,0,experiment,NA,NA,2,0.5,0.5,4,5,172,4,NA
fcp-trial,213,990997,0.0-182.0-0.0,voc_e2,12269,"[{""event"":""fullscreenenter"",""trial"":1,""time"":3422},{""event"":""fullscreenexit"",""trial"":10,""time"":93911}]",NA,NA,NA,NA,NA,0,#1CD855,#FA92F8,0,0,1,40,0,251.2000000178814,39,0,533.3000000119209,0,0,experiment,NA,NA,0,0.9,0.1,0,1,173,4,NA
fcp-trial,214,993590,0.0-183.0-0.0,voc_e2,12269,"[{""event"":""fullscreenenter"",""trial"":1,""time"":3422},{""event"":""fullscreenexit"",""trial"":10,""time"":93911}]",NA,NA,NA,NA,NA,0,#741CD8,#D8271C,0,0,0,40,0,101.5,37,1,984.600000023842,0,0,experiment,NA,NA,1,0.3,0.7,3,2,174,4,NA
fcp-trial,215,996262,0.0-184.0-0.0,voc_e2,12269,"[{""event"":""fullscreenenter"",""trial"":1,""time"":3422},{""event"":""fullscreenexit"",""trial"":10,""time"":93911}]",NA,NA,NA,NA,NA,3,#741CD8,#D8271C,10,0,0,40,0,214.5,39,0,951.4000000059604,0,1,experiment,NA,NA,1,0.3,0.7,3,2,175,4,NA
fcp-trial,216,998672,0.0-185.0-0.0,voc_e2,12269,"[{""event"":""fullscreenenter"",""trial"":1,""time"":3422},{""event"":""fullscreenexit"",""trial"":10,""time"":93911}]",NA,NA,NA,NA,NA,5,#FA92F8,#1CD855,0,10,0,40,0,261.80000001192093,39,0,639.8000000119209,10,1,experiment,NA,NA,0,0.1,0.9,1,0,176,4,NA
fcp-trial,217,1001197,0.0-186.0-0.0,voc_e2,12269,"[{""event"":""fullscreenenter"",""trial"":1,""time"":3422},{""event"":""fullscreenexit"",""trial"":10,""time"":93911}]",NA,NA,NA,NA,NA,4,#3386FF,#D89F1C,0,10,0,40,0,364.69999998807907,39,0,654.0999999940395,10,1,experiment,NA,NA,2,0.5,0.5,5,4,177,4,NA
fcp-trial,218,1003625,0.0-187.0-0.0,voc_e2,12269,"[{""event"":""fullscreenenter"",""trial"":1,""time"":3422},{""event"":""fullscreenexit"",""trial"":10,""time"":93911}]",NA,NA,NA,NA,NA,6,#D8271C,#741CD8,0,0,1,40,0,400.5,39,0,521.5,0,0,experiment,NA,NA,1,0.7,0.3,2,3,178,4,NA
fcp-trial,219,1008711,0.0-188.0-0.0,voc_e2,12269,"[{""event"":""fullscreenenter"",""trial"":1,""time"":3422},{""event"":""fullscreenexit"",""trial"":10,""time"":93911}]",NA,NA,NA,NA,NA,1,#3386FF,#D89F1C,10,0,0,40,0,1244,37,1,2335.600000023842,10,0,experiment,NA,NA,2,0.5,0.5,5,4,179,4,NA
fcp-trial,220,1013143,0.0-189.0-0.0,voc_e2,12269,"[{""event"":""fullscreenenter"",""trial"":1,""time"":3422},{""event"":""fullscreenexit"",""trial"":10,""time"":93911}]",NA,NA,NA,NA,NA,4,#1CD855,#FA92F8,10,0,1,40,0,518.2999999821186,37,1,2406.4000000059605,10,1,experiment,NA,NA,0,0.9,0.1,0,1,180,4,NA
fcp-trial,221,1016054,0.0-190.0-0.0,voc_e2,12269,"[{""event"":""fullscreenenter"",""trial"":1,""time"":3422},{""event"":""fullscreenexit"",""trial"":10,""time"":93911}]",NA,NA,NA,NA,NA,5,#741CD8,#D8271C,10,10,0,40,0,710.5999999940395,37,1,693.3000000119209,10,0,experiment,NA,NA,1,0.3,0.7,3,2,181,5,NA
fcp-trial,222,1019854,0.0-191.0-0.0,voc_e2,12269,"[{""event"":""fullscreenenter"",""trial"":1,""time"":3422},{""event"":""fullscreenexit"",""trial"":10,""time"":93911}]",NA,NA,NA,NA,NA,2,#1CD855,#FA92F8,10,0,1,40,0,1109.1000000238419,39,0,1181.7000000178814,0,0,experiment,NA,NA,0,0.9,0.1,0,1,182,5,NA
fcp-trial,223,1022286,0.0-192.0-0.0,voc_e2,12269,"[{""event"":""fullscreenenter"",""trial"":1,""time"":3422},{""event"":""fullscreenexit"",""trial"":10,""time"":93911}]",NA,NA,NA,NA,NA,1,#1CD855,#FA92F8,10,10,1,40,0,251.69999998807907,39,0,670.6999999880791,10,0,experiment,NA,NA,0,0.9,0.1,0,1,183,5,NA
fcp-trial,224,1025592,0.0-193.0-0.0,voc_e2,12269,"[{""event"":""fullscreenenter"",""trial"":1,""time"":3422},{""event"":""fullscreenexit"",""trial"":10,""time"":93911}]",NA,NA,NA,NA,NA,3,#D89F1C,#3386FF,10,0,1,40,0,854.0999999940395,37,1,942.3000000119208,10,1,experiment,NA,NA,2,0.5,0.5,4,5,184,5,NA
fcp-trial,225,1028886,0.0-194.0-0.0,voc_e2,12269,"[{""event"":""fullscreenenter"",""trial"":1,""time"":3422},{""event"":""fullscreenexit"",""trial"":10,""time"":93911}]",NA,NA,NA,NA,NA,5,#3386FF,#D89F1C,0,0,0,40,0,866.3000000119209,39,0,919.5,0,1,experiment,NA,NA,2,0.5,0.5,5,4,185,5,NA
fcp-trial,226,1031751,0.0-195.0-0.0,voc_e2,12269,"[{""event"":""fullscreenenter"",""trial"":1,""time"":3422},{""event"":""fullscreenexit"",""trial"":10,""time"":93911}]",NA,NA,NA,NA,NA,4,#D8271C,#741CD8,10,10,1,40,0,687.2000000178814,37,1,671.4000000059605,10,1,experiment,NA,NA,1,0.7,0.3,2,3,186,5,NA
fcp-trial,227,1035359,0.0-196.0-0.0,voc_e2,12269,"[{""event"":""fullscreenenter"",""trial"":1,""time"":3422},{""event"":""fullscreenexit"",""trial"":10,""time"":93911}]",NA,NA,NA,NA,NA,6,#1CD855,#FA92F8,10,0,1,40,0,721.2000000178814,37,1,1380.2999999821186,10,1,experiment,NA,NA,0,0.9,0.1,0,1,187,5,NA
fcp-trial,228,1037735,0.0-197.0-0.0,voc_e2,12269,"[{""event"":""fullscreenenter"",""trial"":1,""time"":3422},{""event"":""fullscreenexit"",""trial"":10,""time"":93911}]",NA,NA,NA,NA,NA,2,#D8271C,#741CD8,0,0,1,40,0,284.69999998807907,37,1,583.4000000059605,0,1,experiment,NA,NA,1,0.7,0.3,2,3,188,5,NA
fcp-trial,229,1040415,0.0-198.0-0.0,voc_e2,12269,"[{""event"":""fullscreenenter"",""trial"":1,""time"":3422},{""event"":""fullscreenexit"",""trial"":10,""time"":93911}]",NA,NA,NA,NA,NA,6,#D89F1C,#3386FF,0,0,1,40,0,413.7999999821186,37,1,759.5999999940395,0,1,experiment,NA,NA,2,0.5,0.5,4,5,189,5,NA
fcp-trial,230,1043945,0.0-199.0-0.0,voc_e2,12269,"[{""event"":""fullscreenenter"",""trial"":1,""time"":3422},{""event"":""fullscreenexit"",""trial"":10,""time"":93911}]",NA,NA,NA,NA,NA,4,#FA92F8,#1CD855,0,10,0,40,0,415.40000000596046,37,1,1608.800000011921,0,0,experiment,NA,NA,0,0.1,0.9,1,0,190,5,NA
fcp-trial,231,1046423,0.0-200.0-0.0,voc_e2,12269,"[{""event"":""fullscreenenter"",""trial"":1,""time"":3422},{""event"":""fullscreenexit"",""trial"":10,""time"":93911}]",NA,NA,NA,NA,NA,3,#D89F1C,#3386FF,10,10,1,40,0,338.7000000178814,39,0,631.4000000059605,10,0,experiment,NA,NA,2,0.5,0.5,4,5,191,5,NA
fcp-trial,232,1048943,0.0-201.0-0.0,voc_e2,12269,"[{""event"":""fullscreenenter"",""trial"":1,""time"":3422},{""event"":""fullscreenexit"",""trial"":10,""time"":93911}]",NA,NA,NA,NA,NA,2,#741CD8,#D8271C,0,0,0,40,0,228.80000001192093,39,0,782.7000000178814,0,1,experiment,NA,NA,1,0.3,0.7,3,2,192,5,NA
fcp-trial,233,1051190,0.0-202.0-0.0,voc_e2,12269,"[{""event"":""fullscreenenter"",""trial"":1,""time"":3422},{""event"":""fullscreenexit"",""trial"":10,""time"":93911}]",NA,NA,NA,NA,NA,2,#FA92F8,#1CD855,0,10,0,40,0,301.19999998807907,39,0,436.800000011921,10,1,experiment,NA,NA,0,0.1,0.9,1,0,193,5,NA
fcp-trial,234,1053168,0.0-203.0-0.0,voc_e2,12269,"[{""event"":""fullscreenenter"",""trial"":1,""time"":3422},{""event"":""fullscreenexit"",""trial"":10,""time"":93911}]",NA,NA,NA,NA,NA,5,#D89F1C,#3386FF,0,10,1,40,0,143.09999999403954,39,0,329.39999997615814,10,0,experiment,NA,NA,2,0.5,0.5,4,5,194,5,NA
fcp-trial,235,1057574,0.0-204.0-0.0,voc_e2,12269,"[{""event"":""fullscreenenter"",""trial"":1,""time"":3422},{""event"":""fullscreenexit"",""trial"":10,""time"":93911}]",NA,NA,NA,NA,NA,6,#D8271C,#741CD8,10,10,1,40,0,261.39999997615814,37,1,2637.699999988079,10,1,experiment,NA,NA,1,0.7,0.3,2,3,195,5,NA
fcp-trial,236,1060343,0.0-205.0-0.0,voc_e2,12269,"[{""event"":""fullscreenenter"",""trial"":1,""time"":3422},{""event"":""fullscreenexit"",""trial"":10,""time"":93911}]",NA,NA,NA,NA,NA,1,#741CD8,#D8271C,10,10,0,40,0,430.90000000596046,39,0,830.0999999940395,10,1,experiment,NA,NA,1,0.3,0.7,3,2,196,5,NA
fcp-trial,237,1062927,0.0-206.0-0.0,voc_e2,12269,"[{""event"":""fullscreenenter"",""trial"":1,""time"":3422},{""event"":""fullscreenexit"",""trial"":10,""time"":93911}]",NA,NA,NA,NA,NA,6,#FA92F8,#1CD855,0,10,0,40,0,445.2000000178814,37,1,630.2000000178814,0,0,experiment,NA,NA,0,0.1,0.9,1,0,197,5,NA
fcp-trial,238,1065359,0.0-207.0-0.0,voc_e2,12269,"[{""event"":""fullscreenenter"",""trial"":1,""time"":3422},{""event"":""fullscreenexit"",""trial"":10,""time"":93911}]",NA,NA,NA,NA,NA,5,#FA92F8,#1CD855,0,10,0,40,0,301.69999998807907,37,1,623.0999999940395,0,0,experiment,NA,NA,0,0.1,0.9,1,0,198,5,NA
fcp-trial,239,1068478,0.0-208.0-0.0,voc_e2,12269,"[{""event"":""fullscreenenter"",""trial"":1,""time"":3422},{""event"":""fullscreenexit"",""trial"":10,""time"":93911}]",NA,NA,NA,NA,NA,4,#3386FF,#D89F1C,10,0,0,40,0,1214.2000000178814,39,0,396.89999997615814,0,1,experiment,NA,NA,2,0.5,0.5,5,4,199,5,NA
fcp-trial,240,1070784,0.0-209.0-0.0,voc_e2,12269,"[{""event"":""fullscreenenter"",""trial"":1,""time"":3422},{""event"":""fullscreenexit"",""trial"":10,""time"":93911}]",NA,NA,NA,NA,NA,2,#3386FF,#D89F1C,0,10,0,40,0,310.7999999821186,37,1,488,0,0,experiment,NA,NA,2,0.5,0.5,5,4,200,5,NA
fcp-trial,241,1073872,0.0-210.0-0.0,voc_e2,12269,"[{""event"":""fullscreenenter"",""trial"":1,""time"":3422},{""event"":""fullscreenexit"",""trial"":10,""time"":93911}]",NA,NA,NA,NA,NA,0,#741CD8,#D8271C,0,0,0,40,0,899.5999999940395,37,1,680.8000000119209,0,0,experiment,NA,NA,1,0.3,0.7,3,2,201,5,NA
fcp-trial,242,1076242,0.0-211.0-0.0,voc_e2,12269,"[{""event"":""fullscreenenter"",""trial"":1,""time"":3422},{""event"":""fullscreenexit"",""trial"":10,""time"":93911}]",NA,NA,NA,NA,NA,1,#3386FF,#D89F1C,0,10,0,40,0,407.2999999821186,37,1,456.09999999403954,0,0,experiment,NA,NA,2,0.5,0.5,5,4,202,5,NA
fcp-trial,243,1078527,0.0-212.0-0.0,voc_e2,12269,"[{""event"":""fullscreenenter"",""trial"":1,""time"":3422},{""event"":""fullscreenexit"",""trial"":10,""time"":93911}]",NA,NA,NA,NA,NA,0,#FA92F8,#1CD855,0,0,0,40,0,332.80000001192093,37,1,446,0,0,experiment,NA,NA,0,0.1,0.9,1,0,203,5,NA
fcp-trial,244,1082154,0.0-213.0-0.0,voc_e2,12269,"[{""event"":""fullscreenenter"",""trial"":1,""time"":3422},{""event"":""fullscreenexit"",""trial"":10,""time"":93911}]",NA,NA,NA,NA,NA,3,#D8271C,#741CD8,10,0,1,40,0,305.19999998807907,39,0,1814.699999988079,0,0,experiment,NA,NA,1,0.7,0.3,2,3,204,5,NA
fcp-trial,245,1084841,0.0-214.0-0.0,voc_e2,12269,"[{""event"":""fullscreenenter"",""trial"":1,""time"":3422},{""event"":""fullscreenexit"",""trial"":10,""time"":93911}]",NA,NA,NA,NA,NA,1,#FA92F8,#1CD855,0,10,0,40,0,420.5,39,0,760.2000000178814,10,1,experiment,NA,NA,0,0.1,0.9,1,0,205,5,NA
fcp-trial,246,1087432,0.0-215.0-0.0,voc_e2,12269,"[{""event"":""fullscreenenter"",""trial"":1,""time"":3422},{""event"":""fullscreenexit"",""trial"":10,""time"":93911}]",NA,NA,NA,NA,NA,0,#3386FF,#D89F1C,0,10,0,40,0,430.69999998807907,37,1,653.5,0,0,experiment,NA,NA,2,0.5,0.5,5,4,206,5,NA
fcp-trial,247,1090224,0.0-216.0-0.0,voc_e2,12269,"[{""event"":""fullscreenenter"",""trial"":1,""time"":3422},{""event"":""fullscreenexit"",""trial"":10,""time"":93911}]",NA,NA,NA,NA,NA,5,#D8271C,#741CD8,10,0,1,40,0,285.90000000596046,37,1,999.9000000059604,10,1,experiment,NA,NA,1,0.7,0.3,2,3,207,5,NA
fcp-trial,248,1092481,0.0-217.0-0.0,voc_e2,12269,"[{""event"":""fullscreenenter"",""trial"":1,""time"":3422},{""event"":""fullscreenexit"",""trial"":10,""time"":93911}]",NA,NA,NA,NA,NA,4,#741CD8,#D8271C,10,10,0,40,0,224.69999998807907,37,1,525.5,10,0,experiment,NA,NA,1,0.3,0.7,3,2,208,5,NA
fcp-trial,249,1094811,0.0-218.0-0.0,voc_e2,12269,"[{""event"":""fullscreenenter"",""trial"":1,""time"":3422},{""event"":""fullscreenexit"",""trial"":10,""time"":93911}]",NA,NA,NA,NA,NA,3,#1CD855,#FA92F8,10,0,1,40,0,351.09999999403954,39,0,472.60000002384186,0,0,experiment,NA,NA,0,0.9,0.1,0,1,209,5,NA
fcp-trial,250,1097399,0.0-219.0-0.0,voc_e2,12269,"[{""event"":""fullscreenenter"",""trial"":1,""time"":3422},{""event"":""fullscreenexit"",""trial"":10,""time"":93911}]",NA,NA,NA,NA,NA,6,#3386FF,#D89F1C,10,0,0,40,0,374.59999999403954,37,1,707.5999999940395,10,0,experiment,NA,NA,2,0.5,0.5,5,4,210,5,NA
audio-instructions,251,1183673,0.0-220.0,voc_e2,12269,"[{""event"":""fullscreenenter"",""trial"":1,""time"":3422},{""event"":""fullscreenexit"",""trial"":10,""time"":93911}]",NA,81704.60000002384,static/audio/pause.wav,NA,0,NA,NA,NA,NA,NA,NA,NA,NA,NA,NA,NA,NA,NA,NA,NA,NA,NA,NA,NA,NA,NA,NA,NA,NA,NA
fcp-trial,252,1187270,0.0-221.0-0.0,voc_e2,12269,"[{""event"":""fullscreenenter"",""trial"":1,""time"":3422},{""event"":""fullscreenexit"",""trial"":10,""time"":93911}]",NA,NA,NA,NA,NA,2,#D89F1C,#3386FF,10,0,1,40,0,1655.9000000059605,37,1,433.09999999403954,10,1,experiment,NA,NA,2,0.5,0.5,4,5,211,5,NA
fcp-trial,253,1189706,0.0-222.0-0.0,voc_e2,12269,"[{""event"":""fullscreenenter"",""trial"":1,""time"":3422},{""event"":""fullscreenexit"",""trial"":10,""time"":93911}]",NA,NA,NA,NA,NA,5,#741CD8,#D8271C,0,0,0,40,0,300.2999999821186,39,0,629.2000000178814,0,1,experiment,NA,NA,1,0.3,0.7,3,2,212,5,NA
fcp-trial,254,1191906,0.0-223.0-0.0,voc_e2,12269,"[{""event"":""fullscreenenter"",""trial"":1,""time"":3422},{""event"":""fullscreenexit"",""trial"":10,""time"":93911}]",NA,NA,NA,NA,NA,6,#D89F1C,#3386FF,10,10,1,40,0,278.19999998807907,39,0,413.59999999403954,10,0,experiment,NA,NA,2,0.5,0.5,4,5,213,5,NA
fcp-trial,255,1194068,0.0-224.0-0.0,voc_e2,12269,"[{""event"":""fullscreenenter"",""trial"":1,""time"":3422},{""event"":""fullscreenexit"",""trial"":10,""time"":93911}]",NA,NA,NA,NA,NA,1,#D8271C,#741CD8,10,0,1,40,0,95.19999998807907,39,0,559.0999999940395,0,0,experiment,NA,NA,1,0.7,0.3,2,3,214,5,NA
fcp-trial,256,1196627,0.0-225.0-0.0,voc_e2,12269,"[{""event"":""fullscreenenter"",""trial"":1,""time"":3422},{""event"":""fullscreenexit"",""trial"":10,""time"":93911}]",NA,NA,NA,NA,NA,4,#FA92F8,#1CD855,0,10,0,40,0,54.10000002384186,37,1,998.399999976158,0,0,experiment,NA,NA,0,0.1,0.9,1,0,215,5,NA
fcp-trial,257,1198703,0.0-226.0-0.0,voc_e2,12269,"[{""event"":""fullscreenenter"",""trial"":1,""time"":3422},{""event"":""fullscreenexit"",""trial"":10,""time"":93911}]",NA,NA,NA,NA,NA,6,#FA92F8,#1CD855,0,10,0,40,0,158.2000000178814,39,0,410.09999999403954,10,1,experiment,NA,NA,0,0.1,0.9,1,0,216,5,NA
fcp-trial,258,1200970,0.0-227.0-0.0,voc_e2,12269,"[{""event"":""fullscreenenter"",""trial"":1,""time"":3422},{""event"":""fullscreenexit"",""trial"":10,""time"":93911}]",NA,NA,NA,NA,NA,5,#3386FF,#D89F1C,0,0,0,40,0,77.10000002384186,39,0,684,0,1,experiment,NA,NA,2,0.5,0.5,5,4,217,5,NA
fcp-trial,259,1203227,0.0-228.0-0.0,voc_e2,12269,"[{""event"":""fullscreenenter"",""trial"":1,""time"":3422},{""event"":""fullscreenexit"",""trial"":10,""time"":93911}]",NA,NA,NA,NA,NA,3,#D89F1C,#3386FF,0,10,1,40,0,128.2000000178814,39,0,622.0999999940395,10,0,experiment,NA,NA,2,0.5,0.5,4,5,218,5,NA
fcp-trial,260,1205891,0.0-229.0-0.0,voc_e2,12269,"[{""event"":""fullscreenenter"",""trial"":1,""time"":3422},{""event"":""fullscreenexit"",""trial"":10,""time"":93911}]",NA,NA,NA,NA,NA,0,#D8271C,#741CD8,0,10,1,40,0,368.90000000596046,39,0,787.9000000059605,10,0,experiment,NA,NA,1,0.7,0.3,2,3,219,5,NA
fcp-trial,261,1208578,0.0-230.0-0.0,voc_e2,12269,"[{""event"":""fullscreenenter"",""trial"":1,""time"":3422},{""event"":""fullscreenexit"",""trial"":10,""time"":93911}]",NA,NA,NA,NA,NA,5,#FA92F8,#1CD855,0,0,0,40,0,319.90000000596046,37,1,861.5999999940395,0,0,experiment,NA,NA,0,0.1,0.9,1,0,220,5,NA
fcp-trial,262,1210724,0.0-231.0-0.0,voc_e2,12269,"[{""event"":""fullscreenenter"",""trial"":1,""time"":3422},{""event"":""fullscreenexit"",""trial"":10,""time"":93911}]",NA,NA,NA,NA,NA,4,#741CD8,#D8271C,0,10,0,40,0,38.099999994039536,39,0,598.3000000119209,10,1,experiment,NA,NA,1,0.3,0.7,3,2,221,5,NA
fcp-trial,263,1213044,0.0-232.0-0.0,voc_e2,12269,"[{""event"":""fullscreenenter"",""trial"":1,""time"":3422},{""event"":""fullscreenexit"",""trial"":10,""time"":93911}]",NA,NA,NA,NA,NA,1,#3386FF,#D89F1C,10,0,0,40,0,335,39,0,478.59999999403954,0,1,experiment,NA,NA,2,0.5,0.5,5,4,222,5,NA
fcp-trial,264,1215643,0.0-233.0-0.0,voc_e2,12269,"[{""event"":""fullscreenenter"",""trial"":1,""time"":3422},{""event"":""fullscreenexit"",""trial"":10,""time"":93911}]",NA,NA,NA,NA,NA,6,#741CD8,#D8271C,10,10,0,40,0,286,37,1,804.2000000178814,10,0,experiment,NA,NA,1,0.3,0.7,3,2,223,5,NA
fcp-trial,265,1218260,0.0-234.0-0.0,voc_e2,12269,"[{""event"":""fullscreenenter"",""trial"":1,""time"":3422},{""event"":""fullscreenexit"",""trial"":10,""time"":93911}]",NA,NA,NA,NA,NA,2,#1CD855,#FA92F8,10,0,1,40,0,232,39,0,878.1999999880791,0,0,experiment,NA,NA,0,0.9,0.1,0,1,224,5,NA
fcp-trial,266,1220925,0.0-235.0-0.0,voc_e2,12269,"[{""event"":""fullscreenenter"",""trial"":1,""time"":3422},{""event"":""fullscreenexit"",""trial"":10,""time"":93911}]",NA,NA,NA,NA,NA,4,#3386FF,#D89F1C,0,10,0,40,0,628.6999999880791,39,0,527.3000000119209,10,1,experiment,NA,NA,2,0.5,0.5,5,4,225,5,NA
fcp-trial,267,1223428,0.0-236.0-0.0,voc_e2,12269,"[{""event"":""fullscreenenter"",""trial"":1,""time"":3422},{""event"":""fullscreenexit"",""trial"":10,""time"":93911}]",NA,NA,NA,NA,NA,3,#741CD8,#D8271C,0,10,0,40,0,229.5,37,1,767.0999999940395,0,0,experiment,NA,NA,1,0.3,0.7,3,2,226,6,NA
fcp-trial,268,1226380,0.0-237.0-0.0,voc_e2,12269,"[{""event"":""fullscreenenter"",""trial"":1,""time"":3422},{""event"":""fullscreenexit"",""trial"":10,""time"":93911}]",NA,NA,NA,NA,NA,0,#D89F1C,#3386FF,10,0,1,40,0,951.4000000059605,37,1,494,10,1,experiment,NA,NA,2,0.5,0.5,4,5,227,6,NA
fcp-trial,269,1228223,0.0-238.0-0.0,voc_e2,12269,"[{""event"":""fullscreenenter"",""trial"":1,""time"":3422},{""event"":""fullscreenexit"",""trial"":10,""time"":93911}]",NA,NA,NA,NA,NA,2,#D8271C,#741CD8,10,10,1,40,0,54.900000005960464,37,1,281,10,1,experiment,NA,NA,1,0.7,0.3,2,3,228,6,NA
fcp-trial,270,1230428,0.0-239.0-0.0,voc_e2,12269,"[{""event"":""fullscreenenter"",""trial"":1,""time"":3422},{""event"":""fullscreenexit"",""trial"":10,""time"":93911}]",NA,NA,NA,NA,NA,1,#FA92F8,#1CD855,0,10,0,40,0,62.400000005960464,39,0,634.5999999940395,10,1,experiment,NA,NA,0,0.1,0.9,1,0,229,6,NA
fcp-trial,271,1233019,0.0-240.0-0.0,voc_e2,12269,"[{""event"":""fullscreenenter"",""trial"":1,""time"":3422},{""event"":""fullscreenexit"",""trial"":10,""time"":93911}]",NA,NA,NA,NA,NA,0,#1CD855,#FA92F8,10,10,1,40,0,640.5,39,0,444.7999999821186,10,0,experiment,NA,NA,0,0.9,0.1,0,1,230,6,NA
fcp-trial,272,1235061,0.0-241.0-0.0,voc_e2,12269,"[{""event"":""fullscreenenter"",""trial"":1,""time"":3422},{""event"":""fullscreenexit"",""trial"":10,""time"":93911}]",NA,NA,NA,NA,NA,3,#FA92F8,#1CD855,0,10,0,40,0,70.80000001192093,39,0,462,10,1,experiment,NA,NA,0,0.1,0.9,1,0,231,6,NA
fcp-trial,273,1237213,0.0-242.0-0.0,voc_e2,12269,"[{""event"":""fullscreenenter"",""trial"":1,""time"":3422},{""event"":""fullscreenexit"",""trial"":10,""time"":93911}]",NA,NA,NA,NA,NA,6,#FA92F8,#1CD855,0,10,0,40,0,278,39,0,366.7000000178814,10,1,experiment,NA,NA,0,0.1,0.9,1,0,232,6,NA
fcp-trial,274,1240445,0.0-243.0-0.0,voc_e2,12269,"[{""event"":""fullscreenenter"",""trial"":1,""time"":3422},{""event"":""fullscreenexit"",""trial"":10,""time"":93911}]",NA,NA,NA,NA,NA,6,#3386FF,#D89F1C,10,0,0,40,0,166.30000001192093,37,1,1558.800000011921,10,0,experiment,NA,NA,2,0.5,0.5,5,4,233,6,NA
fcp-trial,275,1243531,0.0-244.0-0.0,voc_e2,12269,"[{""event"":""fullscreenenter"",""trial"":1,""time"":3422},{""event"":""fullscreenexit"",""trial"":10,""time"":93911}]",NA,NA,NA,NA,NA,0,#741CD8,#D8271C,0,10,0,40,0,344.60000002384186,37,1,1235.9000000059605,0,0,experiment,NA,NA,1,0.3,0.7,3,2,234,6,NA
fcp-trial,276,1246231,0.0-245.0-0.0,voc_e2,12269,"[{""event"":""fullscreenenter"",""trial"":1,""time"":3422},{""event"":""fullscreenexit"",""trial"":10,""time"":93911}]",NA,NA,NA,NA,NA,4,#3386FF,#D89F1C,10,10,0,40,0,336.39999997615814,37,1,855.3000000119209,10,0,experiment,NA,NA,2,0.5,0.5,5,4,235,6,NA
fcp-trial,277,1249157,0.0-246.0-0.0,voc_e2,12269,"[{""event"":""fullscreenenter"",""trial"":1,""time"":3422},{""event"":""fullscreenexit"",""trial"":10,""time"":93911}]",NA,NA,NA,NA,NA,1,#D89F1C,#3386FF,0,10,1,40,0,228.69999998807907,39,0,1192.199999988079,10,0,experiment,NA,NA,2,0.5,0.5,4,5,236,6,NA
fcp-trial,278,1252146,0.0-247.0-0.0,voc_e2,12269,"[{""event"":""fullscreenenter"",""trial"":1,""time"":3422},{""event"":""fullscreenexit"",""trial"":10,""time"":93911}]",NA,NA,NA,NA,NA,1,#1CD855,#FA92F8,10,0,1,40,0,550,39,0,931.600000023842,0,0,experiment,NA,NA,0,0.9,0.1,0,1,237,6,NA
fcp-trial,279,1254495,0.0-248.0-0.0,voc_e2,12269,"[{""event"":""fullscreenenter"",""trial"":1,""time"":3422},{""event"":""fullscreenexit"",""trial"":10,""time"":93911}]",NA,NA,NA,NA,NA,6,#D8271C,#741CD8,10,10,1,40,0,393.80000001192093,39,0,449.09999999403954,10,0,experiment,NA,NA,1,0.7,0.3,2,3,238,6,NA
fcp-trial,280,1257048,0.0-249.0-0.0,voc_e2,12269,"[{""event"":""fullscreenenter"",""trial"":1,""time"":3422},{""event"":""fullscreenexit"",""trial"":10,""time"":93911}]",NA,NA,NA,NA,NA,3,#D8271C,#741CD8,10,10,1,40,0,564.4000000059605,39,0,481.09999999403954,10,0,experiment,NA,NA,1,0.7,0.3,2,3,239,6,NA
fcp-trial,281,1259263,0.0-250.0-0.0,voc_e2,12269,"[{""event"":""fullscreenenter"",""trial"":1,""time"":3422},{""event"":""fullscreenexit"",""trial"":10,""time"":93911}]",NA,NA,NA,NA,NA,3,#3386FF,#D89F1C,10,10,0,40,0,61.900000005960464,39,0,646.4000000059605,10,1,experiment,NA,NA,2,0.5,0.5,5,4,240,6,NA
fcp-trial,282,1262510,0.0-251.0-0.0,voc_e2,12269,"[{""event"":""fullscreenenter"",""trial"":1,""time"":3422},{""event"":""fullscreenexit"",""trial"":10,""time"":93911}]",NA,NA,NA,NA,NA,0,#1CD855,#FA92F8,10,10,1,40,0,758.4000000059605,37,1,983.5999999940396,10,1,experiment,NA,NA,0,0.9,0.1,0,1,241,6,NA
fcp-trial,283,1264885,0.0-252.0-0.0,voc_e2,12269,"[{""event"":""fullscreenenter"",""trial"":1,""time"":3422},{""event"":""fullscreenexit"",""trial"":10,""time"":93911}]",NA,NA,NA,NA,NA,1,#D8271C,#741CD8,10,10,1,40,0,343.5,37,1,525.5999999940395,10,1,experiment,NA,NA,1,0.7,0.3,2,3,242,6,NA
fcp-trial,284,1267433,0.0-253.0-0.0,voc_e2,12269,"[{""event"":""fullscreenenter"",""trial"":1,""time"":3422},{""event"":""fullscreenexit"",""trial"":10,""time"":93911}]",NA,NA,NA,NA,NA,5,#741CD8,#D8271C,10,10,0,40,0,441,37,1,599.4000000059605,10,0,experiment,NA,NA,1,0.3,0.7,3,2,243,6,NA
fcp-trial,285,1269798,0.0-254.0-0.0,voc_e2,12269,"[{""event"":""fullscreenenter"",""trial"":1,""time"":3422},{""event"":""fullscreenexit"",""trial"":10,""time"":93911}]",NA,NA,NA,NA,NA,0,#3386FF,#D89F1C,0,0,0,40,0,276.90000000596046,37,1,582.0999999940395,0,0,experiment,NA,NA,2,0.5,0.5,5,4,244,6,NA
fcp-trial,286,1272221,0.0-255.0-0.0,voc_e2,12269,"[{""event"":""fullscreenenter"",""trial"":1,""time"":3422},{""event"":""fullscreenexit"",""trial"":10,""time"":93911}]",NA,NA,NA,NA,NA,3,#FA92F8,#1CD855,0,10,0,40,0,398,39,0,517.9000000059605,10,1,experiment,NA,NA,0,0.1,0.9,1,0,245,6,NA
fcp-trial,287,1274551,0.0-256.0-0.0,voc_e2,12269,"[{""event"":""fullscreenenter"",""trial"":1,""time"":3422},{""event"":""fullscreenexit"",""trial"":10,""time"":93911}]",NA,NA,NA,NA,NA,2,#1CD855,#FA92F8,10,0,1,40,0,294.69999998807907,37,1,528.5,10,1,experiment,NA,NA,0,0.9,0.1,0,1,246,6,NA
fcp-trial,288,1276974,0.0-257.0-0.0,voc_e2,12269,"[{""event"":""fullscreenenter"",""trial"":1,""time"":3422},{""event"":""fullscreenexit"",""trial"":10,""time"":93911}]",NA,NA,NA,NA,NA,5,#D89F1C,#3386FF,10,10,1,40,0,365.2000000178814,39,0,550.2999999821186,10,0,experiment,NA,NA,2,0.5,0.5,4,5,247,6,NA
fcp-trial,289,1279685,0.0-258.0-0.0,voc_e2,12269,"[{""event"":""fullscreenenter"",""trial"":1,""time"":3422},{""event"":""fullscreenexit"",""trial"":10,""time"":93911}]",NA,NA,NA,NA,NA,4,#D8271C,#741CD8,10,0,1,40,0,254.90000000596046,39,0,947.9000000059604,0,0,experiment,NA,NA,1,0.7,0.3,2,3,248,6,NA
fcp-trial,290,1282216,0.0-259.0-0.0,voc_e2,12269,"[{""event"":""fullscreenenter"",""trial"":1,""time"":3422},{""event"":""fullscreenexit"",""trial"":10,""time"":93911}]",NA,NA,NA,NA,NA,2,#3386FF,#D89F1C,10,0,0,40,0,384.09999999403954,37,1,641.3000000119209,10,0,experiment,NA,NA,2,0.5,0.5,5,4,249,6,NA
fcp-trial,291,1284622,0.0-260.0-0.0,voc_e2,12269,"[{""event"":""fullscreenenter"",""trial"":1,""time"":3422},{""event"":""fullscreenexit"",""trial"":10,""time"":93911}]",NA,NA,NA,NA,NA,4,#FA92F8,#1CD855,0,0,0,40,0,246.09999999403954,39,0,652.7000000178814,0,1,experiment,NA,NA,0,0.1,0.9,1,0,250,6,NA
fcp-trial,292,1287094,0.0-261.0-0.0,voc_e2,12269,"[{""event"":""fullscreenenter"",""trial"":1,""time"":3422},{""event"":""fullscreenexit"",""trial"":10,""time"":93911}]",NA,NA,NA,NA,NA,5,#FA92F8,#1CD855,0,10,0,40,0,511.40000000596046,39,0,456.59999999403954,10,1,experiment,NA,NA,0,0.1,0.9,1,0,251,6,NA
fcp-trial,293,1289430,0.0-262.0-0.0,voc_e2,12269,"[{""event"":""fullscreenenter"",""trial"":1,""time"":3422},{""event"":""fullscreenexit"",""trial"":10,""time"":93911}]",NA,NA,NA,NA,NA,2,#741CD8,#D8271C,0,10,0,40,0,253.2000000178814,37,1,575.4000000059605,0,0,experiment,NA,NA,1,0.3,0.7,3,2,252,6,NA
fcp-trial,294,1292222,0.0-263.0-0.0,voc_e2,12269,"[{""event"":""fullscreenenter"",""trial"":1,""time"":3422},{""event"":""fullscreenexit"",""trial"":10,""time"":93911}]",NA,NA,NA,NA,NA,6,#3386FF,#D89F1C,10,10,0,40,0,134.09999999403954,39,0,1150,10,1,experiment,NA,NA,2,0.5,0.5,5,4,253,6,NA
fcp-trial,295,1294726,0.0-264.0-0.0,voc_e2,12269,"[{""event"":""fullscreenenter"",""trial"":1,""time"":3422},{""event"":""fullscreenexit"",""trial"":10,""time"":93911}]",NA,NA,NA,NA,NA,1,#FA92F8,#1CD855,0,0,0,40,0,310.69999998807907,37,1,686.0999999940395,0,0,experiment,NA,NA,0,0.1,0.9,1,0,254,6,NA
fcp-trial,296,1297039,0.0-265.0-0.0,voc_e2,12269,"[{""event"":""fullscreenenter"",""trial"":1,""time"":3422},{""event"":""fullscreenexit"",""trial"":10,""time"":93911}]",NA,NA,NA,NA,NA,0,#1CD855,#FA92F8,10,10,1,40,0,334.2000000178814,37,1,471.300000011921,10,1,experiment,NA,NA,0,0.9,0.1,0,1,255,6,NA
fcp-trial,297,1299423,0.0-266.0-0.0,voc_e2,12269,"[{""event"":""fullscreenenter"",""trial"":1,""time"":3422},{""event"":""fullscreenexit"",""trial"":10,""time"":93911}]",NA,NA,NA,NA,NA,2,#D89F1C,#3386FF,0,0,1,40,0,407.39999997615814,37,1,471,0,1,experiment,NA,NA,2,0.5,0.5,4,5,256,6,NA
fcp-trial,298,1301841,0.0-267.0-0.0,voc_e2,12269,"[{""event"":""fullscreenenter"",""trial"":1,""time"":3422},{""event"":""fullscreenexit"",""trial"":10,""time"":93911}]",NA,NA,NA,NA,NA,5,#741CD8,#D8271C,0,10,0,40,0,392.2000000178814,37,1,519.5,0,0,experiment,NA,NA,1,0.3,0.7,3,2,257,6,NA
fcp-trial,299,1303943,0.0-268.0-0.0,voc_e2,12269,"[{""event"":""fullscreenenter"",""trial"":1,""time"":3422},{""event"":""fullscreenexit"",""trial"":10,""time"":93911}]",NA,NA,NA,NA,NA,1,#3386FF,#D89F1C,10,0,0,40,0,164.59999999403954,37,1,429,10,0,experiment,NA,NA,2,0.5,0.5,5,4,258,6,NA
fcp-trial,300,1306446,0.0-269.0-0.0,voc_e2,12269,"[{""event"":""fullscreenenter"",""trial"":1,""time"":3422},{""event"":""fullscreenexit"",""trial"":10,""time"":93911}]",NA,NA,NA,NA,NA,2,#1CD855,#FA92F8,10,0,1,40,0,134.90000000596046,37,1,862.2999999821186,10,1,experiment,NA,NA,0,0.9,0.1,0,1,259,6,NA
fcp-trial,301,1308494,0.0-270.0-0.0,voc_e2,12269,"[{""event"":""fullscreenenter"",""trial"":1,""time"":3422},{""event"":""fullscreenexit"",""trial"":10,""time"":93911}]",NA,NA,NA,NA,NA,4,#1CD855,#FA92F8,10,0,1,40,0,173.60000002384186,37,1,365.699999988079,10,1,experiment,NA,NA,0,0.9,0.1,0,1,260,6,NA
fcp-trial,302,1310446,0.0-271.0-0.0,voc_e2,12269,"[{""event"":""fullscreenenter"",""trial"":1,""time"":3422},{""event"":""fullscreenexit"",""trial"":10,""time"":93911}]",NA,NA,NA,NA,NA,6,#D8271C,#741CD8,0,0,1,40,0,62.20000001788139,37,1,382.89999997615814,0,1,experiment,NA,NA,1,0.7,0.3,2,3,261,6,NA
fcp-trial,303,1312810,0.0-272.0-0.0,voc_e2,12269,"[{""event"":""fullscreenenter"",""trial"":1,""time"":3422},{""event"":""fullscreenexit"",""trial"":10,""time"":93911}]",NA,NA,NA,NA,NA,3,#D8271C,#741CD8,0,0,1,40,0,445.80000001192093,37,1,410.60000002384186,0,1,experiment,NA,NA,1,0.7,0.3,2,3,262,6,NA
fcp-trial,304,1315798,0.0-273.0-0.0,voc_e2,12269,"[{""event"":""fullscreenenter"",""trial"":1,""time"":3422},{""event"":""fullscreenexit"",""trial"":10,""time"":93911}]",NA,NA,NA,NA,NA,3,#D89F1C,#3386FF,0,10,1,40,0,235.5,39,0,1246.7000000178814,10,0,experiment,NA,NA,2,0.5,0.5,4,5,263,6,NA
fcp-trial,305,1318294,0.0-274.0-0.0,voc_e2,12269,"[{""event"":""fullscreenenter"",""trial"":1,""time"":3422},{""event"":""fullscreenexit"",""trial"":10,""time"":93911}]",NA,NA,NA,NA,NA,0,#D8271C,#741CD8,10,0,1,40,0,368.69999998807907,39,0,619.2999999821186,0,0,experiment,NA,NA,1,0.7,0.3,2,3,264,6,NA
fcp-trial,306,1320533,0.0-275.0-0.0,voc_e2,12269,"[{""event"":""fullscreenenter"",""trial"":1,""time"":3422},{""event"":""fullscreenexit"",""trial"":10,""time"":93911}]",NA,NA,NA,NA,NA,3,#FA92F8,#1CD855,0,10,0,40,0,241.09999999403954,37,1,493.2999999821186,0,0,experiment,NA,NA,0,0.1,0.9,1,0,265,6,NA
fcp-trial,307,1323059,0.0-276.0-0.0,voc_e2,12269,"[{""event"":""fullscreenenter"",""trial"":1,""time"":3422},{""event"":""fullscreenexit"",""trial"":10,""time"":93911}]",NA,NA,NA,NA,NA,1,#741CD8,#D8271C,0,0,0,40,0,542.9000000059605,37,1,475,0,0,experiment,NA,NA,1,0.3,0.7,3,2,266,6,NA
fcp-trial,308,1325543,0.0-277.0-0.0,voc_e2,12269,"[{""event"":""fullscreenenter"",""trial"":1,""time"":3422},{""event"":""fullscreenexit"",""trial"":10,""time"":93911}]",NA,NA,NA,NA,NA,4,#741CD8,#D8271C,0,0,0,40,0,507.5,39,0,470.59999999403954,0,1,experiment,NA,NA,1,0.3,0.7,3,2,267,6,NA
fcp-trial,309,1328119,0.0-278.0-0.0,voc_e2,12269,"[{""event"":""fullscreenenter"",""trial"":1,""time"":3422},{""event"":""fullscreenexit"",""trial"":10,""time"":93911}]",NA,NA,NA,NA,NA,0,#D89F1C,#3386FF,0,10,1,40,0,177.59999999403954,39,0,892.4000000059605,10,0,experiment,NA,NA,2,0.5,0.5,4,5,268,6,NA
fcp-trial,310,1331504,0.0-279.0-0.0,voc_e2,12269,"[{""event"":""fullscreenenter"",""trial"":1,""time"":3422},{""event"":""fullscreenexit"",""trial"":10,""time"":93911}]",NA,NA,NA,NA,NA,2,#D8271C,#741CD8,0,0,1,40,0,469,37,1,1407,0,1,experiment,NA,NA,1,0.7,0.3,2,3,269,6,NA
fcp-trial,311,1333800,0.0-280.0-0.0,voc_e2,12269,"[{""event"":""fullscreenenter"",""trial"":1,""time"":3422},{""event"":""fullscreenexit"",""trial"":10,""time"":93911}]",NA,NA,NA,NA,NA,6,#FA92F8,#1CD855,0,10,0,40,0,301.7999999821186,37,1,486.300000011921,0,0,experiment,NA,NA,0,0.1,0.9,1,0,270,6,NA
fcp-trial,312,1336215,0.0-281.0-0.0,voc_e2,12269,"[{""event"":""fullscreenenter"",""trial"":1,""time"":3422},{""event"":""fullscreenexit"",""trial"":10,""time"":93911}]",NA,NA,NA,NA,NA,4,#3386FF,#D89F1C,0,0,0,40,0,238.7000000178814,39,0,669.2000000178814,0,1,experiment,NA,NA,2,0.5,0.5,5,4,271,7,NA
fcp-trial,313,1338551,0.0-282.0-0.0,voc_e2,12269,"[{""event"":""fullscreenenter"",""trial"":1,""time"":3422},{""event"":""fullscreenexit"",""trial"":10,""time"":93911}]",NA,NA,NA,NA,NA,5,#1CD855,#FA92F8,10,0,1,40,0,360.09999999403954,39,0,470.90000000596046,0,0,experiment,NA,NA,0,0.9,0.1,0,1,272,7,NA
fcp-trial,314,1340854,0.0-283.0-0.0,voc_e2,12269,"[{""event"":""fullscreenenter"",""trial"":1,""time"":3422},{""event"":""fullscreenexit"",""trial"":10,""time"":93911}]",NA,NA,NA,NA,NA,5,#3386FF,#D89F1C,10,10,0,40,0,240.39999997615814,37,1,555.5,10,0,experiment,NA,NA,2,0.5,0.5,5,4,273,7,NA
fcp-trial,315,1342946,0.0-284.0-0.0,voc_e2,12269,"[{""event"":""fullscreenenter"",""trial"":1,""time"":3422},{""event"":""fullscreenexit"",""trial"":10,""time"":93911}]",NA,NA,NA,NA,NA,0,#D8271C,#741CD8,0,10,1,40,0,111.09999999403954,39,0,473.60000002384186,10,0,experiment,NA,NA,1,0.7,0.3,2,3,274,7,NA
fcp-trial,316,1345151,0.0-285.0-0.0,voc_e2,12269,"[{""event"":""fullscreenenter"",""trial"":1,""time"":3422},{""event"":""fullscreenexit"",""trial"":10,""time"":93911}]",NA,NA,NA,NA,NA,4,#3386FF,#D89F1C,0,0,0,40,0,149.10000002384186,39,0,550.3000000119209,0,1,experiment,NA,NA,2,0.5,0.5,5,4,275,7,NA
fcp-trial,317,1347055,0.0-286.0-0.0,voc_e2,12269,"[{""event"":""fullscreenenter"",""trial"":1,""time"":3422},{""event"":""fullscreenexit"",""trial"":10,""time"":93911}]",NA,NA,NA,NA,NA,6,#D89F1C,#3386FF,10,10,1,40,0,56,39,0,342.19999998807907,10,0,experiment,NA,NA,2,0.5,0.5,4,5,276,7,NA
fcp-trial,318,1349514,0.0-287.0-0.0,voc_e2,12269,"[{""event"":""fullscreenenter"",""trial"":1,""time"":3422},{""event"":""fullscreenexit"",""trial"":10,""time"":93911}]",NA,NA,NA,NA,NA,5,#741CD8,#D8271C,10,10,0,40,0,349.89999997615814,37,1,599.6999999880791,10,0,experiment,NA,NA,1,0.3,0.7,3,2,277,7,NA
fcp-trial,319,1351931,0.0-288.0-0.0,voc_e2,12269,"[{""event"":""fullscreenenter"",""trial"":1,""time"":3422},{""event"":""fullscreenexit"",""trial"":10,""time"":93911}]",NA,NA,NA,NA,NA,6,#FA92F8,#1CD855,0,10,0,40,0,311.09999999403954,39,0,599.9000000059605,10,1,experiment,NA,NA,0,0.1,0.9,1,0,278,7,NA
fcp-trial,320,1354515,0.0-289.0-0.0,voc_e2,12269,"[{""event"":""fullscreenenter"",""trial"":1,""time"":3422},{""event"":""fullscreenexit"",""trial"":10,""time"":93911}]",NA,NA,NA,NA,NA,1,#3386FF,#D89F1C,0,0,0,38,1,284.19999998807907,39,0,794,0,1,experiment,NA,NA,2,0.5,0.5,5,4,279,7,NA
fcp-trial,321,1356903,0.0-290.0-0.0,voc_e2,12269,"[{""event"":""fullscreenenter"",""trial"":1,""time"":3422},{""event"":""fullscreenexit"",""trial"":10,""time"":93911}]",NA,NA,NA,NA,NA,6,#741CD8,#D8271C,10,0,0,40,0,380.5,39,0,502.09999999403954,0,1,experiment,NA,NA,1,0.3,0.7,3,2,280,7,NA
fcp-trial,322,1358867,0.0-291.0-0.0,voc_e2,12269,"[{""event"":""fullscreenenter"",""trial"":1,""time"":3422},{""event"":""fullscreenexit"",""trial"":10,""time"":93911}]",NA,NA,NA,NA,NA,3,#1CD855,#FA92F8,10,0,1,40,0,142.59999999403954,39,0,314,0,0,experiment,NA,NA,0,0.9,0.1,0,1,281,7,NA
fcp-trial,323,1361035,0.0-292.0-0.0,voc_e2,12269,"[{""event"":""fullscreenenter"",""trial"":1,""time"":3422},{""event"":""fullscreenexit"",""trial"":10,""time"":93911}]",NA,NA,NA,NA,NA,2,#D8271C,#741CD8,10,10,1,40,0,77.2000000178814,39,0,584.3999999761581,10,0,experiment,NA,NA,1,0.7,0.3,2,3,282,7,NA
fcp-trial,324,1363439,0.0-293.0-0.0,voc_e2,12269,"[{""event"":""fullscreenenter"",""trial"":1,""time"":3422},{""event"":""fullscreenexit"",""trial"":10,""time"":93911}]",NA,NA,NA,NA,NA,1,#741CD8,#D8271C,0,0,0,38,1,83.59999999403954,39,0,814.2000000178814,0,1,experiment,NA,NA,1,0.3,0.7,3,2,283,7,NA
fcp-trial,325,1365960,0.0-294.0-0.0,voc_e2,12269,"[{""event"":""fullscreenenter"",""trial"":1,""time"":3422},{""event"":""fullscreenexit"",""trial"":10,""time"":93911}]",NA,NA,NA,NA,NA,2,#D89F1C,#3386FF,10,0,1,40,0,551.0999999940395,39,0,463.199999988079,0,0,experiment,NA,NA,2,0.5,0.5,4,5,284,7,NA
fcp-trial,326,1369071,0.0-295.0-0.0,voc_e2,12269,"[{""event"":""fullscreenenter"",""trial"":1,""time"":3422},{""event"":""fullscreenexit"",""trial"":10,""time"":93911}]",NA,NA,NA,NA,NA,2,#FA92F8,#1CD855,0,10,0,40,0,54.19999998807907,37,1,1550.699999988079,0,0,experiment,NA,NA,0,0.1,0.9,1,0,285,7,NA
fcp-trial,327,1371376,0.0-296.0-0.0,voc_e2,12269,"[{""event"":""fullscreenenter"",""trial"":1,""time"":3422},{""event"":""fullscreenexit"",""trial"":10,""time"":93911}]",NA,NA,NA,NA,NA,3,#3386FF,#D89F1C,10,0,0,40,0,177.30000001192093,39,0,623,0,1,experiment,NA,NA,2,0.5,0.5,5,4,286,7,NA
fcp-trial,328,1373704,0.0-297.0-0.0,voc_e2,12269,"[{""event"":""fullscreenenter"",""trial"":1,""time"":3422},{""event"":""fullscreenexit"",""trial"":10,""time"":93911}]",NA,NA,NA,NA,NA,3,#D8271C,#741CD8,10,0,1,40,0,189.90000000596046,39,0,630.0999999940395,0,0,experiment,NA,NA,1,0.7,0.3,2,3,287,7,NA
fcp-trial,329,1375713,0.0-298.0-0.0,voc_e2,12269,"[{""event"":""fullscreenenter"",""trial"":1,""time"":3422},{""event"":""fullscreenexit"",""trial"":10,""time"":93911}]",NA,NA,NA,NA,NA,1,#1CD855,#FA92F8,10,0,1,40,0,26.400000005960464,39,0,474.699999988079,0,0,experiment,NA,NA,0,0.9,0.1,0,1,288,7,NA
fcp-trial,330,1377753,0.0-299.0-0.0,voc_e2,12269,"[{""event"":""fullscreenenter"",""trial"":1,""time"":3422},{""event"":""fullscreenexit"",""trial"":10,""time"":93911}]",NA,NA,NA,NA,NA,0,#D89F1C,#3386FF,0,0,1,40,0,63,39,0,470.40000000596046,0,0,experiment,NA,NA,2,0.5,0.5,4,5,289,7,NA
fcp-trial,331,1380545,0.0-300.0-0.0,voc_e2,12269,"[{""event"":""fullscreenenter"",""trial"":1,""time"":3422},{""event"":""fullscreenexit"",""trial"":10,""time"":93911}]",NA,NA,NA,NA,NA,0,#1CD855,#FA92F8,10,0,1,40,0,223.40000000596046,37,1,1063.5999999940395,10,1,experiment,NA,NA,0,0.9,0.1,0,1,290,7,NA
fcp-trial,332,1382760,0.0-301.0-0.0,voc_e2,12269,"[{""event"":""fullscreenenter"",""trial"":1,""time"":3422},{""event"":""fullscreenexit"",""trial"":10,""time"":93911}]",NA,NA,NA,NA,NA,4,#D8271C,#741CD8,0,0,1,40,0,324.59999999403954,39,0,382.09999999403954,0,0,experiment,NA,NA,1,0.7,0.3,2,3,291,7,NA
fcp-trial,333,1385001,0.0-302.0-0.0,voc_e2,12269,"[{""event"":""fullscreenenter"",""trial"":1,""time"":3422},{""event"":""fullscreenexit"",""trial"":10,""time"":93911}]",NA,NA,NA,NA,NA,4,#1CD855,#FA92F8,10,0,1,40,0,293.19999998807907,39,0,439.699999988079,0,0,experiment,NA,NA,0,0.9,0.1,0,1,292,7,NA
fcp-trial,334,1387241,0.0-303.0-0.0,voc_e2,12269,"[{""event"":""fullscreenenter"",""trial"":1,""time"":3422},{""event"":""fullscreenexit"",""trial"":10,""time"":93911}]",NA,NA,NA,NA,NA,5,#1CD855,#FA92F8,10,0,1,40,0,144.80000001192093,39,0,588.7000000178814,0,0,experiment,NA,NA,0,0.9,0.1,0,1,293,7,NA
fcp-trial,335,1390577,0.0-304.0-0.0,voc_e2,12269,"[{""event"":""fullscreenenter"",""trial"":1,""time"":3422},{""event"":""fullscreenexit"",""trial"":10,""time"":93911}]",NA,NA,NA,NA,NA,5,#D89F1C,#3386FF,0,0,1,40,0,759,37,1,1071.0999999940395,0,1,experiment,NA,NA,2,0.5,0.5,4,5,294,7,NA
fcp-trial,336,1395480,0.0-305.0-0.0,voc_e2,12269,"[{""event"":""fullscreenenter"",""trial"":1,""time"":3422},{""event"":""fullscreenexit"",""trial"":10,""time"":93911}]",NA,NA,NA,NA,NA,3,#741CD8,#D8271C,0,10,0,40,0,2838.2999999821186,39,0,556.9000000059605,10,1,experiment,NA,NA,1,0.3,0.7,3,2,295,7,NA
fcp-trial,337,1397840,0.0-306.0-0.0,voc_e2,12269,"[{""event"":""fullscreenenter"",""trial"":1,""time"":3422},{""event"":""fullscreenexit"",""trial"":10,""time"":93911}]",NA,NA,NA,NA,NA,5,#1CD855,#FA92F8,10,0,1,40,0,189.59999999403954,37,1,662.8999999761581,10,1,experiment,NA,NA,0,0.9,0.1,0,1,296,7,NA
fcp-trial,338,1400232,0.0-307.0-0.0,voc_e2,12269,"[{""event"":""fullscreenenter"",""trial"":1,""time"":3422},{""event"":""fullscreenexit"",""trial"":10,""time"":93911}]",NA,NA,NA,NA,NA,3,#1CD855,#FA92F8,10,0,1,40,0,336.2000000178814,37,1,550.8000000119209,10,1,experiment,NA,NA,0,0.9,0.1,0,1,297,7,NA
