trial_type,trial_index,time_elapsed,internal_node_id,task_version,subject_id,interactions,success,rt,stimulus,key_press,button_pressed,offer,arcade_color_L,arcade_color_R,arcade_outcome_L,arcade_outcome_R,correct,stage_1_key,stage_1_choice,stage_1_rt,stage_2_key,stage_2_choice,stage_2_rt,stage_3_outcome,accuracy,phase,responses,num_errors,context,reward_prob_L,reward_prob_R,arcade_id_L,arcade_id_R,trial,block,response
pavlovia,0,17,0.0-0.0,voc_e2,11752,[],NA,NA,NA,NA,NA,NA,NA,NA,NA,NA,NA,NA,NA,NA,NA,NA,NA,NA,NA,NA,NA,NA,NA,NA,NA,NA,NA,NA,NA,NA
fullscreen,1,4363,0.0-1.0,voc_e2,11752,"[{""event"":""fullscreenenter"",""trial"":1,""time"":3386}]",TRUE,NA,NA,NA,NA,NA,NA,NA,NA,NA,NA,NA,NA,NA,NA,NA,NA,NA,NA,NA,NA,NA,NA,NA,NA,NA,NA,NA,NA,NA
audio-keyboard-response,2,10504,0.0-2.0,voc_e2,11752,"[{""event"":""fullscreenenter"",""trial"":1,""time"":3386}]",NA,5941,static/audio/beep_loop.wav,32,NA,NA,NA,NA,NA,NA,NA,NA,NA,NA,NA,NA,NA,NA,NA,NA,NA,NA,NA,NA,NA,NA,NA,NA,NA,NA
audio-test,3,17288,0.0-3.0,voc_e2,11752,"[{""event"":""fullscreenenter"",""trial"":1,""time"":3386}]",NA,NA,static/audio/turtle.wav,NA,3,NA,NA,NA,NA,NA,NA,NA,NA,NA,NA,NA,NA,NA,NA,NA,NA,NA,NA,NA,NA,NA,NA,NA,NA,NA
audio-test,4,19625,0.0-4.0,voc_e2,11752,"[{""event"":""fullscreenenter"",""trial"":1,""time"":3386}]",NA,NA,static/audio/shark.wav,NA,2,NA,NA,NA,NA,NA,NA,NA,NA,NA,NA,NA,NA,NA,NA,NA,NA,NA,NA,NA,NA,NA,NA,NA,NA,NA
audio-instructions,5,26671,0.0-5.0-0.0,voc_e2,11752,"[{""event"":""fullscreenenter"",""trial"":1,""time"":3386}]",NA,1262.1000000089407,static/audio/instructions1.wav,NA,0,NA,NA,NA,NA,NA,NA,NA,NA,NA,NA,NA,NA,NA,NA,NA,NA,NA,NA,NA,NA,NA,NA,NA,NA,NA
audio-instructions,6,36503,0.0-5.0-1.0,voc_e2,11752,"[{""event"":""fullscreenenter"",""trial"":1,""time"":3386}]",NA,3095,static/audio/instructions2.wav,NA,0,NA,NA,NA,NA,NA,NA,NA,NA,NA,NA,NA,NA,NA,NA,NA,NA,NA,NA,NA,NA,NA,NA,NA,NA,NA
audio-instructions,7,43939,0.0-5.0-2.0,voc_e2,11752,"[{""event"":""fullscreenenter"",""trial"":1,""time"":3386}]",NA,1630.4000000059605,static/audio/instructions3.wav,NA,0,NA,NA,NA,NA,NA,NA,NA,NA,NA,NA,NA,NA,NA,NA,NA,NA,NA,NA,NA,NA,NA,NA,NA,NA,NA
audio-instructions,8,77691,0.0-5.0-3.0,voc_e2,11752,"[{""event"":""fullscreenenter"",""trial"":1,""time"":3386}]",NA,20522.09999999404,static/audio/instructions4.wav,NA,0,NA,NA,NA,NA,NA,NA,NA,NA,NA,NA,NA,NA,NA,NA,NA,NA,NA,NA,NA,NA,NA,NA,NA,NA,NA
audio-instructions,9,89717,0.0-5.0-4.0,voc_e2,11752,"[{""event"":""fullscreenenter"",""trial"":1,""time"":3386}]",NA,2638.5,static/audio/instructions5.wav,NA,0,NA,NA,NA,NA,NA,NA,NA,NA,NA,NA,NA,NA,NA,NA,NA,NA,NA,NA,NA,NA,NA,NA,NA,NA,NA
fcp-practice,10,95320,0.0-5.0-5.0-0.0,voc_e2,11752,"[{""event"":""fullscreenenter"",""trial"":1,""time"":3386}]",NA,NA,NA,NA,NA,NA,#EDC948,#46d3c8,10,0,1,null,null,null,37,1,4082.2000000029802,10,1,practice,NA,NA,NA,NA,NA,NA,NA,NA,NA,NA
fcp-practice,11,97921,0.0-5.0-5.0-1.0,voc_e2,11752,"[{""event"":""fullscreenenter"",""trial"":1,""time"":3386}]",NA,NA,NA,NA,NA,NA,#EDC948,#46d3c8,10,0,1,null,null,null,37,1,1082.7999999970198,10,1,practice,NA,NA,NA,NA,NA,NA,NA,NA,NA,NA
fcp-practice,12,99946,0.0-5.0-5.0-2.0,voc_e2,11752,"[{""event"":""fullscreenenter"",""trial"":1,""time"":3386}]",NA,NA,NA,NA,NA,NA,#EDC948,#46d3c8,0,10,1,null,null,null,37,1,512.5999999940395,0,1,practice,NA,NA,NA,NA,NA,NA,NA,NA,NA,NA
fcp-practice,13,102074,0.0-5.0-5.0-3.0,voc_e2,11752,"[{""event"":""fullscreenenter"",""trial"":1,""time"":3386}]",NA,NA,NA,NA,NA,NA,#EDC948,#46d3c8,10,0,1,null,null,null,37,1,606.4000000059605,10,1,practice,NA,NA,NA,NA,NA,NA,NA,NA,NA,NA
fcp-practice,14,104170,0.0-5.0-5.0-4.0,voc_e2,11752,"[{""event"":""fullscreenenter"",""trial"":1,""time"":3386}]",NA,NA,NA,NA,NA,NA,#EDC948,#46d3c8,10,0,1,null,null,null,37,1,572.7000000029802,10,1,practice,NA,NA,NA,NA,NA,NA,NA,NA,NA,NA
audio-instructions,15,128325,0.0-5.0-6.0,voc_e2,11752,"[{""event"":""fullscreenenter"",""trial"":1,""time"":3386}]",NA,6146.79999999702,static/audio/instructions6.wav,NA,0,NA,NA,NA,NA,NA,NA,NA,NA,NA,NA,NA,NA,NA,NA,NA,NA,NA,NA,NA,NA,NA,NA,NA,NA,NA
audio-instructions,16,152363,0.0-5.0-7.0,voc_e2,11752,"[{""event"":""fullscreenenter"",""trial"":1,""time"":3386}]",NA,4834.5999999940395,static/audio/instructions7.wav,NA,0,NA,NA,NA,NA,NA,NA,NA,NA,NA,NA,NA,NA,NA,NA,NA,NA,NA,NA,NA,NA,NA,NA,NA,NA,NA
audio-instructions,17,167158,0.0-5.0-8.0,voc_e2,11752,"[{""event"":""fullscreenenter"",""trial"":1,""time"":3386}]",NA,5320.20000000298,static/audio/instructions8.wav,NA,0,NA,NA,NA,NA,NA,NA,NA,NA,NA,NA,NA,NA,NA,NA,NA,NA,NA,NA,NA,NA,NA,NA,NA,NA,NA
fcp-comprehension,18,183925,0.0-5.0-9.0,voc_e2,11752,"[{""event"":""fullscreenenter"",""trial"":1,""time"":3386}]",NA,16764.79999999702,NA,NA,NA,NA,NA,NA,NA,NA,NA,NA,NA,NA,NA,NA,NA,NA,NA,NA,"false,true",1,NA,NA,NA,NA,NA,NA,NA,NA
audio-instructions,19,189946,0.0-5.1-0.1,voc_e2,11752,"[{""event"":""fullscreenenter"",""trial"":1,""time"":3386}]",NA,1238.5,static/audio/instructions1.wav,NA,0,NA,NA,NA,NA,NA,NA,NA,NA,NA,NA,NA,NA,NA,NA,NA,NA,NA,NA,NA,NA,NA,NA,NA,NA,NA
audio-instructions,20,198272,0.0-5.1-1.1,voc_e2,11752,"[{""event"":""fullscreenenter"",""trial"":1,""time"":3386}]",NA,1585.1000000089407,static/audio/instructions2.wav,NA,0,NA,NA,NA,NA,NA,NA,NA,NA,NA,NA,NA,NA,NA,NA,NA,NA,NA,NA,NA,NA,NA,NA,NA,NA,NA
audio-instructions,21,205640,0.0-5.1-2.1,voc_e2,11752,"[{""event"":""fullscreenenter"",""trial"":1,""time"":3386}]",NA,1562.5,static/audio/instructions3.wav,NA,0,NA,NA,NA,NA,NA,NA,NA,NA,NA,NA,NA,NA,NA,NA,NA,NA,NA,NA,NA,NA,NA,NA,NA,NA,NA
audio-instructions,22,220052,0.0-5.1-3.1,voc_e2,11752,"[{""event"":""fullscreenenter"",""trial"":1,""time"":3386}]",NA,1184.5999999940395,static/audio/instructions4.wav,NA,0,NA,NA,NA,NA,NA,NA,NA,NA,NA,NA,NA,NA,NA,NA,NA,NA,NA,NA,NA,NA,NA,NA,NA,NA,NA
audio-instructions,23,232274,0.0-5.1-4.1,voc_e2,11752,"[{""event"":""fullscreenenter"",""trial"":1,""time"":3386}]",NA,2835.8999999910593,static/audio/instructions5.wav,NA,0,NA,NA,NA,NA,NA,NA,NA,NA,NA,NA,NA,NA,NA,NA,NA,NA,NA,NA,NA,NA,NA,NA,NA,NA,NA
fcp-practice,24,235640,0.0-5.1-5.1-0.1,voc_e2,11752,"[{""event"":""fullscreenenter"",""trial"":1,""time"":3386}]",NA,NA,NA,NA,NA,NA,#EDC948,#46d3c8,10,0,1,null,null,null,37,1,1857.2000000029802,10,1,practice,NA,NA,NA,NA,NA,NA,NA,NA,NA,NA
fcp-practice,25,237594,0.0-5.1-5.1-1.1,voc_e2,11752,"[{""event"":""fullscreenenter"",""trial"":1,""time"":3386}]",NA,NA,NA,NA,NA,NA,#EDC948,#46d3c8,10,0,1,null,null,null,37,1,442.79999999701977,10,1,practice,NA,NA,NA,NA,NA,NA,NA,NA,NA,NA
fcp-practice,26,239470,0.0-5.1-5.1-2.1,voc_e2,11752,"[{""event"":""fullscreenenter"",""trial"":1,""time"":3386}]",NA,NA,NA,NA,NA,NA,#EDC948,#46d3c8,0,10,1,null,null,null,37,1,358.80000001192093,0,1,practice,NA,NA,NA,NA,NA,NA,NA,NA,NA,NA
fcp-practice,27,241446,0.0-5.1-5.1-3.1,voc_e2,11752,"[{""event"":""fullscreenenter"",""trial"":1,""time"":3386}]",NA,NA,NA,NA,NA,NA,#EDC948,#46d3c8,10,0,1,null,null,null,37,1,461.5,10,1,practice,NA,NA,NA,NA,NA,NA,NA,NA,NA,NA
fcp-practice,28,243359,0.0-5.1-5.1-4.1,voc_e2,11752,"[{""event"":""fullscreenenter"",""trial"":1,""time"":3386}]",NA,NA,NA,NA,NA,NA,#EDC948,#46d3c8,10,0,1,null,null,null,37,1,382.6000000089407,10,1,practice,NA,NA,NA,NA,NA,NA,NA,NA,NA,NA
audio-instructions,29,267163,0.0-5.1-6.1,voc_e2,11752,"[{""event"":""fullscreenenter"",""trial"":1,""time"":3386}]",NA,5786.5999999940395,static/audio/instructions6.wav,NA,0,NA,NA,NA,NA,NA,NA,NA,NA,NA,NA,NA,NA,NA,NA,NA,NA,NA,NA,NA,NA,NA,NA,NA,NA,NA
audio-instructions,30,288225,0.0-5.1-7.1,voc_e2,11752,"[{""event"":""fullscreenenter"",""trial"":1,""time"":3386}]",NA,1868.9000000059605,static/audio/instructions7.wav,NA,0,NA,NA,NA,NA,NA,NA,NA,NA,NA,NA,NA,NA,NA,NA,NA,NA,NA,NA,NA,NA,NA,NA,NA,NA,NA
audio-instructions,31,298749,0.0-5.1-8.1,voc_e2,11752,"[{""event"":""fullscreenenter"",""trial"":1,""time"":3386}]",NA,1052.5,static/audio/instructions8.wav,NA,0,NA,NA,NA,NA,NA,NA,NA,NA,NA,NA,NA,NA,NA,NA,NA,NA,NA,NA,NA,NA,NA,NA,NA,NA,NA
fcp-comprehension,32,318014,0.0-5.1-9.1,voc_e2,11752,"[{""event"":""fullscreenenter"",""trial"":1,""time"":3386}]",NA,19262.70000000298,NA,NA,NA,NA,NA,NA,NA,NA,NA,NA,NA,NA,NA,NA,NA,NA,NA,NA,"true,true",0,NA,NA,NA,NA,NA,NA,NA,NA
audio-instructions,33,326907,0.0-6.0-0.0,voc_e2,11752,"[{""event"":""fullscreenenter"",""trial"":1,""time"":3386}]",NA,3341,static/audio/instructions9.wav,NA,0,NA,NA,NA,NA,NA,NA,NA,NA,NA,NA,NA,NA,NA,NA,NA,NA,NA,NA,NA,NA,NA,NA,NA,NA,NA
audio-instructions,34,342275,0.0-6.0-1.0,voc_e2,11752,"[{""event"":""fullscreenenter"",""trial"":1,""time"":3386}]",NA,3248.79999999702,static/audio/instructions10.wav,NA,0,NA,NA,NA,NA,NA,NA,NA,NA,NA,NA,NA,NA,NA,NA,NA,NA,NA,NA,NA,NA,NA,NA,NA,NA,NA
fcp-trial,35,349326,0.0-6.0-2.0,voc_e2,11752,"[{""event"":""fullscreenenter"",""trial"":1,""time"":3386}]",NA,NA,NA,NA,NA,0,#EDC948,#46d3c8,10,10,1,38,1,3601.6000000089407,37,1,1918.8999999910593,10,1,practice,NA,NA,NA,NA,NA,NA,NA,NA,NA,NA
audio-instructions,36,363563,0.0-6.0-3.0,voc_e2,11752,"[{""event"":""fullscreenenter"",""trial"":1,""time"":3386}]",NA,3226.300000011921,static/audio/instructions11.wav,NA,0,NA,NA,NA,NA,NA,NA,NA,NA,NA,NA,NA,NA,NA,NA,NA,NA,NA,NA,NA,NA,NA,NA,NA,NA,NA
fcp-trial,37,378576,0.0-6.0-4.0,voc_e2,11752,"[{""event"":""fullscreenenter"",""trial"":1,""time"":3386}]",NA,NA,NA,NA,NA,6,#EDC948,#46d3c8,10,10,1,null,null,null,null,null,null,NA,0,practice,NA,NA,NA,NA,NA,NA,NA,NA,NA,NA
audio-instructions,38,401003,0.0-6.0-5.0,voc_e2,11752,"[{""event"":""fullscreenenter"",""trial"":1,""time"":3386}]",NA,3736.400000005961,static/audio/instructions12.wav,NA,0,NA,NA,NA,NA,NA,NA,NA,NA,NA,NA,NA,NA,NA,NA,NA,NA,NA,NA,NA,NA,NA,NA,NA,NA,NA
audio-instructions,39,410749,0.0-6.0-6.0,voc_e2,11752,"[{""event"":""fullscreenenter"",""trial"":1,""time"":3386}]",NA,2142.29999999702,static/audio/instructions13.wav,NA,0,NA,NA,NA,NA,NA,NA,NA,NA,NA,NA,NA,NA,NA,NA,NA,NA,NA,NA,NA,NA,NA,NA,NA,NA,NA
audio-instructions,40,420559,0.0-6.0-7.0,voc_e2,11752,"[{""event"":""fullscreenenter"",""trial"":1,""time"":3386}]",NA,1363.0999999940395,static/audio/instructions14.wav,NA,0,NA,NA,NA,NA,NA,NA,NA,NA,NA,NA,NA,NA,NA,NA,NA,NA,NA,NA,NA,NA,NA,NA,NA,NA,NA
audio-instructions,41,429022,0.0-7.0-0.0,voc_e2,11752,"[{""event"":""fullscreenenter"",""trial"":1,""time"":3386}]",NA,1546.5999999940395,static/audio/instructions15.wav,NA,0,NA,NA,NA,NA,NA,NA,NA,NA,NA,NA,NA,NA,NA,NA,NA,NA,NA,NA,NA,NA,NA,NA,NA,NA,NA
audio-instructions,42,436458,0.0-7.0-1.0,voc_e2,11752,"[{""event"":""fullscreenenter"",""trial"":1,""time"":3386}]",NA,602.9000000059605,static/audio/instructions16.wav,NA,0,NA,NA,NA,NA,NA,NA,NA,NA,NA,NA,NA,NA,NA,NA,NA,NA,NA,NA,NA,NA,NA,NA,NA,NA,NA
audio-instructions,43,444722,0.0-7.0-2.0,voc_e2,11752,"[{""event"":""fullscreenenter"",""trial"":1,""time"":3386}]",NA,586.8999999910593,static/audio/instructions17.wav,NA,0,NA,NA,NA,NA,NA,NA,NA,NA,NA,NA,NA,NA,NA,NA,NA,NA,NA,NA,NA,NA,NA,NA,NA,NA,NA
audio-instructions,44,453288,0.0-7.0-3.0,voc_e2,11752,"[{""event"":""fullscreenenter"",""trial"":1,""time"":3386}]",NA,792.8999999910593,static/audio/instructions18.wav,NA,0,NA,NA,NA,NA,NA,NA,NA,NA,NA,NA,NA,NA,NA,NA,NA,NA,NA,NA,NA,NA,NA,NA,NA,NA,NA
audio-instructions,45,460540,0.0-7.0-4.0,voc_e2,11752,"[{""event"":""fullscreenenter"",""trial"":1,""time"":3386}]",NA,504.20000000298023,static/audio/instructions19.wav,NA,0,NA,NA,NA,NA,NA,NA,NA,NA,NA,NA,NA,NA,NA,NA,NA,NA,NA,NA,NA,NA,NA,NA,NA,NA,NA
fcp-comprehension,46,538720,0.0-7.0-5.0,voc_e2,11752,"[{""event"":""fullscreenenter"",""trial"":1,""time"":3386}]",NA,78178.29999999702,NA,NA,NA,NA,NA,NA,NA,NA,NA,NA,NA,NA,NA,NA,NA,NA,NA,NA,"false,false,false,true",0,NA,NA,NA,NA,NA,NA,NA,NA
audio-instructions,47,559121,0.0-8.0,voc_e2,11752,"[{""event"":""fullscreenenter"",""trial"":1,""time"":3386}]",NA,11104.59999999404,static/audio/ready.wav,NA,0,NA,NA,NA,NA,NA,NA,NA,NA,NA,NA,NA,NA,NA,NA,NA,NA,NA,NA,NA,NA,NA,NA,NA,NA,NA
fcp-trial,48,562749,0.0-9.0-0.0,voc_e2,11752,"[{""event"":""fullscreenenter"",""trial"":1,""time"":3386}]",NA,NA,NA,NA,NA,1,#1CD855,#FA92F8,10,0,0,38,1,927.3999999910593,37,1,1176,10,0,experiment,NA,NA,1,0.3,0.7,3,2,1,1,NA
fcp-trial,49,566606,0.0-10.0-0.0,voc_e2,11752,"[{""event"":""fullscreenenter"",""trial"":1,""time"":3386}]",NA,NA,NA,NA,NA,1,#D89F1C,#3386FF,10,0,1,38,1,842.1000000089407,37,1,1490.7000000029802,10,1,experiment,NA,NA,0,0.9,0.1,0,1,2,1,NA
fcp-trial,50,569797,0.0-11.0-0.0,voc_e2,11752,"[{""event"":""fullscreenenter"",""trial"":1,""time"":3386}]",NA,NA,NA,NA,NA,4,#1CD855,#FA92F8,0,10,0,38,1,834.6000000089407,37,1,835.2000000029802,0,0,experiment,NA,NA,1,0.3,0.7,3,2,3,1,NA
fcp-trial,51,573311,0.0-12.0-0.0,voc_e2,11752,"[{""event"":""fullscreenenter"",""trial"":1,""time"":3386}]",NA,NA,NA,NA,NA,2,#741CD8,#D8271C,0,10,1,38,1,1088.2999999970198,39,0,892.6000000089407,10,0,experiment,NA,NA,2,0.5,0.5,4,5,4,1,NA
fcp-trial,52,577570,0.0-13.0-0.0,voc_e2,11752,"[{""event"":""fullscreenenter"",""trial"":1,""time"":3386}]",NA,NA,NA,NA,NA,3,#FA92F8,#1CD855,0,0,1,38,1,2054.3999999910593,37,1,680.2000000029802,0,1,experiment,NA,NA,1,0.7,0.3,2,3,5,1,NA
fcp-trial,53,580466,0.0-14.0-0.0,voc_e2,11752,"[{""event"":""fullscreenenter"",""trial"":1,""time"":3386}]",NA,NA,NA,NA,NA,3,#3386FF,#D89F1C,0,10,0,38,1,772,37,1,603.4000000059605,0,0,experiment,NA,NA,0,0.1,0.9,1,0,6,1,NA
fcp-trial,54,583502,0.0-15.0-0.0,voc_e2,11752,"[{""event"":""fullscreenenter"",""trial"":1,""time"":3386}]",NA,NA,NA,NA,NA,6,#FA92F8,#1CD855,10,0,1,38,1,665.5999999940395,39,0,856.2999999970198,0,0,experiment,NA,NA,1,0.7,0.3,2,3,7,1,NA
fcp-trial,55,586199,0.0-16.0-0.0,voc_e2,11752,"[{""event"":""fullscreenenter"",""trial"":1,""time"":3386}]",NA,NA,NA,NA,NA,4,#3386FF,#D89F1C,0,10,0,38,1,500.29999999701977,37,1,666.8000000119209,0,0,experiment,NA,NA,0,0.1,0.9,1,0,8,1,NA
fcp-trial,56,589041,0.0-17.0-0.0,voc_e2,11752,"[{""event"":""fullscreenenter"",""trial"":1,""time"":3386}]",NA,NA,NA,NA,NA,4,#741CD8,#D8271C,10,10,1,38,1,447,39,0,865.3999999910593,10,0,experiment,NA,NA,2,0.5,0.5,4,5,9,1,NA
fcp-trial,57,591898,0.0-18.0-0.0,voc_e2,11752,"[{""event"":""fullscreenenter"",""trial"":1,""time"":3386}]",NA,NA,NA,NA,NA,5,#1CD855,#FA92F8,0,10,0,38,1,626.2000000029802,39,0,714.1000000089407,10,1,experiment,NA,NA,1,0.3,0.7,3,2,10,1,NA
fcp-trial,58,594951,0.0-19.0-0.0,voc_e2,11752,"[{""event"":""fullscreenenter"",""trial"":1,""time"":3386}]",NA,NA,NA,NA,NA,0,#D89F1C,#3386FF,10,0,1,38,1,803.7999999970198,37,1,722.1999999880791,10,1,experiment,NA,NA,0,0.9,0.1,0,1,11,1,NA
fcp-trial,59,597876,0.0-20.0-0.0,voc_e2,11752,"[{""event"":""fullscreenenter"",""trial"":1,""time"":3386}]",NA,NA,NA,NA,NA,2,#D89F1C,#3386FF,10,0,1,38,1,826.8999999910593,37,1,579.6000000089407,10,1,experiment,NA,NA,0,0.9,0.1,0,1,12,1,NA
fcp-trial,60,600820,0.0-21.0-0.0,voc_e2,11752,"[{""event"":""fullscreenenter"",""trial"":1,""time"":3386}]",NA,NA,NA,NA,NA,6,#741CD8,#D8271C,0,10,1,38,1,695.5,39,0,730.3000000119209,10,0,experiment,NA,NA,2,0.5,0.5,4,5,13,1,NA
fcp-trial,61,603617,0.0-22.0-0.0,voc_e2,11752,"[{""event"":""fullscreenenter"",""trial"":1,""time"":3386}]",NA,NA,NA,NA,NA,3,#D8271C,#741CD8,0,10,0,38,1,623.2000000029802,37,1,653.4000000059605,0,0,experiment,NA,NA,2,0.5,0.5,5,4,14,1,NA
fcp-trial,62,606648,0.0-23.0-0.0,voc_e2,11752,"[{""event"":""fullscreenenter"",""trial"":1,""time"":3386}]",NA,NA,NA,NA,NA,2,#FA92F8,#1CD855,10,0,1,38,1,577.1000000089407,37,1,928.5,10,1,experiment,NA,NA,1,0.7,0.3,2,3,15,1,NA
fcp-trial,63,610480,0.0-24.0-0.0,voc_e2,11752,"[{""event"":""fullscreenenter"",""trial"":1,""time"":3386}]",NA,NA,NA,NA,NA,5,#D8271C,#741CD8,0,10,0,38,1,533.0999999940395,37,1,1770,0,0,experiment,NA,NA,2,0.5,0.5,5,4,16,1,NA
fcp-trial,64,613212,0.0-25.0-0.0,voc_e2,11752,"[{""event"":""fullscreenenter"",""trial"":1,""time"":3386}]",NA,NA,NA,NA,NA,5,#3386FF,#D89F1C,0,0,0,38,1,571.2999999970198,39,0,634,0,1,experiment,NA,NA,0,0.1,0.9,1,0,17,1,NA
fcp-trial,65,615829,0.0-26.0-0.0,voc_e2,11752,"[{""event"":""fullscreenenter"",""trial"":1,""time"":3386}]",NA,NA,NA,NA,NA,0,#1CD855,#FA92F8,0,10,0,38,1,470.5,37,1,626.7000000029802,0,0,experiment,NA,NA,1,0.3,0.7,3,2,18,1,NA
fcp-trial,66,618527,0.0-27.0-0.0,voc_e2,11752,"[{""event"":""fullscreenenter"",""trial"":1,""time"":3386}]",NA,NA,NA,NA,NA,0,#D8271C,#741CD8,10,10,0,38,1,441.59999999403954,37,1,731.5999999940395,10,0,experiment,NA,NA,2,0.5,0.5,5,4,19,1,NA
fcp-trial,67,621289,0.0-28.0-0.0,voc_e2,11752,"[{""event"":""fullscreenenter"",""trial"":1,""time"":3386}]",NA,NA,NA,NA,NA,6,#D89F1C,#3386FF,10,0,1,38,1,550.2000000029802,39,0,684.7000000029802,0,0,experiment,NA,NA,0,0.9,0.1,0,1,20,1,NA
fcp-trial,68,623962,0.0-29.0-0.0,voc_e2,11752,"[{""event"":""fullscreenenter"",""trial"":1,""time"":3386}]",NA,NA,NA,NA,NA,1,#D8271C,#741CD8,0,10,0,38,1,586.5,37,1,572.2000000029802,0,0,experiment,NA,NA,2,0.5,0.5,5,4,21,1,NA
fcp-trial,69,626851,0.0-30.0-0.0,voc_e2,11752,"[{""event"":""fullscreenenter"",""trial"":1,""time"":3386}]",NA,NA,NA,NA,NA,2,#3386FF,#D89F1C,0,10,0,38,1,722,39,0,650.2999999970198,10,1,experiment,NA,NA,0,0.1,0.9,1,0,22,1,NA
fcp-trial,70,629530,0.0-31.0-0.0,voc_e2,11752,"[{""event"":""fullscreenenter"",""trial"":1,""time"":3386}]",NA,NA,NA,NA,NA,6,#1CD855,#FA92F8,0,10,0,38,1,508.20000000298023,39,0,661.7999999970198,10,1,experiment,NA,NA,1,0.3,0.7,3,2,23,1,NA
fcp-trial,71,632396,0.0-32.0-0.0,voc_e2,11752,"[{""event"":""fullscreenenter"",""trial"":1,""time"":3386}]",NA,NA,NA,NA,NA,2,#D8271C,#741CD8,10,10,0,38,1,582.3000000119209,37,1,765.0999999940395,10,0,experiment,NA,NA,2,0.5,0.5,5,4,24,1,NA
fcp-trial,72,635022,0.0-33.0-0.0,voc_e2,11752,"[{""event"":""fullscreenenter"",""trial"":1,""time"":3386}]",NA,NA,NA,NA,NA,5,#FA92F8,#1CD855,10,0,1,38,1,555.9000000059605,37,1,562.5999999940395,10,1,experiment,NA,NA,1,0.7,0.3,2,3,25,1,NA
fcp-trial,73,637601,0.0-34.0-0.0,voc_e2,11752,"[{""event"":""fullscreenenter"",""trial"":1,""time"":3386}]",NA,NA,NA,NA,NA,3,#D89F1C,#3386FF,10,0,1,38,1,509.90000000596046,37,1,555,10,1,experiment,NA,NA,0,0.9,0.1,0,1,26,1,NA
fcp-trial,74,640187,0.0-35.0-0.0,voc_e2,11752,"[{""event"":""fullscreenenter"",""trial"":1,""time"":3386}]",NA,NA,NA,NA,NA,0,#FA92F8,#1CD855,10,0,1,38,1,469.70000000298023,39,0,586.2000000029802,0,0,experiment,NA,NA,1,0.7,0.3,2,3,27,1,NA
fcp-trial,75,642866,0.0-36.0-0.0,voc_e2,11752,"[{""event"":""fullscreenenter"",""trial"":1,""time"":3386}]",NA,NA,NA,NA,NA,5,#3386FF,#D89F1C,0,10,0,38,1,585.7999999970198,39,0,569.6000000089407,10,1,experiment,NA,NA,0,0.1,0.9,1,0,28,1,NA
fcp-trial,76,645915,0.0-37.0-0.0,voc_e2,11752,"[{""event"":""fullscreenenter"",""trial"":1,""time"":3386}]",NA,NA,NA,NA,NA,3,#741CD8,#D8271C,10,0,1,38,1,394.30000001192093,39,0,1121.5999999940395,0,0,experiment,NA,NA,2,0.5,0.5,4,5,29,1,NA
fcp-trial,77,649240,0.0-38.0-0.0,voc_e2,11752,"[{""event"":""fullscreenenter"",""trial"":1,""time"":3386}]",NA,NA,NA,NA,NA,1,#1CD855,#FA92F8,0,0,0,38,1,479.20000000298023,39,0,1322.5,0,1,experiment,NA,NA,1,0.3,0.7,3,2,30,1,NA
fcp-trial,78,651928,0.0-39.0-0.0,voc_e2,11752,"[{""event"":""fullscreenenter"",""trial"":1,""time"":3386}]",NA,NA,NA,NA,NA,5,#D8271C,#741CD8,0,0,0,38,1,463.29999999701977,37,1,701.0999999940395,0,0,experiment,NA,NA,2,0.5,0.5,5,4,31,1,NA
fcp-trial,79,654840,0.0-40.0-0.0,voc_e2,11752,"[{""event"":""fullscreenenter"",""trial"":1,""time"":3386}]",NA,NA,NA,NA,NA,4,#741CD8,#D8271C,0,10,1,38,1,479.09999999403954,39,0,905.7999999970198,10,0,experiment,NA,NA,2,0.5,0.5,4,5,32,1,NA
fcp-trial,80,657320,0.0-41.0-0.0,voc_e2,11752,"[{""event"":""fullscreenenter"",""trial"":1,""time"":3386}]",NA,NA,NA,NA,NA,4,#D89F1C,#3386FF,10,0,1,38,1,327.3999999910593,37,1,630.5,10,1,experiment,NA,NA,0,0.9,0.1,0,1,33,1,NA
fcp-trial,81,659686,0.0-42.0-0.0,voc_e2,11752,"[{""event"":""fullscreenenter"",""trial"":1,""time"":3386}]",NA,NA,NA,NA,NA,1,#3386FF,#D89F1C,0,10,0,38,1,329.80000001192093,39,0,520.5999999940395,10,1,experiment,NA,NA,0,0.1,0.9,1,0,34,1,NA
fcp-trial,82,662510,0.0-43.0-0.0,voc_e2,11752,"[{""event"":""fullscreenenter"",""trial"":1,""time"":3386}]",NA,NA,NA,NA,NA,2,#1CD855,#FA92F8,0,0,0,38,1,1043.7000000029802,39,0,263.6000000089407,0,1,experiment,NA,NA,1,0.3,0.7,3,2,35,1,NA
fcp-trial,83,665486,0.0-44.0-0.0,voc_e2,11752,"[{""event"":""fullscreenenter"",""trial"":1,""time"":3386}]",NA,NA,NA,NA,NA,1,#741CD8,#D8271C,10,0,1,38,1,689.5999999940395,39,0,775.7999999970198,0,0,experiment,NA,NA,2,0.5,0.5,4,5,36,1,NA
fcp-trial,84,667999,0.0-45.0-0.0,voc_e2,11752,"[{""event"":""fullscreenenter"",""trial"":1,""time"":3386}]",NA,NA,NA,NA,NA,0,#741CD8,#D8271C,0,0,1,38,1,597.5,39,0,396,0,0,experiment,NA,NA,2,0.5,0.5,4,5,37,1,NA
fcp-trial,85,670825,0.0-46.0-0.0,voc_e2,11752,"[{""event"":""fullscreenenter"",""trial"":1,""time"":3386}]",NA,NA,NA,NA,NA,3,#1CD855,#FA92F8,10,10,0,38,1,751.7999999970198,39,0,566,10,1,experiment,NA,NA,1,0.3,0.7,3,2,38,1,NA
fcp-trial,86,673490,0.0-47.0-0.0,voc_e2,11752,"[{""event"":""fullscreenenter"",""trial"":1,""time"":3386}]",NA,NA,NA,NA,NA,6,#D89F1C,#3386FF,10,0,1,38,1,639.7000000029802,37,1,504,10,1,experiment,NA,NA,0,0.9,0.1,0,1,39,1,NA
fcp-trial,87,675987,0.0-48.0-0.0,voc_e2,11752,"[{""event"":""fullscreenenter"",""trial"":1,""time"":3386}]",NA,NA,NA,NA,NA,4,#FA92F8,#1CD855,10,0,1,38,1,528.2999999970198,37,1,449.09999999403954,10,1,experiment,NA,NA,1,0.7,0.3,2,3,40,1,NA
fcp-trial,88,678789,0.0-49.0-0.0,voc_e2,11752,"[{""event"":""fullscreenenter"",""trial"":1,""time"":3386}]",NA,NA,NA,NA,NA,6,#741CD8,#D8271C,10,10,1,38,1,602.6000000089407,39,0,673.5999999940395,10,0,experiment,NA,NA,2,0.5,0.5,4,5,41,1,NA
fcp-trial,89,682050,0.0-50.0-0.0,voc_e2,11752,"[{""event"":""fullscreenenter"",""trial"":1,""time"":3386}]",NA,NA,NA,NA,NA,0,#3386FF,#D89F1C,10,10,0,38,1,766.3999999910593,39,0,969.7000000029802,10,1,experiment,NA,NA,0,0.1,0.9,1,0,42,1,NA
fcp-trial,90,684375,0.0-51.0-0.0,voc_e2,11752,"[{""event"":""fullscreenenter"",""trial"":1,""time"":3386}]",NA,NA,NA,NA,NA,0,#D8271C,#741CD8,10,10,0,38,1,447.5,37,1,348.79999999701977,10,0,experiment,NA,NA,2,0.5,0.5,5,4,43,1,NA
fcp-trial,91,686871,0.0-52.0-0.0,voc_e2,11752,"[{""event"":""fullscreenenter"",""trial"":1,""time"":3386}]",NA,NA,NA,NA,NA,1,#D89F1C,#3386FF,10,0,1,38,1,449.59999999403954,37,1,531.5,10,1,experiment,NA,NA,0,0.9,0.1,0,1,44,1,NA
fcp-trial,92,689245,0.0-53.0-0.0,voc_e2,11752,"[{""event"":""fullscreenenter"",""trial"":1,""time"":3386}]",NA,NA,NA,NA,NA,0,#1CD855,#FA92F8,0,10,0,38,1,519.7999999970198,39,0,333.3999999910593,10,1,experiment,NA,NA,1,0.3,0.7,3,2,45,1,NA
fcp-trial,93,691859,0.0-54.0-0.0,voc_e2,11752,"[{""event"":""fullscreenenter"",""trial"":1,""time"":3386}]",NA,NA,NA,NA,NA,2,#D89F1C,#3386FF,10,0,1,38,1,646.7000000029802,37,1,449.19999998807907,10,1,experiment,NA,NA,0,0.9,0.1,0,1,46,2,NA
fcp-trial,94,694400,0.0-55.0-0.0,voc_e2,11752,"[{""event"":""fullscreenenter"",""trial"":1,""time"":3386}]",NA,NA,NA,NA,NA,6,#D8271C,#741CD8,0,10,0,38,1,407,37,1,610.6000000089407,0,0,experiment,NA,NA,2,0.5,0.5,5,4,47,2,NA
fcp-trial,95,696835,0.0-56.0-0.0,voc_e2,11752,"[{""event"":""fullscreenenter"",""trial"":1,""time"":3386}]",NA,NA,NA,NA,NA,5,#1CD855,#FA92F8,0,10,0,38,1,355.8999999910593,39,0,553.3999999910593,10,1,experiment,NA,NA,1,0.3,0.7,3,2,48,2,NA
fcp-trial,96,699466,0.0-57.0-0.0,voc_e2,11752,"[{""event"":""fullscreenenter"",""trial"":1,""time"":3386}]",NA,NA,NA,NA,NA,4,#D89F1C,#3386FF,0,0,1,38,1,365.09999999403954,37,1,741.8999999910593,0,1,experiment,NA,NA,0,0.9,0.1,0,1,49,2,NA
fcp-trial,97,701891,0.0-58.0-0.0,voc_e2,11752,"[{""event"":""fullscreenenter"",""trial"":1,""time"":3386}]",NA,NA,NA,NA,NA,3,#1CD855,#FA92F8,0,10,0,38,1,378.40000000596046,37,1,522.4000000059605,0,0,experiment,NA,NA,1,0.3,0.7,3,2,50,2,NA
fcp-trial,98,704400,0.0-59.0-0.0,voc_e2,11752,"[{""event"":""fullscreenenter"",""trial"":1,""time"":3386}]",NA,NA,NA,NA,NA,0,#D89F1C,#3386FF,10,0,1,38,1,315.79999999701977,37,1,668.9000000059605,10,1,experiment,NA,NA,0,0.9,0.1,0,1,51,2,NA
fcp-trial,99,706837,0.0-60.0-0.0,voc_e2,11752,"[{""event"":""fullscreenenter"",""trial"":1,""time"":3386}]",NA,NA,NA,NA,NA,1,#D8271C,#741CD8,10,10,0,38,1,382.70000000298023,37,1,527.8000000119209,10,0,experiment,NA,NA,2,0.5,0.5,5,4,52,2,NA
fcp-trial,100,709299,0.0-61.0-0.0,voc_e2,11752,"[{""event"":""fullscreenenter"",""trial"":1,""time"":3386}]",NA,NA,NA,NA,NA,3,#3386FF,#D89F1C,0,10,0,38,1,360.6000000089407,39,0,576.2000000029802,10,1,experiment,NA,NA,0,0.1,0.9,1,0,53,2,NA
fcp-trial,101,711687,0.0-62.0-0.0,voc_e2,11752,"[{""event"":""fullscreenenter"",""trial"":1,""time"":3386}]",NA,NA,NA,NA,NA,3,#741CD8,#D8271C,0,0,1,38,1,324.8999999910593,39,0,529.2999999970198,0,0,experiment,NA,NA,2,0.5,0.5,4,5,54,2,NA
fcp-trial,102,714107,0.0-63.0-0.0,voc_e2,11752,"[{""event"":""fullscreenenter"",""trial"":1,""time"":3386}]",NA,NA,NA,NA,NA,4,#1CD855,#FA92F8,0,10,0,38,1,333.19999998807907,37,1,560.7000000029802,0,0,experiment,NA,NA,1,0.3,0.7,3,2,55,2,NA
fcp-trial,103,716516,0.0-64.0-0.0,voc_e2,11752,"[{""event"":""fullscreenenter"",""trial"":1,""time"":3386}]",NA,NA,NA,NA,NA,6,#D89F1C,#3386FF,10,0,1,38,1,392.5,37,1,492.3999999910593,10,1,experiment,NA,NA,0,0.9,0.1,0,1,56,2,NA
fcp-trial,104,719278,0.0-65.0-0.0,voc_e2,11752,"[{""event"":""fullscreenenter"",""trial"":1,""time"":3386}]",NA,NA,NA,NA,NA,5,#D8271C,#741CD8,0,0,0,38,1,697.2999999970198,37,1,546,0,0,experiment,NA,NA,2,0.5,0.5,5,4,57,2,NA
fcp-trial,105,721921,0.0-66.0-0.0,voc_e2,11752,"[{""event"":""fullscreenenter"",""trial"":1,""time"":3386}]",NA,NA,NA,NA,NA,1,#1CD855,#FA92F8,0,10,0,38,1,591.2000000029802,39,0,540.0999999940395,10,1,experiment,NA,NA,1,0.3,0.7,3,2,58,2,NA
fcp-trial,106,724428,0.0-67.0-0.0,voc_e2,11752,"[{""event"":""fullscreenenter"",""trial"":1,""time"":3386}]",NA,NA,NA,NA,NA,2,#741CD8,#D8271C,0,0,1,38,1,420.20000000298023,39,0,560.2999999970198,0,0,experiment,NA,NA,2,0.5,0.5,4,5,59,2,NA
fcp-trial,107,726881,0.0-68.0-0.0,voc_e2,11752,"[{""event"":""fullscreenenter"",""trial"":1,""time"":3386}]",NA,NA,NA,NA,NA,4,#741CD8,#D8271C,10,0,1,38,1,457.70000000298023,39,0,467.40000000596046,0,0,experiment,NA,NA,2,0.5,0.5,4,5,60,2,NA
fcp-trial,108,729941,0.0-69.0-0.0,voc_e2,11752,"[{""event"":""fullscreenenter"",""trial"":1,""time"":3386}]",NA,NA,NA,NA,NA,5,#D89F1C,#3386FF,10,0,1,38,1,340.6000000089407,37,1,1204.7000000029802,10,1,experiment,NA,NA,0,0.9,0.1,0,1,61,2,NA
fcp-trial,109,732303,0.0-70.0-0.0,voc_e2,11752,"[{""event"":""fullscreenenter"",""trial"":1,""time"":3386}]",NA,NA,NA,NA,NA,2,#FA92F8,#1CD855,10,0,1,38,1,341,37,1,508.09999999403954,10,1,experiment,NA,NA,1,0.7,0.3,2,3,62,2,NA
fcp-trial,110,734649,0.0-71.0-0.0,voc_e2,11752,"[{""event"":""fullscreenenter"",""trial"":1,""time"":3386}]",NA,NA,NA,NA,NA,6,#1CD855,#FA92F8,0,10,0,38,1,358.79999999701977,39,0,475,10,1,experiment,NA,NA,1,0.3,0.7,3,2,63,2,NA
fcp-trial,111,737133,0.0-72.0-0.0,voc_e2,11752,"[{""event"":""fullscreenenter"",""trial"":1,""time"":3386}]",NA,NA,NA,NA,NA,6,#D8271C,#741CD8,10,10,0,38,1,378.79999999701977,37,1,588,10,0,experiment,NA,NA,2,0.5,0.5,5,4,64,2,NA
fcp-trial,112,739740,0.0-73.0-0.0,voc_e2,11752,"[{""event"":""fullscreenenter"",""trial"":1,""time"":3386}]",NA,NA,NA,NA,NA,3,#D8271C,#741CD8,10,0,0,38,1,467.79999999701977,37,1,618,10,0,experiment,NA,NA,2,0.5,0.5,5,4,65,2,NA
fcp-trial,113,742066,0.0-74.0-0.0,voc_e2,11752,"[{""event"":""fullscreenenter"",""trial"":1,""time"":3386}]",NA,NA,NA,NA,NA,2,#741CD8,#D8271C,10,10,1,38,1,354.90000000596046,39,0,448.3999999910593,10,0,experiment,NA,NA,2,0.5,0.5,4,5,66,2,NA
fcp-trial,114,744396,0.0-75.0-0.0,voc_e2,11752,"[{""event"":""fullscreenenter"",""trial"":1,""time"":3386}]",NA,NA,NA,NA,NA,4,#FA92F8,#1CD855,0,0,1,38,1,329.20000000298023,37,1,470.79999999701977,0,1,experiment,NA,NA,1,0.7,0.3,2,3,67,2,NA
fcp-trial,115,747308,0.0-76.0-0.0,voc_e2,11752,"[{""event"":""fullscreenenter"",""trial"":1,""time"":3386}]",NA,NA,NA,NA,NA,4,#D89F1C,#3386FF,10,0,1,38,1,402,37,1,986.1999999880791,10,1,experiment,NA,NA,0,0.9,0.1,0,1,68,2,NA
fcp-trial,116,750126,0.0-77.0-0.0,voc_e2,11752,"[{""event"":""fullscreenenter"",""trial"":1,""time"":3386}]",NA,NA,NA,NA,NA,5,#1CD855,#FA92F8,0,10,0,38,1,497.1000000089407,39,0,800.2999999970198,10,1,experiment,NA,NA,1,0.3,0.7,3,2,69,2,NA
fcp-trial,117,752929,0.0-78.0-0.0,voc_e2,11752,"[{""event"":""fullscreenenter"",""trial"":1,""time"":3386}]",NA,NA,NA,NA,NA,5,#3386FF,#D89F1C,0,10,0,38,1,698,39,0,583.1000000089407,10,1,experiment,NA,NA,0,0.1,0.9,1,0,70,2,NA
fcp-trial,118,755658,0.0-79.0-0.0,voc_e2,11752,"[{""event"":""fullscreenenter"",""trial"":1,""time"":3386}]",NA,NA,NA,NA,NA,5,#741CD8,#D8271C,0,10,1,38,1,690.2000000029802,39,0,529.1000000089407,10,0,experiment,NA,NA,2,0.5,0.5,4,5,71,2,NA
fcp-trial,119,758391,0.0-80.0-0.0,voc_e2,11752,"[{""event"":""fullscreenenter"",""trial"":1,""time"":3386}]",NA,NA,NA,NA,NA,3,#D89F1C,#3386FF,10,0,1,38,1,704.5999999940395,37,1,506,10,1,experiment,NA,NA,0,0.9,0.1,0,1,72,2,NA
fcp-trial,120,760835,0.0-81.0-0.0,voc_e2,11752,"[{""event"":""fullscreenenter"",""trial"":1,""time"":3386}]",NA,NA,NA,NA,NA,4,#D8271C,#741CD8,10,10,0,38,1,463.3999999910593,37,1,465.70000000298023,10,0,experiment,NA,NA,2,0.5,0.5,5,4,73,2,NA
fcp-trial,121,763343,0.0-82.0-0.0,voc_e2,11752,"[{""event"":""fullscreenenter"",""trial"":1,""time"":3386}]",NA,NA,NA,NA,NA,0,#1CD855,#FA92F8,10,10,0,38,1,488.79999999701977,39,0,490.40000000596046,10,1,experiment,NA,NA,1,0.3,0.7,3,2,74,2,NA
fcp-trial,122,766314,0.0-83.0-0.0,voc_e2,11752,"[{""event"":""fullscreenenter"",""trial"":1,""time"":3386}]",NA,NA,NA,NA,NA,0,#3386FF,#D89F1C,0,10,0,38,1,687.3999999910593,39,0,764.7999999970198,10,1,experiment,NA,NA,0,0.1,0.9,1,0,75,2,NA
fcp-trial,123,769259,0.0-84.0-0.0,voc_e2,11752,"[{""event"":""fullscreenenter"",""trial"":1,""time"":3386}]",NA,NA,NA,NA,NA,6,#FA92F8,#1CD855,0,10,1,38,1,689.9000000059605,39,0,737.5,10,0,experiment,NA,NA,1,0.7,0.3,2,3,76,2,NA
fcp-trial,124,773894,0.0-85.0-0.0,voc_e2,11752,"[{""event"":""fullscreenenter"",""trial"":1,""time"":3386}]",NA,NA,NA,NA,NA,2,#FA92F8,#1CD855,10,10,1,38,1,2753.2000000029802,39,0,353.20000000298023,10,0,experiment,NA,NA,1,0.7,0.3,2,3,77,2,NA
fcp-trial,125,776677,0.0-86.0-0.0,voc_e2,11752,"[{""event"":""fullscreenenter"",""trial"":1,""time"":3386}]",NA,NA,NA,NA,NA,0,#741CD8,#D8271C,0,10,1,38,1,1000,39,0,250.20000000298023,10,0,experiment,NA,NA,2,0.5,0.5,4,5,78,2,NA
fcp-trial,126,779022,0.0-87.0-0.0,voc_e2,11752,"[{""event"":""fullscreenenter"",""trial"":1,""time"":3386}]",NA,NA,NA,NA,NA,3,#FA92F8,#1CD855,10,0,1,38,1,516.1000000089407,37,1,306.79999999701977,10,1,experiment,NA,NA,1,0.7,0.3,2,3,79,2,NA
fcp-trial,127,782897,0.0-88.0-0.0,voc_e2,11752,"[{""event"":""fullscreenenter"",""trial"":1,""time"":3386}]",NA,NA,NA,NA,NA,6,#D89F1C,#3386FF,10,0,1,40,0,466.20000000298023,39,0,1880,0,0,experiment,NA,NA,0,0.9,0.1,0,1,80,2,NA
fcp-trial,128,787214,0.0-89.0-0.0,voc_e2,11752,"[{""event"":""fullscreenenter"",""trial"":1,""time"":3386}]",NA,NA,NA,NA,NA,1,#3386FF,#D89F1C,0,10,0,38,1,2057.9000000059605,37,1,728.7000000029802,0,0,experiment,NA,NA,0,0.1,0.9,1,0,81,2,NA
fcp-trial,129,790196,0.0-90.0-0.0,voc_e2,11752,"[{""event"":""fullscreenenter"",""trial"":1,""time"":3386}]",NA,NA,NA,NA,NA,1,#FA92F8,#1CD855,10,0,1,38,1,1174.5,37,1,275.70000000298023,10,1,experiment,NA,NA,1,0.7,0.3,2,3,82,2,NA
fcp-trial,130,793191,0.0-91.0-0.0,voc_e2,11752,"[{""event"":""fullscreenenter"",""trial"":1,""time"":3386}]",NA,NA,NA,NA,NA,1,#741CD8,#D8271C,10,0,1,38,1,744.1000000089407,39,0,728.9000000059605,0,0,experiment,NA,NA,2,0.5,0.5,4,5,83,2,NA
fcp-trial,131,795627,0.0-92.0-0.0,voc_e2,11752,"[{""event"":""fullscreenenter"",""trial"":1,""time"":3386}]",NA,NA,NA,NA,NA,2,#D89F1C,#3386FF,10,0,1,38,1,519.8000000119209,37,1,403.19999998807907,10,1,experiment,NA,NA,0,0.9,0.1,0,1,84,2,NA
fcp-trial,132,797926,0.0-93.0-0.0,voc_e2,11752,"[{""event"":""fullscreenenter"",""trial"":1,""time"":3386}]",NA,NA,NA,NA,NA,5,#D89F1C,#3386FF,10,0,1,38,1,354.20000000298023,37,1,419,10,1,experiment,NA,NA,0,0.9,0.1,0,1,85,2,NA
fcp-trial,133,800463,0.0-94.0-0.0,voc_e2,11752,"[{""event"":""fullscreenenter"",""trial"":1,""time"":3386}]",NA,NA,NA,NA,NA,1,#1CD855,#FA92F8,0,0,0,38,1,692.7000000029802,39,0,335.6000000089407,0,1,experiment,NA,NA,1,0.3,0.7,3,2,86,2,NA
fcp-trial,134,802723,0.0-95.0-0.0,voc_e2,11752,"[{""event"":""fullscreenenter"",""trial"":1,""time"":3386}]",NA,NA,NA,NA,NA,4,#1CD855,#FA92F8,0,0,0,38,1,421.3999999910593,39,0,313.1000000089407,0,1,experiment,NA,NA,1,0.3,0.7,3,2,87,2,NA
fcp-trial,135,805519,0.0-96.0-0.0,voc_e2,11752,"[{""event"":""fullscreenenter"",""trial"":1,""time"":3386}]",NA,NA,NA,NA,NA,3,#D8271C,#741CD8,10,0,0,38,1,864.8000000119209,37,1,404.79999999701977,10,0,experiment,NA,NA,2,0.5,0.5,5,4,88,2,NA
fcp-trial,136,808035,0.0-97.0-0.0,voc_e2,11752,"[{""event"":""fullscreenenter"",""trial"":1,""time"":3386}]",NA,NA,NA,NA,NA,1,#D89F1C,#3386FF,10,0,1,38,1,706.6999999880791,37,1,279.40000000596046,10,1,experiment,NA,NA,0,0.9,0.1,0,1,89,2,NA
fcp-trial,137,810369,0.0-98.0-0.0,voc_e2,11752,"[{""event"":""fullscreenenter"",""trial"":1,""time"":3386}]",NA,NA,NA,NA,NA,4,#D89F1C,#3386FF,10,0,1,38,1,383.40000000596046,37,1,422.29999999701977,10,1,experiment,NA,NA,0,0.9,0.1,0,1,90,2,NA
fcp-trial,138,813209,0.0-99.0-0.0,voc_e2,11752,"[{""event"":""fullscreenenter"",""trial"":1,""time"":3386}]",NA,NA,NA,NA,NA,3,#FA92F8,#1CD855,10,10,1,38,1,881.6000000089407,37,1,434.29999999701977,10,1,experiment,NA,NA,1,0.7,0.3,2,3,91,3,NA
fcp-trial,139,815701,0.0-100.0-0.0,voc_e2,11752,"[{""event"":""fullscreenenter"",""trial"":1,""time"":3386}]",NA,NA,NA,NA,NA,0,#D89F1C,#3386FF,10,0,1,38,1,448.79999999701977,37,1,515.9000000059605,10,1,experiment,NA,NA,0,0.9,0.1,0,1,92,3,NA
fcp-trial,140,818161,0.0-101.0-0.0,voc_e2,11752,"[{""event"":""fullscreenenter"",""trial"":1,""time"":3386}]",NA,NA,NA,NA,NA,1,#D8271C,#741CD8,10,0,0,38,1,457.3999999910593,37,1,475.19999998807907,10,0,experiment,NA,NA,2,0.5,0.5,5,4,93,3,NA
fcp-trial,141,821096,0.0-102.0-0.0,voc_e2,11752,"[{""event"":""fullscreenenter"",""trial"":1,""time"":3386}]",NA,NA,NA,NA,NA,2,#FA92F8,#1CD855,10,10,1,38,1,562.8999999910593,39,0,854.4000000059605,10,0,experiment,NA,NA,1,0.7,0.3,2,3,94,3,NA
fcp-trial,142,823824,0.0-103.0-0.0,voc_e2,11752,"[{""event"":""fullscreenenter"",""trial"":1,""time"":3386}]",NA,NA,NA,NA,NA,5,#1CD855,#FA92F8,0,0,0,38,1,382.79999999701977,39,0,818.9000000059605,0,1,experiment,NA,NA,1,0.3,0.7,3,2,95,3,NA
fcp-trial,143,826704,0.0-104.0-0.0,voc_e2,11752,"[{""event"":""fullscreenenter"",""trial"":1,""time"":3386}]",NA,NA,NA,NA,NA,4,#741CD8,#D8271C,10,0,1,38,1,483.70000000298023,39,0,878,0,0,experiment,NA,NA,2,0.5,0.5,4,5,96,3,NA
fcp-trial,144,829242,0.0-105.0-0.0,voc_e2,11752,"[{""event"":""fullscreenenter"",""trial"":1,""time"":3386}]",NA,NA,NA,NA,NA,2,#3386FF,#D89F1C,0,10,0,38,1,485.29999999701977,39,0,519.9000000059605,10,1,experiment,NA,NA,0,0.1,0.9,1,0,97,3,NA
fcp-trial,145,831717,0.0-106.0-0.0,voc_e2,11752,"[{""event"":""fullscreenenter"",""trial"":1,""time"":3386}]",NA,NA,NA,NA,NA,6,#1CD855,#FA92F8,10,10,0,38,1,518.7999999970198,37,1,435.90000000596046,10,0,experiment,NA,NA,1,0.3,0.7,3,2,98,3,NA
fcp-trial,146,834908,0.0-107.0-0.0,voc_e2,11752,"[{""event"":""fullscreenenter"",""trial"":1,""time"":3386}]",NA,NA,NA,NA,NA,3,#3386FF,#D89F1C,0,10,0,38,1,1084,39,0,593.7000000029802,10,1,experiment,NA,NA,0,0.1,0.9,1,0,99,3,NA
fcp-trial,147,837623,0.0-108.0-0.0,voc_e2,11752,"[{""event"":""fullscreenenter"",""trial"":1,""time"":3386}]",NA,NA,NA,NA,NA,2,#741CD8,#D8271C,10,10,1,38,1,367.69999998807907,39,0,817.4000000059605,10,0,experiment,NA,NA,2,0.5,0.5,4,5,100,3,NA
fcp-trial,148,840073,0.0-109.0-0.0,voc_e2,11752,"[{""event"":""fullscreenenter"",""trial"":1,""time"":3386}]",NA,NA,NA,NA,NA,5,#741CD8,#D8271C,10,10,1,38,1,464.90000000596046,39,0,465,10,0,experiment,NA,NA,2,0.5,0.5,4,5,101,3,NA
fcp-trial,149,842391,0.0-110.0-0.0,voc_e2,11752,"[{""event"":""fullscreenenter"",""trial"":1,""time"":3386}]",NA,NA,NA,NA,NA,0,#D8271C,#741CD8,0,0,0,38,1,212.29999999701977,37,1,593,0,0,experiment,NA,NA,2,0.5,0.5,5,4,102,3,NA
fcp-trial,150,845371,0.0-111.0-0.0,voc_e2,11752,"[{""event"":""fullscreenenter"",""trial"":1,""time"":3386}]",NA,NA,NA,NA,NA,0,#FA92F8,#1CD855,0,0,1,38,1,325.29999999701977,39,0,1130.0999999940395,0,0,experiment,NA,NA,1,0.7,0.3,2,3,103,3,NA
fcp-trial,151,848098,0.0-112.0-0.0,voc_e2,11752,"[{""event"":""fullscreenenter"",""trial"":1,""time"":3386}]",NA,NA,NA,NA,NA,6,#3386FF,#D89F1C,10,10,0,38,1,512.2000000029802,39,0,682.5,10,1,experiment,NA,NA,0,0.1,0.9,1,0,104,3,NA
fcp-trial,152,850562,0.0-113.0-0.0,voc_e2,11752,"[{""event"":""fullscreenenter"",""trial"":1,""time"":3386}]",NA,NA,NA,NA,NA,6,#D8271C,#741CD8,10,10,0,38,1,544.4000000059605,37,1,395.3999999910593,10,0,experiment,NA,NA,2,0.5,0.5,5,4,105,3,NA
audio-instructions,153,905411,0.0-114.0,voc_e2,11752,"[{""event"":""fullscreenenter"",""trial"":1,""time"":3386}]",NA,50303.60000000894,static/audio/pause.wav,NA,0,NA,NA,NA,NA,NA,NA,NA,NA,NA,NA,NA,NA,NA,NA,NA,NA,NA,NA,NA,NA,NA,NA,NA,NA,NA
fcp-trial,154,910204,0.0-115.0-0.0,voc_e2,11752,"[{""event"":""fullscreenenter"",""trial"":1,""time"":3386}]",NA,NA,NA,NA,NA,6,#741CD8,#D8271C,0,0,1,40,0,2023.5,39,0,1257.199999988079,0,0,experiment,NA,NA,2,0.5,0.5,4,5,106,3,NA
fcp-trial,155,914334,0.0-116.0-0.0,voc_e2,11752,"[{""event"":""fullscreenenter"",""trial"":1,""time"":3386}]",NA,NA,NA,NA,NA,0,#D8271C,#741CD8,0,0,0,40,0,1763.7999999970198,39,0,835.0999999940395,0,1,experiment,NA,NA,2,0.5,0.5,5,4,107,3,NA
fcp-trial,156,917387,0.0-117.0-0.0,voc_e2,11752,"[{""event"":""fullscreenenter"",""trial"":1,""time"":3386}]",NA,NA,NA,NA,NA,2,#D89F1C,#3386FF,0,0,1,38,1,750.8000000119209,37,1,780.7999999970198,0,1,experiment,NA,NA,0,0.9,0.1,0,1,108,3,NA
fcp-trial,157,920589,0.0-118.0-0.0,voc_e2,11752,"[{""event"":""fullscreenenter"",""trial"":1,""time"":3386}]",NA,NA,NA,NA,NA,3,#FA92F8,#1CD855,10,0,1,38,1,901.5,39,0,770.9000000059605,0,0,experiment,NA,NA,1,0.7,0.3,2,3,109,3,NA
fcp-trial,158,923238,0.0-119.0-0.0,voc_e2,11752,"[{""event"":""fullscreenenter"",""trial"":1,""time"":3386}]",NA,NA,NA,NA,NA,3,#3386FF,#D89F1C,0,10,0,38,1,497.79999999701977,39,0,624.3999999910593,10,1,experiment,NA,NA,0,0.1,0.9,1,0,110,3,NA
fcp-trial,159,925830,0.0-120.0-0.0,voc_e2,11752,"[{""event"":""fullscreenenter"",""trial"":1,""time"":3386}]",NA,NA,NA,NA,NA,5,#741CD8,#D8271C,10,0,1,38,1,667,39,0,410.6000000089407,0,0,experiment,NA,NA,2,0.5,0.5,4,5,111,3,NA
fcp-trial,160,928174,0.0-121.0-0.0,voc_e2,11752,"[{""event"":""fullscreenenter"",""trial"":1,""time"":3386}]",NA,NA,NA,NA,NA,0,#1CD855,#FA92F8,0,10,0,38,1,73.3999999910593,39,0,747.5,10,1,experiment,NA,NA,1,0.3,0.7,3,2,112,3,NA
fcp-trial,161,930410,0.0-122.0-0.0,voc_e2,11752,"[{""event"":""fullscreenenter"",""trial"":1,""time"":3386}]",NA,NA,NA,NA,NA,5,#D89F1C,#3386FF,10,0,1,38,1,317.5,37,1,398.79999999701977,10,1,experiment,NA,NA,0,0.9,0.1,0,1,113,3,NA
fcp-trial,162,932637,0.0-123.0-0.0,voc_e2,11752,"[{""event"":""fullscreenenter"",""trial"":1,""time"":3386}]",NA,NA,NA,NA,NA,3,#741CD8,#D8271C,10,0,1,38,1,171.29999999701977,39,0,535.6000000089407,0,0,experiment,NA,NA,2,0.5,0.5,4,5,114,3,NA
fcp-trial,163,935213,0.0-124.0-0.0,voc_e2,11752,"[{""event"":""fullscreenenter"",""trial"":1,""time"":3386}]",NA,NA,NA,NA,NA,4,#FA92F8,#1CD855,10,0,1,38,1,409.40000000596046,37,1,656.7000000029802,10,1,experiment,NA,NA,1,0.7,0.3,2,3,115,3,NA
fcp-trial,164,937859,0.0-125.0-0.0,voc_e2,11752,"[{""event"":""fullscreenenter"",""trial"":1,""time"":3386}]",NA,NA,NA,NA,NA,0,#3386FF,#D89F1C,0,10,0,38,1,498.8999999910593,39,0,634.2999999970198,10,1,experiment,NA,NA,0,0.1,0.9,1,0,116,3,NA
fcp-trial,165,940455,0.0-126.0-0.0,voc_e2,11752,"[{""event"":""fullscreenenter"",""trial"":1,""time"":3386}]",NA,NA,NA,NA,NA,2,#FA92F8,#1CD855,10,0,1,38,1,423.20000000298023,37,1,648.9000000059605,10,1,experiment,NA,NA,1,0.7,0.3,2,3,117,3,NA
fcp-trial,166,943120,0.0-127.0-0.0,voc_e2,11752,"[{""event"":""fullscreenenter"",""trial"":1,""time"":3386}]",NA,NA,NA,NA,NA,1,#741CD8,#D8271C,10,0,1,38,1,438.29999999701977,39,0,697.5,0,0,experiment,NA,NA,2,0.5,0.5,4,5,118,3,NA
fcp-trial,167,945778,0.0-128.0-0.0,voc_e2,11752,"[{""event"":""fullscreenenter"",""trial"":1,""time"":3386}]",NA,NA,NA,NA,NA,6,#1CD855,#FA92F8,0,10,0,38,1,449.40000000596046,39,0,687.5,10,1,experiment,NA,NA,1,0.3,0.7,3,2,119,3,NA
fcp-trial,168,948313,0.0-129.0-0.0,voc_e2,11752,"[{""event"":""fullscreenenter"",""trial"":1,""time"":3386}]",NA,NA,NA,NA,NA,1,#D89F1C,#3386FF,10,0,1,38,1,584.2999999970198,37,1,427.80000001192093,10,1,experiment,NA,NA,0,0.9,0.1,0,1,120,3,NA
fcp-trial,169,950818,0.0-130.0-0.0,voc_e2,11752,"[{""event"":""fullscreenenter"",""trial"":1,""time"":3386}]",NA,NA,NA,NA,NA,4,#D8271C,#741CD8,0,10,0,38,1,521,37,1,461.6000000089407,0,0,experiment,NA,NA,2,0.5,0.5,5,4,121,3,NA
fcp-trial,170,953422,0.0-131.0-0.0,voc_e2,11752,"[{""event"":""fullscreenenter"",""trial"":1,""time"":3386}]",NA,NA,NA,NA,NA,2,#D8271C,#741CD8,0,10,0,38,1,421.79999999701977,37,1,648.5,0,0,experiment,NA,NA,2,0.5,0.5,5,4,122,3,NA
fcp-trial,171,958133,0.0-132.0-0.0,voc_e2,11752,"[{""event"":""fullscreenenter"",""trial"":1,""time"":3386}]",NA,NA,NA,NA,NA,6,#D89F1C,#3386FF,0,0,1,38,1,477.79999999701977,37,1,2709.7000000029802,0,1,experiment,NA,NA,0,0.9,0.1,0,1,123,3,NA
fcp-trial,172,962115,0.0-133.0-0.0,voc_e2,11752,"[{""event"":""fullscreenenter"",""trial"":1,""time"":3386}]",NA,NA,NA,NA,NA,1,#FA92F8,#1CD855,10,0,1,38,1,1810.7000000029802,37,1,649.0999999940395,10,1,experiment,NA,NA,1,0.7,0.3,2,3,124,3,NA
fcp-trial,173,965085,0.0-134.0-0.0,voc_e2,11752,"[{""event"":""fullscreenenter"",""trial"":1,""time"":3386}]",NA,NA,NA,NA,NA,4,#D89F1C,#3386FF,10,0,1,38,1,872.4000000059605,37,1,569.4000000059605,10,1,experiment,NA,NA,0,0.9,0.1,0,1,125,3,NA
fcp-trial,174,968151,0.0-135.0-0.0,voc_e2,11752,"[{""event"":""fullscreenenter"",""trial"":1,""time"":3386}]",NA,NA,NA,NA,NA,5,#FA92F8,#1CD855,0,0,1,38,1,947.6000000089407,37,1,594.8999999910593,0,1,experiment,NA,NA,1,0.7,0.3,2,3,126,3,NA
fcp-trial,175,971317,0.0-136.0-0.0,voc_e2,11752,"[{""event"":""fullscreenenter"",""trial"":1,""time"":3386}]",NA,NA,NA,NA,NA,0,#3386FF,#D89F1C,0,10,0,38,1,1006.5,39,0,632.5,10,1,experiment,NA,NA,0,0.1,0.9,1,0,127,3,NA
fcp-trial,176,976686,0.0-137.0-0.0,voc_e2,11752,"[{""event"":""fullscreenenter"",""trial"":1,""time"":3386}]",NA,NA,NA,NA,NA,1,#D8271C,#741CD8,0,10,0,38,1,2292.5,37,1,1551.6000000089407,0,0,experiment,NA,NA,2,0.5,0.5,5,4,128,3,NA
fcp-trial,177,980624,0.0-138.0-0.0,voc_e2,11752,"[{""event"":""fullscreenenter"",""trial"":1,""time"":3386}]",NA,NA,NA,NA,NA,6,#3386FF,#D89F1C,0,10,0,40,0,437.59999999403954,39,0,1988.300000011921,10,1,experiment,NA,NA,0,0.1,0.9,1,0,129,3,NA
fcp-trial,178,983862,0.0-139.0-0.0,voc_e2,11752,"[{""event"":""fullscreenenter"",""trial"":1,""time"":3386}]",NA,NA,NA,NA,NA,4,#741CD8,#D8271C,10,0,1,38,1,1070.3999999910593,39,0,638,0,0,experiment,NA,NA,2,0.5,0.5,4,5,130,3,NA
fcp-trial,179,987084,0.0-140.0-0.0,voc_e2,11752,"[{""event"":""fullscreenenter"",""trial"":1,""time"":3386}]",NA,NA,NA,NA,NA,1,#FA92F8,#1CD855,0,0,1,38,1,712.1999999880791,37,1,993.1000000089407,0,1,experiment,NA,NA,1,0.7,0.3,2,3,131,3,NA
fcp-trial,180,990357,0.0-141.0-0.0,voc_e2,11752,"[{""event"":""fullscreenenter"",""trial"":1,""time"":3386}]",NA,NA,NA,NA,NA,6,#1CD855,#FA92F8,10,10,0,38,1,754.5,39,0,1001.6999999880791,10,1,experiment,NA,NA,1,0.3,0.7,3,2,132,3,NA
fcp-trial,181,993822,0.0-142.0-0.0,voc_e2,11752,"[{""event"":""fullscreenenter"",""trial"":1,""time"":3386}]",NA,NA,NA,NA,NA,2,#D89F1C,#3386FF,10,0,1,38,1,1449.5,37,1,502.79999999701977,10,1,experiment,NA,NA,0,0.9,0.1,0,1,133,3,NA
fcp-trial,182,997200,0.0-143.0-0.0,voc_e2,11752,"[{""event"":""fullscreenenter"",""trial"":1,""time"":3386}]",NA,NA,NA,NA,NA,3,#741CD8,#D8271C,10,10,1,38,1,1479.9000000059605,39,0,377.6000000089407,10,0,experiment,NA,NA,2,0.5,0.5,4,5,134,3,NA
fcp-trial,183,1000706,0.0-144.0-0.0,voc_e2,11752,"[{""event"":""fullscreenenter"",""trial"":1,""time"":3386}]",NA,NA,NA,NA,NA,6,#D8271C,#741CD8,10,10,0,38,1,1600.1000000089407,37,1,382.70000000298023,10,0,experiment,NA,NA,2,0.5,0.5,5,4,135,3,NA
fcp-trial,184,1004697,0.0-145.0-0.0,voc_e2,11752,"[{""event"":""fullscreenenter"",""trial"":1,""time"":3386}]",NA,NA,NA,NA,NA,0,#D8271C,#741CD8,0,0,0,38,1,2216.1000000089407,37,1,254.90000000596046,0,0,experiment,NA,NA,2,0.5,0.5,5,4,136,4,NA
fcp-trial,185,1007354,0.0-146.0-0.0,voc_e2,11752,"[{""event"":""fullscreenenter"",""trial"":1,""time"":3386}]",NA,NA,NA,NA,NA,2,#1CD855,#FA92F8,0,0,0,38,1,803.7999999970198,39,0,330.20000000298023,0,1,experiment,NA,NA,1,0.3,0.7,3,2,137,4,NA
fcp-trial,186,1009838,0.0-147.0-0.0,voc_e2,11752,"[{""event"":""fullscreenenter"",""trial"":1,""time"":3386}]",NA,NA,NA,NA,NA,3,#D89F1C,#3386FF,10,0,1,38,1,638.5,37,1,324.3999999910593,10,1,experiment,NA,NA,0,0.9,0.1,0,1,138,4,NA
fcp-trial,187,1012407,0.0-148.0-0.0,voc_e2,11752,"[{""event"":""fullscreenenter"",""trial"":1,""time"":3386}]",NA,NA,NA,NA,NA,5,#D89F1C,#3386FF,10,0,1,38,1,640.0999999940395,37,1,410.5,10,1,experiment,NA,NA,0,0.9,0.1,0,1,139,4,NA
fcp-trial,188,1015635,0.0-149.0-0.0,voc_e2,11752,"[{""event"":""fullscreenenter"",""trial"":1,""time"":3386}]",NA,NA,NA,NA,NA,4,#1CD855,#FA92F8,0,10,0,38,1,413,37,1,1281.9000000059605,0,0,experiment,NA,NA,1,0.3,0.7,3,2,140,4,NA
fcp-trial,189,1018173,0.0-150.0-0.0,voc_e2,11752,"[{""event"":""fullscreenenter"",""trial"":1,""time"":3386}]",NA,NA,NA,NA,NA,5,#741CD8,#D8271C,10,10,1,38,1,622.7999999970198,39,0,393,10,0,experiment,NA,NA,2,0.5,0.5,4,5,141,4,NA
fcp-trial,190,1020774,0.0-151.0-0.0,voc_e2,11752,"[{""event"":""fullscreenenter"",""trial"":1,""time"":3386}]",NA,NA,NA,NA,NA,4,#D89F1C,#3386FF,10,10,1,38,1,620.3000000119209,37,1,458.40000000596046,10,1,experiment,NA,NA,0,0.9,0.1,0,1,142,4,NA
fcp-trial,191,1024376,0.0-152.0-0.0,voc_e2,11752,"[{""event"":""fullscreenenter"",""trial"":1,""time"":3386}]",NA,NA,NA,NA,NA,2,#D8271C,#741CD8,0,10,0,38,1,1705.5,37,1,371.09999999403954,0,0,experiment,NA,NA,2,0.5,0.5,5,4,143,4,NA
fcp-trial,192,1027355,0.0-153.0-0.0,voc_e2,11752,"[{""event"":""fullscreenenter"",""trial"":1,""time"":3386}]",NA,NA,NA,NA,NA,0,#FA92F8,#1CD855,10,0,1,38,1,870.7999999970198,37,1,578.7000000029802,10,1,experiment,NA,NA,1,0.7,0.3,2,3,144,4,NA
fcp-trial,193,1029959,0.0-154.0-0.0,voc_e2,11752,"[{""event"":""fullscreenenter"",""trial"":1,""time"":3386}]",NA,NA,NA,NA,NA,5,#FA92F8,#1CD855,10,0,1,38,1,477.90000000596046,37,1,611,10,1,experiment,NA,NA,1,0.7,0.3,2,3,145,4,NA
fcp-trial,194,1032627,0.0-155.0-0.0,voc_e2,11752,"[{""event"":""fullscreenenter"",""trial"":1,""time"":3386}]",NA,NA,NA,NA,NA,3,#1CD855,#FA92F8,0,0,0,38,1,798.3999999910593,39,0,352.09999999403954,0,1,experiment,NA,NA,1,0.3,0.7,3,2,146,4,NA
fcp-trial,195,1036422,0.0-156.0-0.0,voc_e2,11752,"[{""event"":""fullscreenenter"",""trial"":1,""time"":3386}]",NA,NA,NA,NA,NA,1,#3386FF,#D89F1C,0,0,0,38,1,667,39,0,1610.2999999970198,0,1,experiment,NA,NA,0,0.1,0.9,1,0,147,4,NA
fcp-trial,196,1039184,0.0-157.0-0.0,voc_e2,11752,"[{""event"":""fullscreenenter"",""trial"":1,""time"":3386}]",NA,NA,NA,NA,NA,2,#D89F1C,#3386FF,10,0,1,38,1,856.0999999940395,37,1,386.90000000596046,10,1,experiment,NA,NA,0,0.9,0.1,0,1,148,4,NA
fcp-trial,197,1041825,0.0-158.0-0.0,voc_e2,11752,"[{""event"":""fullscreenenter"",""trial"":1,""time"":3386}]",NA,NA,NA,NA,NA,2,#741CD8,#D8271C,0,0,1,38,1,720.2999999970198,39,0,407.30000001192093,0,0,experiment,NA,NA,2,0.5,0.5,4,5,149,4,NA
fcp-trial,198,1045890,0.0-159.0-0.0,voc_e2,11752,"[{""event"":""fullscreenenter"",""trial"":1,""time"":3386}]",NA,NA,NA,NA,NA,3,#D8271C,#741CD8,0,10,0,38,1,676.2000000029802,37,1,1868.2000000029802,0,0,experiment,NA,NA,2,0.5,0.5,5,4,150,4,NA
fcp-trial,199,1048554,0.0-160.0-0.0,voc_e2,11752,"[{""event"":""fullscreenenter"",""trial"":1,""time"":3386}]",NA,NA,NA,NA,NA,3,#FA92F8,#1CD855,0,0,1,38,1,635,37,1,505,0,1,experiment,NA,NA,1,0.7,0.3,2,3,151,4,NA
fcp-trial,200,1051133,0.0-161.0-0.0,voc_e2,11752,"[{""event"":""fullscreenenter"",""trial"":1,""time"":3386}]",NA,NA,NA,NA,NA,6,#D8271C,#741CD8,0,0,0,38,1,574.9000000059605,37,1,475.5,0,0,experiment,NA,NA,2,0.5,0.5,5,4,152,4,NA
fcp-trial,201,1054460,0.0-162.0-0.0,voc_e2,11752,"[{""event"":""fullscreenenter"",""trial"":1,""time"":3386}]",NA,NA,NA,NA,NA,0,#D89F1C,#3386FF,10,0,1,38,1,1024.2000000029802,37,1,775,10,1,experiment,NA,NA,0,0.9,0.1,0,1,153,4,NA
fcp-trial,202,1057887,0.0-163.0-0.0,voc_e2,11752,"[{""event"":""fullscreenenter"",""trial"":1,""time"":3386}]",NA,NA,NA,NA,NA,5,#D89F1C,#3386FF,10,0,1,38,1,1293.7999999970198,37,1,601.9000000059605,10,1,experiment,NA,NA,0,0.9,0.1,0,1,154,4,NA
fcp-trial,203,1060564,0.0-164.0-0.0,voc_e2,11752,"[{""event"":""fullscreenenter"",""trial"":1,""time"":3386}]",NA,NA,NA,NA,NA,0,#FA92F8,#1CD855,10,0,1,38,1,681.6000000089407,39,0,469.8999999910593,0,0,experiment,NA,NA,1,0.7,0.3,2,3,155,4,NA
fcp-trial,204,1063850,0.0-165.0-0.0,voc_e2,11752,"[{""event"":""fullscreenenter"",""trial"":1,""time"":3386}]",NA,NA,NA,NA,NA,1,#D8271C,#741CD8,10,0,0,38,1,858.4000000059605,37,1,914.8000000119209,10,0,experiment,NA,NA,2,0.5,0.5,5,4,156,4,NA
fcp-trial,205,1066705,0.0-166.0-0.0,voc_e2,11752,"[{""event"":""fullscreenenter"",""trial"":1,""time"":3386}]",NA,NA,NA,NA,NA,3,#D89F1C,#3386FF,10,0,1,38,1,579.0999999940395,39,0,748.5,0,0,experiment,NA,NA,0,0.9,0.1,0,1,157,4,NA
fcp-trial,206,1069157,0.0-167.0-0.0,voc_e2,11752,"[{""event"":""fullscreenenter"",""trial"":1,""time"":3386}]",NA,NA,NA,NA,NA,2,#1CD855,#FA92F8,10,10,0,38,1,352.90000000596046,37,1,577.4000000059605,10,0,experiment,NA,NA,1,0.3,0.7,3,2,158,4,NA
fcp-trial,207,1072404,0.0-168.0-0.0,voc_e2,11752,"[{""event"":""fullscreenenter"",""trial"":1,""time"":3386}]",NA,NA,NA,NA,NA,5,#FA92F8,#1CD855,10,0,1,38,1,996.2999999970198,37,1,725.6000000089407,10,1,experiment,NA,NA,1,0.7,0.3,2,3,159,4,NA
fcp-trial,208,1075677,0.0-169.0-0.0,voc_e2,11752,"[{""event"":""fullscreenenter"",""trial"":1,""time"":3386}]",NA,NA,NA,NA,NA,4,#3386FF,#D89F1C,0,10,0,38,1,838.5,39,0,904.7000000029802,10,1,experiment,NA,NA,0,0.1,0.9,1,0,160,4,NA
fcp-trial,209,1078807,0.0-170.0-0.0,voc_e2,11752,"[{""event"":""fullscreenenter"",""trial"":1,""time"":3386}]",NA,NA,NA,NA,NA,0,#741CD8,#D8271C,0,0,1,38,1,408.6000000089407,39,0,1194.7000000029802,0,0,experiment,NA,NA,2,0.5,0.5,4,5,161,4,NA
fcp-trial,210,1081469,0.0-171.0-0.0,voc_e2,11752,"[{""event"":""fullscreenenter"",""trial"":1,""time"":3386}]",NA,NA,NA,NA,NA,4,#D8271C,#741CD8,0,10,0,38,1,873.9000000059605,37,1,261.70000000298023,0,0,experiment,NA,NA,2,0.5,0.5,5,4,162,4,NA
fcp-trial,211,1084731,0.0-172.0-0.0,voc_e2,11752,"[{""event"":""fullscreenenter"",""trial"":1,""time"":3386}]",NA,NA,NA,NA,NA,4,#1CD855,#FA92F8,0,10,0,38,1,1439.1000000089407,39,0,296.8999999910593,10,1,experiment,NA,NA,1,0.3,0.7,3,2,163,4,NA
fcp-trial,212,1087942,0.0-173.0-0.0,voc_e2,11752,"[{""event"":""fullscreenenter"",""trial"":1,""time"":3386}]",NA,NA,NA,NA,NA,6,#3386FF,#D89F1C,0,10,0,38,1,1374.2000000029802,39,0,322.09999999403954,10,1,experiment,NA,NA,0,0.1,0.9,1,0,164,4,NA
fcp-trial,213,1092386,0.0-174.0-0.0,voc_e2,11752,"[{""event"":""fullscreenenter"",""trial"":1,""time"":3386}]",NA,NA,NA,NA,NA,1,#1CD855,#FA92F8,0,10,0,38,1,2588.2000000029802,39,0,345.29999999701977,10,1,experiment,NA,NA,1,0.3,0.7,3,2,165,4,NA
fcp-trial,214,1095422,0.0-175.0-0.0,voc_e2,11752,"[{""event"":""fullscreenenter"",""trial"":1,""time"":3386}]",NA,NA,NA,NA,NA,1,#D89F1C,#3386FF,10,0,1,38,1,909.1000000089407,37,1,612.5,10,1,experiment,NA,NA,0,0.9,0.1,0,1,166,4,NA
fcp-trial,215,1098082,0.0-176.0-0.0,voc_e2,11752,"[{""event"":""fullscreenenter"",""trial"":1,""time"":3386}]",NA,NA,NA,NA,NA,5,#741CD8,#D8271C,10,10,1,38,1,748.2000000029802,39,0,389,10,0,experiment,NA,NA,2,0.5,0.5,4,5,167,4,NA
fcp-trial,216,1100666,0.0-177.0-0.0,voc_e2,11752,"[{""event"":""fullscreenenter"",""trial"":1,""time"":3386}]",NA,NA,NA,NA,NA,6,#1CD855,#FA92F8,0,10,0,38,1,659.7000000029802,39,0,400.80000001192093,10,1,experiment,NA,NA,1,0.3,0.7,3,2,168,4,NA
fcp-trial,217,1104549,0.0-178.0-0.0,voc_e2,11752,"[{""event"":""fullscreenenter"",""trial"":1,""time"":3386}]",NA,NA,NA,NA,NA,2,#3386FF,#D89F1C,0,10,0,38,1,605.2999999970198,39,0,1745.5,10,1,experiment,NA,NA,0,0.1,0.9,1,0,169,4,NA
fcp-trial,218,1107344,0.0-179.0-0.0,voc_e2,11752,"[{""event"":""fullscreenenter"",""trial"":1,""time"":3386}]",NA,NA,NA,NA,NA,2,#741CD8,#D8271C,0,0,1,38,1,648.2000000029802,39,0,625.5999999940395,0,0,experiment,NA,NA,2,0.5,0.5,4,5,170,4,NA
fcp-trial,219,1109708,0.0-180.0-0.0,voc_e2,11752,"[{""event"":""fullscreenenter"",""trial"":1,""time"":3386}]",NA,NA,NA,NA,NA,6,#D89F1C,#3386FF,10,10,1,38,1,423.70000000298023,37,1,416.30000001192093,10,1,experiment,NA,NA,0,0.9,0.1,0,1,171,4,NA
fcp-trial,220,1112240,0.0-181.0-0.0,voc_e2,11752,"[{""event"":""fullscreenenter"",""trial"":1,""time"":3386}]",NA,NA,NA,NA,NA,6,#FA92F8,#1CD855,10,0,1,38,1,433.30000001192093,37,1,571.5,10,1,experiment,NA,NA,1,0.7,0.3,2,3,172,4,NA
fcp-trial,221,1114590,0.0-182.0-0.0,voc_e2,11752,"[{""event"":""fullscreenenter"",""trial"":1,""time"":3386}]",NA,NA,NA,NA,NA,5,#741CD8,#D8271C,10,0,1,38,1,464,39,0,362.80000001192093,0,0,experiment,NA,NA,2,0.5,0.5,4,5,173,4,NA
fcp-trial,222,1116981,0.0-183.0-0.0,voc_e2,11752,"[{""event"":""fullscreenenter"",""trial"":1,""time"":3386}]",NA,NA,NA,NA,NA,4,#741CD8,#D8271C,0,10,1,38,1,501.70000000298023,39,0,369.29999999701977,10,0,experiment,NA,NA,2,0.5,0.5,4,5,174,4,NA
fcp-trial,223,1119604,0.0-184.0-0.0,voc_e2,11752,"[{""event"":""fullscreenenter"",""trial"":1,""time"":3386}]",NA,NA,NA,NA,NA,0,#FA92F8,#1CD855,0,0,1,38,1,785.4000000059605,37,1,315.8999999910593,0,1,experiment,NA,NA,1,0.7,0.3,2,3,175,4,NA
fcp-trial,224,1122117,0.0-185.0-0.0,voc_e2,11752,"[{""event"":""fullscreenenter"",""trial"":1,""time"":3386}]",NA,NA,NA,NA,NA,3,#D89F1C,#3386FF,10,0,1,38,1,670,37,1,329,10,1,experiment,NA,NA,0,0.9,0.1,0,1,176,4,NA
fcp-trial,225,1124557,0.0-186.0-0.0,voc_e2,11752,"[{""event"":""fullscreenenter"",""trial"":1,""time"":3386}]",NA,NA,NA,NA,NA,6,#D8271C,#741CD8,10,0,0,38,1,516,37,1,415.19999998807907,10,0,experiment,NA,NA,2,0.5,0.5,5,4,177,4,NA
fcp-trial,226,1126896,0.0-187.0-0.0,voc_e2,11752,"[{""event"":""fullscreenenter"",""trial"":1,""time"":3386}]",NA,NA,NA,NA,NA,4,#1CD855,#FA92F8,10,10,0,38,1,414.79999999701977,39,0,403.59999999403954,10,1,experiment,NA,NA,1,0.3,0.7,3,2,178,4,NA
fcp-trial,227,1129808,0.0-188.0-0.0,voc_e2,11752,"[{""event"":""fullscreenenter"",""trial"":1,""time"":3386}]",NA,NA,NA,NA,NA,5,#1CD855,#FA92F8,0,0,0,38,1,573.2000000029802,39,0,814.1000000089407,0,1,experiment,NA,NA,1,0.3,0.7,3,2,179,4,NA
fcp-trial,228,1132664,0.0-189.0-0.0,voc_e2,11752,"[{""event"":""fullscreenenter"",""trial"":1,""time"":3386}]",NA,NA,NA,NA,NA,0,#741CD8,#D8271C,0,0,1,38,1,837.8000000119209,39,0,497.8999999910593,0,0,experiment,NA,NA,2,0.5,0.5,4,5,180,4,NA
fcp-trial,229,1135362,0.0-190.0-0.0,voc_e2,11752,"[{""event"":""fullscreenenter"",""trial"":1,""time"":3386}]",NA,NA,NA,NA,NA,0,#3386FF,#D89F1C,0,10,0,38,1,664.8999999910593,39,0,514.2999999970198,10,1,experiment,NA,NA,0,0.1,0.9,1,0,181,5,NA
fcp-trial,230,1138031,0.0-191.0-0.0,voc_e2,11752,"[{""event"":""fullscreenenter"",""trial"":1,""time"":3386}]",NA,NA,NA,NA,NA,1,#1CD855,#FA92F8,0,10,0,38,1,791.4000000059605,39,0,350,10,1,experiment,NA,NA,1,0.3,0.7,3,2,182,5,NA
fcp-trial,231,1141056,0.0-192.0-0.0,voc_e2,11752,"[{""event"":""fullscreenenter"",""trial"":1,""time"":3386}]",NA,NA,NA,NA,NA,1,#741CD8,#D8271C,0,0,1,38,1,1192.0999999940395,39,0,313.09999999403954,0,0,experiment,NA,NA,2,0.5,0.5,4,5,183,5,NA
fcp-trial,232,1144238,0.0-193.0-0.0,voc_e2,11752,"[{""event"":""fullscreenenter"",""trial"":1,""time"":3386}]",NA,NA,NA,NA,NA,1,#D89F1C,#3386FF,10,0,1,38,1,1284.0999999940395,37,1,368.29999999701977,10,1,experiment,NA,NA,0,0.9,0.1,0,1,184,5,NA
fcp-trial,233,1147089,0.0-194.0-0.0,voc_e2,11752,"[{""event"":""fullscreenenter"",""trial"":1,""time"":3386}]",NA,NA,NA,NA,NA,3,#1CD855,#FA92F8,0,10,0,38,1,775.1000000089407,39,0,553.9000000059605,10,1,experiment,NA,NA,1,0.3,0.7,3,2,185,5,NA
fcp-trial,234,1149924,0.0-195.0-0.0,voc_e2,11752,"[{""event"":""fullscreenenter"",""trial"":1,""time"":3386}]",NA,NA,NA,NA,NA,3,#D8271C,#741CD8,10,0,0,38,1,955.8000000119209,37,1,356.40000000596046,10,0,experiment,NA,NA,2,0.5,0.5,5,4,186,5,NA
fcp-trial,235,1152591,0.0-196.0-0.0,voc_e2,11752,"[{""event"":""fullscreenenter"",""trial"":1,""time"":3386}]",NA,NA,NA,NA,NA,4,#D89F1C,#3386FF,10,0,1,38,1,763.8000000119209,37,1,376.79999999701977,10,1,experiment,NA,NA,0,0.9,0.1,0,1,187,5,NA
fcp-trial,236,1155084,0.0-197.0-0.0,voc_e2,11752,"[{""event"":""fullscreenenter"",""trial"":1,""time"":3386}]",NA,NA,NA,NA,NA,2,#FA92F8,#1CD855,10,10,1,38,1,591.7000000029802,37,1,380.70000000298023,10,1,experiment,NA,NA,1,0.7,0.3,2,3,188,5,NA
fcp-trial,237,1157640,0.0-198.0-0.0,voc_e2,11752,"[{""event"":""fullscreenenter"",""trial"":1,""time"":3386}]",NA,NA,NA,NA,NA,5,#D89F1C,#3386FF,10,0,1,38,1,762.5999999940395,37,1,269.70000000298023,10,1,experiment,NA,NA,0,0.9,0.1,0,1,189,5,NA
fcp-trial,238,1160183,0.0-199.0-0.0,voc_e2,11752,"[{""event"":""fullscreenenter"",""trial"":1,""time"":3386}]",NA,NA,NA,NA,NA,2,#D8271C,#741CD8,0,0,0,38,1,693.5999999940395,37,1,331.8999999910593,0,0,experiment,NA,NA,2,0.5,0.5,5,4,190,5,NA
fcp-trial,239,1162560,0.0-200.0-0.0,voc_e2,11752,"[{""event"":""fullscreenenter"",""trial"":1,""time"":3386}]",NA,NA,NA,NA,NA,6,#3386FF,#D89F1C,0,10,0,38,1,513.0999999940395,39,0,338.29999999701977,10,1,experiment,NA,NA,0,0.1,0.9,1,0,191,5,NA
fcp-trial,240,1164990,0.0-201.0-0.0,voc_e2,11752,"[{""event"":""fullscreenenter"",""trial"":1,""time"":3386}]",NA,NA,NA,NA,NA,1,#1CD855,#FA92F8,0,10,0,38,1,475.70000000298023,39,0,427.40000000596046,10,1,experiment,NA,NA,1,0.3,0.7,3,2,192,5,NA
fcp-trial,241,1168929,0.0-202.0-0.0,voc_e2,11752,"[{""event"":""fullscreenenter"",""trial"":1,""time"":3386}]",NA,NA,NA,NA,NA,5,#D8271C,#741CD8,0,0,0,38,1,1618.7999999970198,37,1,797.5,0,0,experiment,NA,NA,2,0.5,0.5,5,4,193,5,NA
fcp-trial,242,1172467,0.0-203.0-0.0,voc_e2,11752,"[{""event"":""fullscreenenter"",""trial"":1,""time"":3386}]",NA,NA,NA,NA,NA,4,#D89F1C,#3386FF,10,0,1,38,1,1040.2000000029802,37,1,971.0999999940395,10,1,experiment,NA,NA,0,0.9,0.1,0,1,194,5,NA
fcp-trial,243,1175180,0.0-204.0-0.0,voc_e2,11752,"[{""event"":""fullscreenenter"",""trial"":1,""time"":3386}]",NA,NA,NA,NA,NA,4,#741CD8,#D8271C,10,0,1,38,1,855.6999999880791,39,0,344.20000000298023,0,0,experiment,NA,NA,2,0.5,0.5,4,5,195,5,NA
fcp-trial,244,1180608,0.0-205.0-0.0,voc_e2,11752,"[{""event"":""fullscreenenter"",""trial"":1,""time"":3386}]",NA,NA,NA,NA,NA,0,#3386FF,#D89F1C,0,10,0,38,1,625.5,39,0,3279.1000000089407,10,1,experiment,NA,NA,0,0.1,0.9,1,0,196,5,NA
fcp-trial,245,1184858,0.0-206.0-0.0,voc_e2,11752,"[{""event"":""fullscreenenter"",""trial"":1,""time"":3386}]",NA,NA,NA,NA,NA,2,#1CD855,#FA92F8,0,10,0,38,1,2139,37,1,585.7999999970198,0,0,experiment,NA,NA,1,0.3,0.7,3,2,197,5,NA
fcp-trial,246,1187588,0.0-207.0-0.0,voc_e2,11752,"[{""event"":""fullscreenenter"",""trial"":1,""time"":3386}]",NA,NA,NA,NA,NA,1,#D8271C,#741CD8,0,0,0,38,1,527.5999999940395,37,1,675.9000000059605,0,0,experiment,NA,NA,2,0.5,0.5,5,4,198,5,NA
fcp-trial,247,1190505,0.0-208.0-0.0,voc_e2,11752,"[{""event"":""fullscreenenter"",""trial"":1,""time"":3386}]",NA,NA,NA,NA,NA,0,#741CD8,#D8271C,10,0,1,38,1,538.2999999970198,39,0,857.5999999940395,0,0,experiment,NA,NA,2,0.5,0.5,4,5,199,5,NA
fcp-trial,248,1193860,0.0-209.0-0.0,voc_e2,11752,"[{""event"":""fullscreenenter"",""trial"":1,""time"":3386}]",NA,NA,NA,NA,NA,2,#3386FF,#D89F1C,0,10,0,38,1,1495,39,0,338.09999999403954,10,1,experiment,NA,NA,0,0.1,0.9,1,0,200,5,NA
fcp-trial,249,1197951,0.0-210.0-0.0,voc_e2,11752,"[{""event"":""fullscreenenter"",""trial"":1,""time"":3386}]",NA,NA,NA,NA,NA,5,#1CD855,#FA92F8,0,10,0,38,1,890.7000000029802,37,1,1683.1000000089407,0,0,experiment,NA,NA,1,0.3,0.7,3,2,201,5,NA
fcp-trial,250,1201839,0.0-211.0-0.0,voc_e2,11752,"[{""event"":""fullscreenenter"",""trial"":1,""time"":3386}]",NA,NA,NA,NA,NA,3,#741CD8,#D8271C,0,10,1,38,1,1781.9000000059605,39,0,592.2999999970198,10,0,experiment,NA,NA,2,0.5,0.5,4,5,202,5,NA
fcp-trial,251,1205404,0.0-212.0-0.0,voc_e2,11752,"[{""event"":""fullscreenenter"",""trial"":1,""time"":3386}]",NA,NA,NA,NA,NA,0,#FA92F8,#1CD855,10,0,1,38,1,1696.0999999940395,39,0,345.40000000596046,0,0,experiment,NA,NA,1,0.7,0.3,2,3,203,5,NA
fcp-trial,252,1208258,0.0-213.0-0.0,voc_e2,11752,"[{""event"":""fullscreenenter"",""trial"":1,""time"":3386}]",NA,NA,NA,NA,NA,3,#3386FF,#D89F1C,0,10,0,38,1,997.5,39,0,338.5,10,1,experiment,NA,NA,0,0.1,0.9,1,0,204,5,NA
fcp-trial,253,1211109,0.0-214.0-0.0,voc_e2,11752,"[{""event"":""fullscreenenter"",""trial"":1,""time"":3386}]",NA,NA,NA,NA,NA,6,#1CD855,#FA92F8,0,10,0,38,1,918.2000000029802,37,1,403.8999999910593,0,0,experiment,NA,NA,1,0.3,0.7,3,2,205,5,NA
fcp-trial,254,1214107,0.0-215.0-0.0,voc_e2,11752,"[{""event"":""fullscreenenter"",""trial"":1,""time"":3386}]",NA,NA,NA,NA,NA,4,#FA92F8,#1CD855,10,0,1,38,1,1100.5,39,0,376.80000001192093,0,0,experiment,NA,NA,1,0.7,0.3,2,3,206,5,NA
fcp-trial,255,1216960,0.0-216.0-0.0,voc_e2,11752,"[{""event"":""fullscreenenter"",""trial"":1,""time"":3386}]",NA,NA,NA,NA,NA,6,#741CD8,#D8271C,10,10,1,38,1,945.9000000059605,39,0,385.79999999701977,10,0,experiment,NA,NA,2,0.5,0.5,4,5,207,5,NA
fcp-trial,256,1220035,0.0-217.0-0.0,voc_e2,11752,"[{""event"":""fullscreenenter"",""trial"":1,""time"":3386}]",NA,NA,NA,NA,NA,1,#D89F1C,#3386FF,10,10,1,38,1,631,37,1,921.5,10,1,experiment,NA,NA,0,0.9,0.1,0,1,208,5,NA
fcp-trial,257,1223117,0.0-218.0-0.0,voc_e2,11752,"[{""event"":""fullscreenenter"",""trial"":1,""time"":3386}]",NA,NA,NA,NA,NA,5,#3386FF,#D89F1C,0,10,0,38,1,1219.7999999970198,39,0,336,10,1,experiment,NA,NA,0,0.1,0.9,1,0,209,5,NA
fcp-trial,258,1225800,0.0-219.0-0.0,voc_e2,11752,"[{""event"":""fullscreenenter"",""trial"":1,""time"":3386}]",NA,NA,NA,NA,NA,3,#1CD855,#FA92F8,0,0,0,38,1,465.79999999701977,39,0,698.7000000029802,0,1,experiment,NA,NA,1,0.3,0.7,3,2,210,5,NA
audio-instructions,259,1339830,0.0-220.0,voc_e2,11752,"[{""event"":""fullscreenenter"",""trial"":1,""time"":3386}]",NA,109388,static/audio/pause.wav,NA,0,NA,NA,NA,NA,NA,NA,NA,NA,NA,NA,NA,NA,NA,NA,NA,NA,NA,NA,NA,NA,NA,NA,NA,NA,NA
fcp-trial,260,1343507,0.0-221.0-0.0,voc_e2,11752,"[{""event"":""fullscreenenter"",""trial"":1,""time"":3386}]",NA,NA,NA,NA,NA,5,#3386FF,#D89F1C,0,10,0,38,1,1533.7999999970198,39,0,633.7000000029802,10,1,experiment,NA,NA,0,0.1,0.9,1,0,211,5,NA
fcp-trial,261,1346040,0.0-222.0-0.0,voc_e2,11752,"[{""event"":""fullscreenenter"",""trial"":1,""time"":3386}]",NA,NA,NA,NA,NA,3,#D8271C,#741CD8,10,0,0,38,1,702.7000000029802,37,1,316,10,0,experiment,NA,NA,2,0.5,0.5,5,4,212,5,NA
fcp-trial,262,1348437,0.0-223.0-0.0,voc_e2,11752,"[{""event"":""fullscreenenter"",""trial"":1,""time"":3386}]",NA,NA,NA,NA,NA,1,#FA92F8,#1CD855,0,0,1,38,1,463.20000000298023,37,1,420.59999999403954,0,1,experiment,NA,NA,1,0.7,0.3,2,3,213,5,NA
fcp-trial,263,1350980,0.0-224.0-0.0,voc_e2,11752,"[{""event"":""fullscreenenter"",""trial"":1,""time"":3386}]",NA,NA,NA,NA,NA,6,#741CD8,#D8271C,10,0,1,38,1,538.5999999940395,39,0,490.20000000298023,0,0,experiment,NA,NA,2,0.5,0.5,4,5,214,5,NA
fcp-trial,264,1353625,0.0-225.0-0.0,voc_e2,11752,"[{""event"":""fullscreenenter"",""trial"":1,""time"":3386}]",NA,NA,NA,NA,NA,0,#D8271C,#741CD8,0,0,0,38,1,653.1999999880791,37,1,460.90000000596046,0,0,experiment,NA,NA,2,0.5,0.5,5,4,215,5,NA
fcp-trial,265,1356178,0.0-226.0-0.0,voc_e2,11752,"[{""event"":""fullscreenenter"",""trial"":1,""time"":3386}]",NA,NA,NA,NA,NA,2,#3386FF,#D89F1C,0,10,0,38,1,478.09999999403954,39,0,548.5,10,1,experiment,NA,NA,0,0.1,0.9,1,0,216,5,NA
fcp-trial,266,1358527,0.0-227.0-0.0,voc_e2,11752,"[{""event"":""fullscreenenter"",""trial"":1,""time"":3386}]",NA,NA,NA,NA,NA,6,#D89F1C,#3386FF,10,0,1,38,1,363.70000000298023,37,1,473.5,10,1,experiment,NA,NA,0,0.9,0.1,0,1,217,5,NA
fcp-trial,267,1360822,0.0-228.0-0.0,voc_e2,11752,"[{""event"":""fullscreenenter"",""trial"":1,""time"":3386}]",NA,NA,NA,NA,NA,5,#FA92F8,#1CD855,10,0,1,38,1,349.29999999701977,37,1,420.40000000596046,10,1,experiment,NA,NA,1,0.7,0.3,2,3,218,5,NA
fcp-trial,268,1362998,0.0-229.0-0.0,voc_e2,11752,"[{""event"":""fullscreenenter"",""trial"":1,""time"":3386}]",NA,NA,NA,NA,NA,4,#3386FF,#D89F1C,0,10,0,38,1,335.29999999701977,39,0,324.79999999701977,10,1,experiment,NA,NA,0,0.1,0.9,1,0,219,5,NA
fcp-trial,269,1365591,0.0-230.0-0.0,voc_e2,11752,"[{""event"":""fullscreenenter"",""trial"":1,""time"":3386}]",NA,NA,NA,NA,NA,5,#D8271C,#741CD8,10,0,0,38,1,432.70000000298023,37,1,653.1000000089407,10,0,experiment,NA,NA,2,0.5,0.5,5,4,220,5,NA
fcp-trial,270,1367873,0.0-231.0-0.0,voc_e2,11752,"[{""event"":""fullscreenenter"",""trial"":1,""time"":3386}]",NA,NA,NA,NA,NA,0,#1CD855,#FA92F8,0,10,0,38,1,424.5,37,1,348.90000000596046,0,0,experiment,NA,NA,1,0.3,0.7,3,2,221,5,NA
fcp-trial,271,1372129,0.0-232.0-0.0,voc_e2,11752,"[{""event"":""fullscreenenter"",""trial"":1,""time"":3386}]",NA,NA,NA,NA,NA,0,#3386FF,#D89F1C,0,10,0,38,1,656,39,0,2091,10,1,experiment,NA,NA,0,0.1,0.9,1,0,222,5,NA
fcp-trial,272,1375096,0.0-233.0-0.0,voc_e2,11752,"[{""event"":""fullscreenenter"",""trial"":1,""time"":3386}]",NA,NA,NA,NA,NA,2,#741CD8,#D8271C,10,0,1,38,1,756.8999999910593,39,0,680.5,0,0,experiment,NA,NA,2,0.5,0.5,4,5,223,5,NA
fcp-trial,273,1377720,0.0-234.0-0.0,voc_e2,11752,"[{""event"":""fullscreenenter"",""trial"":1,""time"":3386}]",NA,NA,NA,NA,NA,2,#FA92F8,#1CD855,0,10,1,38,1,555.5,37,1,544.0999999940395,0,1,experiment,NA,NA,1,0.7,0.3,2,3,224,5,NA
fcp-trial,274,1381228,0.0-235.0-0.0,voc_e2,11752,"[{""event"":""fullscreenenter"",""trial"":1,""time"":3386}]",NA,NA,NA,NA,NA,4,#741CD8,#D8271C,10,10,1,38,1,808.3999999910593,39,0,1176.9000000059605,10,0,experiment,NA,NA,2,0.5,0.5,4,5,225,5,NA
fcp-trial,275,1384970,0.0-236.0-0.0,voc_e2,11752,"[{""event"":""fullscreenenter"",""trial"":1,""time"":3386}]",NA,NA,NA,NA,NA,1,#3386FF,#D89F1C,0,10,0,38,1,1698.7000000029802,39,0,520.5,10,1,experiment,NA,NA,0,0.1,0.9,1,0,226,6,NA
fcp-trial,276,1387648,0.0-237.0-0.0,voc_e2,11752,"[{""event"":""fullscreenenter"",""trial"":1,""time"":3386}]",NA,NA,NA,NA,NA,3,#D89F1C,#3386FF,0,0,1,38,1,635.0999999940395,37,1,521.3999999910593,0,1,experiment,NA,NA,0,0.9,0.1,0,1,227,6,NA
fcp-trial,277,1391307,0.0-238.0-0.0,voc_e2,11752,"[{""event"":""fullscreenenter"",""trial"":1,""time"":3386}]",NA,NA,NA,NA,NA,1,#D8271C,#741CD8,0,0,0,38,1,820,37,1,1307.5,0,0,experiment,NA,NA,2,0.5,0.5,5,4,228,6,NA
fcp-trial,278,1394834,0.0-239.0-0.0,voc_e2,11752,"[{""event"":""fullscreenenter"",""trial"":1,""time"":3386}]",NA,NA,NA,NA,NA,3,#FA92F8,#1CD855,0,0,1,38,1,913.6000000089407,37,1,1100.5,0,1,experiment,NA,NA,1,0.7,0.3,2,3,229,6,NA
fcp-trial,279,1397662,0.0-240.0-0.0,voc_e2,11752,"[{""event"":""fullscreenenter"",""trial"":1,""time"":3386}]",NA,NA,NA,NA,NA,6,#FA92F8,#1CD855,10,0,1,38,1,990.2999999970198,37,1,318.90000000596046,10,1,experiment,NA,NA,1,0.7,0.3,2,3,230,6,NA
fcp-trial,280,1400538,0.0-241.0-0.0,voc_e2,11752,"[{""event"":""fullscreenenter"",""trial"":1,""time"":3386}]",NA,NA,NA,NA,NA,4,#1CD855,#FA92F8,0,10,0,38,1,921.3999999910593,37,1,433,0,0,experiment,NA,NA,1,0.3,0.7,3,2,231,6,NA
fcp-trial,281,1405892,0.0-242.0-0.0,voc_e2,11752,"[{""event"":""fullscreenenter"",""trial"":1,""time"":3386}]",NA,NA,NA,NA,NA,5,#D89F1C,#3386FF,10,0,1,38,1,3502.2000000029802,37,1,331.8999999910593,10,1,experiment,NA,NA,0,0.9,0.1,0,1,232,6,NA
fcp-trial,282,1408575,0.0-243.0-0.0,voc_e2,11752,"[{""event"":""fullscreenenter"",""trial"":1,""time"":3386}]",NA,NA,NA,NA,NA,6,#FA92F8,#1CD855,10,10,1,38,1,601,37,1,572,10,1,experiment,NA,NA,1,0.7,0.3,2,3,233,6,NA
fcp-trial,283,1411146,0.0-244.0-0.0,voc_e2,11752,"[{""event"":""fullscreenenter"",""trial"":1,""time"":3386}]",NA,NA,NA,NA,NA,2,#FA92F8,#1CD855,10,0,1,38,1,598.7999999970198,37,1,460.20000000298023,10,1,experiment,NA,NA,1,0.7,0.3,2,3,234,6,NA
fcp-trial,284,1415499,0.0-245.0-0.0,voc_e2,11752,"[{""event"":""fullscreenenter"",""trial"":1,""time"":3386}]",NA,NA,NA,NA,NA,3,#741CD8,#D8271C,0,10,1,38,1,711.2000000029802,39,0,2130.5,10,0,experiment,NA,NA,2,0.5,0.5,4,5,235,6,NA
fcp-trial,285,1418105,0.0-246.0-0.0,voc_e2,11752,"[{""event"":""fullscreenenter"",""trial"":1,""time"":3386}]",NA,NA,NA,NA,NA,6,#D8271C,#741CD8,10,10,0,38,1,513.0999999940395,37,1,580.3999999910593,10,0,experiment,NA,NA,2,0.5,0.5,5,4,236,6,NA
fcp-trial,286,1420611,0.0-247.0-0.0,voc_e2,11752,"[{""event"":""fullscreenenter"",""trial"":1,""time"":3386}]",NA,NA,NA,NA,NA,6,#D89F1C,#3386FF,10,0,1,38,1,537.7000000029802,37,1,460.59999999403954,10,1,experiment,NA,NA,0,0.9,0.1,0,1,237,6,NA
fcp-trial,287,1423117,0.0-248.0-0.0,voc_e2,11752,"[{""event"":""fullscreenenter"",""trial"":1,""time"":3386}]",NA,NA,NA,NA,NA,5,#1CD855,#FA92F8,10,10,0,38,1,462,39,0,532.0999999940395,10,1,experiment,NA,NA,1,0.3,0.7,3,2,238,6,NA
fcp-trial,288,1426109,0.0-249.0-0.0,voc_e2,11752,"[{""event"":""fullscreenenter"",""trial"":1,""time"":3386}]",NA,NA,NA,NA,NA,3,#D89F1C,#3386FF,10,0,1,38,1,610.5,37,1,867.7999999970198,10,1,experiment,NA,NA,0,0.9,0.1,0,1,239,6,NA
fcp-trial,289,1428862,0.0-250.0-0.0,voc_e2,11752,"[{""event"":""fullscreenenter"",""trial"":1,""time"":3386}]",NA,NA,NA,NA,NA,3,#1CD855,#FA92F8,0,0,0,38,1,786.2000000029802,37,1,443.40000000596046,0,0,experiment,NA,NA,1,0.3,0.7,3,2,240,6,NA
fcp-trial,290,1431580,0.0-251.0-0.0,voc_e2,11752,"[{""event"":""fullscreenenter"",""trial"":1,""time"":3386}]",NA,NA,NA,NA,NA,0,#741CD8,#D8271C,0,0,1,38,1,636.2000000029802,39,0,562.7000000029802,0,0,experiment,NA,NA,2,0.5,0.5,4,5,241,6,NA
fcp-trial,291,1434550,0.0-252.0-0.0,voc_e2,11752,"[{""event"":""fullscreenenter"",""trial"":1,""time"":3386}]",NA,NA,NA,NA,NA,2,#3386FF,#D89F1C,0,10,0,38,1,903,39,0,543,10,1,experiment,NA,NA,0,0.1,0.9,1,0,242,6,NA
fcp-trial,292,1437277,0.0-253.0-0.0,voc_e2,11752,"[{""event"":""fullscreenenter"",""trial"":1,""time"":3386}]",NA,NA,NA,NA,NA,4,#D8271C,#741CD8,10,0,0,38,1,33.20000000298023,37,1,1168.699999988079,10,0,experiment,NA,NA,2,0.5,0.5,5,4,243,6,NA
fcp-trial,293,1439759,0.0-254.0-0.0,voc_e2,11752,"[{""event"":""fullscreenenter"",""trial"":1,""time"":3386}]",NA,NA,NA,NA,NA,1,#D89F1C,#3386FF,10,0,1,38,1,444.20000000298023,39,0,520,0,0,experiment,NA,NA,0,0.9,0.1,0,1,244,6,NA
fcp-trial,294,1442011,0.0-255.0-0.0,voc_e2,11752,"[{""event"":""fullscreenenter"",""trial"":1,""time"":3386}]",NA,NA,NA,NA,NA,1,#FA92F8,#1CD855,10,0,1,38,1,241.70000000298023,37,1,482.59999999403954,10,1,experiment,NA,NA,1,0.7,0.3,2,3,245,6,NA
fcp-trial,295,1444173,0.0-256.0-0.0,voc_e2,11752,"[{""event"":""fullscreenenter"",""trial"":1,""time"":3386}]",NA,NA,NA,NA,NA,4,#1CD855,#FA92F8,0,10,0,38,1,168.1000000089407,39,0,468.5,10,1,experiment,NA,NA,1,0.3,0.7,3,2,246,6,NA
fcp-trial,296,1446609,0.0-257.0-0.0,voc_e2,11752,"[{""event"":""fullscreenenter"",""trial"":1,""time"":3386}]",NA,NA,NA,NA,NA,1,#741CD8,#D8271C,10,0,1,38,1,357,39,0,561.5,0,0,experiment,NA,NA,2,0.5,0.5,4,5,247,6,NA
fcp-trial,297,1449086,0.0-258.0-0.0,voc_e2,11752,"[{""event"":""fullscreenenter"",""trial"":1,""time"":3386}]",NA,NA,NA,NA,NA,2,#D8271C,#741CD8,10,10,0,38,1,559.4000000059605,37,1,393.80000001192093,10,0,experiment,NA,NA,2,0.5,0.5,5,4,248,6,NA
fcp-trial,298,1451535,0.0-259.0-0.0,voc_e2,11752,"[{""event"":""fullscreenenter"",""trial"":1,""time"":3386}]",NA,NA,NA,NA,NA,0,#3386FF,#D89F1C,0,10,0,38,1,463.30000001192093,39,0,456.19999998807907,10,1,experiment,NA,NA,0,0.1,0.9,1,0,249,6,NA
fcp-trial,299,1453743,0.0-260.0-0.0,voc_e2,11752,"[{""event"":""fullscreenenter"",""trial"":1,""time"":3386}]",NA,NA,NA,NA,NA,0,#FA92F8,#1CD855,10,0,1,38,1,140.29999999701977,37,1,541.5,10,1,experiment,NA,NA,1,0.7,0.3,2,3,250,6,NA
fcp-trial,300,1456052,0.0-261.0-0.0,voc_e2,11752,"[{""event"":""fullscreenenter"",""trial"":1,""time"":3386}]",NA,NA,NA,NA,NA,5,#741CD8,#D8271C,10,10,1,38,1,178.09999999403954,39,0,607.0999999940395,10,0,experiment,NA,NA,2,0.5,0.5,4,5,251,6,NA
fcp-trial,301,1458396,0.0-262.0-0.0,voc_e2,11752,"[{""event"":""fullscreenenter"",""trial"":1,""time"":3386}]",NA,NA,NA,NA,NA,4,#3386FF,#D89F1C,0,10,0,38,1,396.8999999910593,39,0,424.09999999403954,10,1,experiment,NA,NA,0,0.1,0.9,1,0,252,6,NA
fcp-trial,302,1460915,0.0-263.0-0.0,voc_e2,11752,"[{""event"":""fullscreenenter"",""trial"":1,""time"":3386}]",NA,NA,NA,NA,NA,1,#3386FF,#D89F1C,0,0,0,38,1,627.9000000059605,39,0,370,0,1,experiment,NA,NA,0,0.1,0.9,1,0,253,6,NA
fcp-trial,303,1463568,0.0-264.0-0.0,voc_e2,11752,"[{""event"":""fullscreenenter"",""trial"":1,""time"":3386}]",NA,NA,NA,NA,NA,2,#D8271C,#741CD8,10,0,0,38,1,837.5,37,1,294,10,0,experiment,NA,NA,2,0.5,0.5,5,4,254,6,NA
fcp-trial,304,1466583,0.0-265.0-0.0,voc_e2,11752,"[{""event"":""fullscreenenter"",""trial"":1,""time"":3386}]",NA,NA,NA,NA,NA,6,#3386FF,#D89F1C,0,10,0,38,1,747.2000000029802,39,0,752.4000000059605,10,1,experiment,NA,NA,0,0.1,0.9,1,0,255,6,NA
fcp-trial,305,1469687,0.0-266.0-0.0,voc_e2,11752,"[{""event"":""fullscreenenter"",""trial"":1,""time"":3386}]",NA,NA,NA,NA,NA,4,#1CD855,#FA92F8,0,10,0,38,1,1088.7000000029802,39,0,506,10,1,experiment,NA,NA,1,0.3,0.7,3,2,256,6,NA
fcp-trial,306,1472397,0.0-267.0-0.0,voc_e2,11752,"[{""event"":""fullscreenenter"",""trial"":1,""time"":3386}]",NA,NA,NA,NA,NA,6,#1CD855,#FA92F8,0,0,0,38,1,751.7000000029802,39,0,434.29999999701977,0,1,experiment,NA,NA,1,0.3,0.7,3,2,257,6,NA
fcp-trial,307,1474998,0.0-268.0-0.0,voc_e2,11752,"[{""event"":""fullscreenenter"",""trial"":1,""time"":3386}]",NA,NA,NA,NA,NA,5,#1CD855,#FA92F8,0,10,0,38,1,594.5999999940395,39,0,497.59999999403954,10,1,experiment,NA,NA,1,0.3,0.7,3,2,258,6,NA
fcp-trial,308,1478501,0.0-269.0-0.0,voc_e2,11752,"[{""event"":""fullscreenenter"",""trial"":1,""time"":3386}]",NA,NA,NA,NA,NA,4,#D8271C,#741CD8,10,10,0,38,1,853.2999999970198,37,1,1132.8999999910593,10,0,experiment,NA,NA,2,0.5,0.5,5,4,259,6,NA
fcp-trial,309,1482102,0.0-270.0-0.0,voc_e2,11752,"[{""event"":""fullscreenenter"",""trial"":1,""time"":3386}]",NA,NA,NA,NA,NA,3,#D89F1C,#3386FF,10,0,1,38,1,901,37,1,1188.5999999940395,10,1,experiment,NA,NA,0,0.9,0.1,0,1,260,6,NA
fcp-trial,310,1485920,0.0-271.0-0.0,voc_e2,11752,"[{""event"":""fullscreenenter"",""trial"":1,""time"":3386}]",NA,NA,NA,NA,NA,3,#1CD855,#FA92F8,0,10,0,38,1,961,39,0,1329.699999988079,10,1,experiment,NA,NA,1,0.3,0.7,3,2,261,6,NA
fcp-trial,311,1490551,0.0-272.0-0.0,voc_e2,11752,"[{""event"":""fullscreenenter"",""trial"":1,""time"":3386}]",NA,NA,NA,NA,NA,0,#741CD8,#D8271C,0,10,1,38,1,822.7999999970198,39,0,2287.5,10,0,experiment,NA,NA,2,0.5,0.5,4,5,262,6,NA
fcp-trial,312,1494523,0.0-273.0-0.0,voc_e2,11752,"[{""event"":""fullscreenenter"",""trial"":1,""time"":3386}]",NA,NA,NA,NA,NA,3,#741CD8,#D8271C,0,0,1,38,1,1695.1000000089407,39,0,756.5,0,0,experiment,NA,NA,2,0.5,0.5,4,5,263,6,NA
fcp-trial,313,1499167,0.0-274.0-0.0,voc_e2,11752,"[{""event"":""fullscreenenter"",""trial"":1,""time"":3386}]",NA,NA,NA,NA,NA,2,#D89F1C,#3386FF,10,10,1,38,1,761.5999999940395,37,1,2353.5,10,1,experiment,NA,NA,0,0.9,0.1,0,1,264,6,NA
fcp-trial,314,1502201,0.0-275.0-0.0,voc_e2,11752,"[{""event"":""fullscreenenter"",""trial"":1,""time"":3386}]",NA,NA,NA,NA,NA,0,#FA92F8,#1CD855,10,0,1,38,1,466,37,1,1044.4000000059605,10,1,experiment,NA,NA,1,0.7,0.3,2,3,265,6,NA
fcp-trial,315,1504503,0.0-276.0-0.0,voc_e2,11752,"[{""event"":""fullscreenenter"",""trial"":1,""time"":3386}]",NA,NA,NA,NA,NA,6,#D8271C,#741CD8,0,10,0,38,1,222,37,1,559.0999999940395,0,0,experiment,NA,NA,2,0.5,0.5,5,4,266,6,NA
fcp-trial,316,1508156,0.0-277.0-0.0,voc_e2,11752,"[{""event"":""fullscreenenter"",""trial"":1,""time"":3386}]",NA,NA,NA,NA,NA,5,#D89F1C,#3386FF,0,0,1,38,1,1421.3999999910593,37,1,707.8000000119209,0,1,experiment,NA,NA,0,0.9,0.1,0,1,267,6,NA
fcp-trial,317,1511381,0.0-278.0-0.0,voc_e2,11752,"[{""event"":""fullscreenenter"",""trial"":1,""time"":3386}]",NA,NA,NA,NA,NA,1,#741CD8,#D8271C,0,0,1,38,1,1138,39,0,561.7000000029802,0,0,experiment,NA,NA,2,0.5,0.5,4,5,268,6,NA
fcp-trial,318,1515128,0.0-279.0-0.0,voc_e2,11752,"[{""event"":""fullscreenenter"",""trial"":1,""time"":3386}]",NA,NA,NA,NA,NA,2,#FA92F8,#1CD855,0,0,1,38,1,989.5999999940395,39,0,1236,0,0,experiment,NA,NA,1,0.7,0.3,2,3,269,6,NA
fcp-trial,319,1517882,0.0-280.0-0.0,voc_e2,11752,"[{""event"":""fullscreenenter"",""trial"":1,""time"":3386}]",NA,NA,NA,NA,NA,1,#1CD855,#FA92F8,0,10,0,38,1,853,39,0,376.20000000298023,10,1,experiment,NA,NA,1,0.3,0.7,3,2,270,6,NA
fcp-trial,320,1520476,0.0-281.0-0.0,voc_e2,11752,"[{""event"":""fullscreenenter"",""trial"":1,""time"":3386}]",NA,NA,NA,NA,NA,0,#3386FF,#D89F1C,10,10,0,38,1,517.9000000059605,39,0,567.5,10,1,experiment,NA,NA,0,0.1,0.9,1,0,271,7,NA
fcp-trial,321,1522930,0.0-282.0-0.0,voc_e2,11752,"[{""event"":""fullscreenenter"",""trial"":1,""time"":3386}]",NA,NA,NA,NA,NA,5,#D8271C,#741CD8,10,10,0,38,1,490.8999999910593,37,1,431.20000000298023,10,0,experiment,NA,NA,2,0.5,0.5,5,4,272,7,NA
fcp-trial,322,1525428,0.0-283.0-0.0,voc_e2,11752,"[{""event"":""fullscreenenter"",""trial"":1,""time"":3386}]",NA,NA,NA,NA,NA,4,#3386FF,#D89F1C,0,10,0,38,1,524.7000000029802,39,0,449.80000001192093,10,1,experiment,NA,NA,0,0.1,0.9,1,0,273,7,NA
fcp-trial,323,1527930,0.0-284.0-0.0,voc_e2,11752,"[{""event"":""fullscreenenter"",""trial"":1,""time"":3386}]",NA,NA,NA,NA,NA,1,#D89F1C,#3386FF,10,0,1,38,1,511.59999999403954,37,1,463.29999999701977,10,1,experiment,NA,NA,0,0.9,0.1,0,1,274,7,NA
fcp-trial,324,1530564,0.0-285.0-0.0,voc_e2,11752,"[{""event"":""fullscreenenter"",""trial"":1,""time"":3386}]",NA,NA,NA,NA,NA,3,#1CD855,#FA92F8,0,0,0,38,1,618.5,37,1,498.29999999701977,0,0,experiment,NA,NA,1,0.3,0.7,3,2,275,7,NA
fcp-trial,325,1533207,0.0-286.0-0.0,voc_e2,11752,"[{""event"":""fullscreenenter"",""trial"":1,""time"":3386}]",NA,NA,NA,NA,NA,5,#3386FF,#D89F1C,0,10,0,38,1,483.20000000298023,39,0,630.5999999940395,10,1,experiment,NA,NA,0,0.1,0.9,1,0,276,7,NA
fcp-trial,326,1535729,0.0-287.0-0.0,voc_e2,11752,"[{""event"":""fullscreenenter"",""trial"":1,""time"":3386}]",NA,NA,NA,NA,NA,6,#3386FF,#D89F1C,10,10,0,38,1,531.9000000059605,39,0,481.09999999403954,10,1,experiment,NA,NA,0,0.1,0.9,1,0,277,7,NA
fcp-trial,327,1538573,0.0-288.0-0.0,voc_e2,11752,"[{""event"":""fullscreenenter"",""trial"":1,""time"":3386}]",NA,NA,NA,NA,NA,5,#741CD8,#D8271C,0,0,1,38,1,476.29999999701977,39,0,847.6000000089407,0,0,experiment,NA,NA,2,0.5,0.5,4,5,278,7,NA
fcp-trial,328,1541258,0.0-289.0-0.0,voc_e2,11752,"[{""event"":""fullscreenenter"",""trial"":1,""time"":3386}]",NA,NA,NA,NA,NA,0,#FA92F8,#1CD855,0,0,1,38,1,545.3999999910593,37,1,609.2999999970198,0,1,experiment,NA,NA,1,0.7,0.3,2,3,279,7,NA
fcp-trial,329,1544073,0.0-290.0-0.0,voc_e2,11752,"[{""event"":""fullscreenenter"",""trial"":1,""time"":3386}]",NA,NA,NA,NA,NA,2,#1CD855,#FA92F8,0,10,0,38,1,797.6000000089407,37,1,500,0,0,experiment,NA,NA,1,0.3,0.7,3,2,280,7,NA
fcp-trial,330,1546776,0.0-291.0-0.0,voc_e2,11752,"[{""event"":""fullscreenenter"",""trial"":1,""time"":3386}]",NA,NA,NA,NA,NA,3,#D8271C,#741CD8,10,0,0,38,1,440.20000000298023,37,1,736,10,0,experiment,NA,NA,2,0.5,0.5,5,4,281,7,NA
fcp-trial,331,1549409,0.0-292.0-0.0,voc_e2,11752,"[{""event"":""fullscreenenter"",""trial"":1,""time"":3386}]",NA,NA,NA,NA,NA,0,#3386FF,#D89F1C,0,10,0,38,1,516.9000000059605,39,0,594.1000000089407,10,1,experiment,NA,NA,0,0.1,0.9,1,0,282,7,NA
fcp-trial,332,1552046,0.0-293.0-0.0,voc_e2,11752,"[{""event"":""fullscreenenter"",""trial"":1,""time"":3386}]",NA,NA,NA,NA,NA,4,#D8271C,#741CD8,0,0,0,38,1,701.7999999970198,37,1,420,0,0,experiment,NA,NA,2,0.5,0.5,5,4,283,7,NA
fcp-trial,333,1556680,0.0-294.0-0.0,voc_e2,11752,"[{""event"":""fullscreenenter"",""trial"":1,""time"":3386}]",NA,NA,NA,NA,NA,3,#D89F1C,#3386FF,0,0,1,38,1,1218,37,1,1891.0999999940395,0,1,experiment,NA,NA,0,0.9,0.1,0,1,284,7,NA
fcp-trial,334,1559714,0.0-295.0-0.0,voc_e2,11752,"[{""event"":""fullscreenenter"",""trial"":1,""time"":3386}]",NA,NA,NA,NA,NA,1,#1CD855,#FA92F8,10,0,0,38,1,959.1999999880791,37,1,547.0999999940395,10,0,experiment,NA,NA,1,0.3,0.7,3,2,285,7,NA
fcp-trial,335,1562303,0.0-296.0-0.0,voc_e2,11752,"[{""event"":""fullscreenenter"",""trial"":1,""time"":3386}]",NA,NA,NA,NA,NA,2,#741CD8,#D8271C,0,0,1,38,1,507.8999999910593,39,0,563.9000000059605,0,0,experiment,NA,NA,2,0.5,0.5,4,5,286,7,NA
fcp-trial,336,1564591,0.0-297.0-0.0,voc_e2,11752,"[{""event"":""fullscreenenter"",""trial"":1,""time"":3386}]",NA,NA,NA,NA,NA,2,#3386FF,#D89F1C,0,10,0,38,1,360.29999999701977,39,0,399.79999999701977,10,1,experiment,NA,NA,0,0.1,0.9,1,0,287,7,NA
fcp-trial,337,1566859,0.0-298.0-0.0,voc_e2,11752,"[{""event"":""fullscreenenter"",""trial"":1,""time"":3386}]",NA,NA,NA,NA,NA,4,#1CD855,#FA92F8,10,10,0,38,1,212.29999999701977,37,1,530.2999999970198,10,0,experiment,NA,NA,1,0.3,0.7,3,2,288,7,NA
fcp-trial,338,1569694,0.0-299.0-0.0,voc_e2,11752,"[{""event"":""fullscreenenter"",""trial"":1,""time"":3386}]",NA,NA,NA,NA,NA,1,#D8271C,#741CD8,0,0,0,38,1,271.5,39,0,1033.7000000029802,0,1,experiment,NA,NA,2,0.5,0.5,5,4,289,7,NA
fcp-trial,339,1571826,0.0-300.0-0.0,voc_e2,11752,"[{""event"":""fullscreenenter"",""trial"":1,""time"":3386}]",NA,NA,NA,NA,NA,6,#FA92F8,#1CD855,10,0,1,38,1,77.5,37,1,529.0999999940395,10,1,experiment,NA,NA,1,0.7,0.3,2,3,290,7,NA
fcp-trial,340,1573922,0.0-301.0-0.0,voc_e2,11752,"[{""event"":""fullscreenenter"",""trial"":1,""time"":3386}]",NA,NA,NA,NA,NA,4,#3386FF,#D89F1C,0,10,0,38,1,72.1000000089407,39,0,499.40000000596046,10,1,experiment,NA,NA,0,0.1,0.9,1,0,291,7,NA
fcp-trial,341,1576151,0.0-302.0-0.0,voc_e2,11752,"[{""event"":""fullscreenenter"",""trial"":1,""time"":3386}]",NA,NA,NA,NA,NA,6,#741CD8,#D8271C,0,10,1,38,1,317.59999999403954,39,0,382.5,10,0,experiment,NA,NA,2,0.5,0.5,4,5,292,7,NA
fcp-trial,342,1578396,0.0-303.0-0.0,voc_e2,11752,"[{""event"":""fullscreenenter"",""trial"":1,""time"":3386}]",NA,NA,NA,NA,NA,5,#1CD855,#FA92F8,0,0,0,38,1,187.29999999701977,39,0,536.7000000029802,0,1,experiment,NA,NA,1,0.3,0.7,3,2,293,7,NA
fcp-trial,343,1580678,0.0-304.0-0.0,voc_e2,11752,"[{""event"":""fullscreenenter"",""trial"":1,""time"":3386}]",NA,NA,NA,NA,NA,0,#741CD8,#D8271C,0,10,1,38,1,348.29999999701977,39,0,415.80000001192093,10,0,experiment,NA,NA,2,0.5,0.5,4,5,294,7,NA
fcp-trial,344,1583247,0.0-305.0-0.0,voc_e2,11752,"[{""event"":""fullscreenenter"",""trial"":1,""time"":3386}]",NA,NA,NA,NA,NA,6,#1CD855,#FA92F8,0,10,0,38,1,540.7999999970198,39,0,505.90000000596046,10,1,experiment,NA,NA,1,0.3,0.7,3,2,295,7,NA
fcp-trial,345,1585547,0.0-306.0-0.0,voc_e2,11752,"[{""event"":""fullscreenenter"",""trial"":1,""time"":3386}]",NA,NA,NA,NA,NA,4,#D8271C,#741CD8,10,10,0,38,1,109.3999999910593,37,1,668.5999999940395,10,0,experiment,NA,NA,2,0.5,0.5,5,4,296,7,NA
fcp-trial,346,1587705,0.0-307.0-0.0,voc_e2,11752,"[{""event"":""fullscreenenter"",""trial"":1,""time"":3386}]",NA,NA,NA,NA,NA,6,#D89F1C,#3386FF,10,0,1,38,1,58.1000000089407,37,1,573.6999999880791,10,1,experiment,NA,NA,0,0.9,0.1,0,1,297,7,NA
fcp-trial,347,1589905,0.0-308.0-0.0,voc_e2,11752,"[{""event"":""fullscreenenter"",""trial"":1,""time"":3386}]",NA,NA,NA,NA,NA,2,#FA92F8,#1CD855,10,0,1,38,1,111.90000000596046,39,0,563.2000000029802,0,0,experiment,NA,NA,1,0.7,0.3,2,3,298,7,NA
fcp-trial,348,1592087,0.0-309.0-0.0,voc_e2,11752,"[{""event"":""fullscreenenter"",""trial"":1,""time"":3386}]",NA,NA,NA,NA,NA,2,#741CD8,#D8271C,10,0,1,38,1,137.29999999701977,39,0,520.5,0,0,experiment,NA,NA,2,0.5,0.5,4,5,299,7,NA
fcp-trial,349,1594192,0.0-310.0-0.0,voc_e2,11752,"[{""event"":""fullscreenenter"",""trial"":1,""time"":3386}]",NA,NA,NA,NA,NA,5,#3386FF,#D89F1C,0,10,0,38,1,78.5,39,0,512.6000000089407,10,1,experiment,NA,NA,0,0.1,0.9,1,0,300,7,NA
fcp-trial,350,1596425,0.0-311.0-0.0,voc_e2,11752,"[{""event"":""fullscreenenter"",""trial"":1,""time"":3386}]",NA,NA,NA,NA,NA,0,#FA92F8,#1CD855,10,10,1,38,1,101.20000000298023,39,0,619.0999999940395,10,0,experiment,NA,NA,1,0.7,0.3,2,3,301,7,NA
fcp-trial,351,1598580,0.0-312.0-0.0,voc_e2,11752,"[{""event"":""fullscreenenter"",""trial"":1,""time"":3386}]",NA,NA,NA,NA,NA,3,#741CD8,#D8271C,0,10,1,38,1,74.5,39,0,554.5,10,0,experiment,NA,NA,2,0.5,0.5,4,5,302,7,NA
fcp-trial,352,1600961,0.0-313.0-0.0,voc_e2,11752,"[{""event"":""fullscreenenter"",""trial"":1,""time"":3386}]",NA,NA,NA,NA,NA,0,#D89F1C,#3386FF,10,0,1,38,1,171.20000000298023,37,1,688.9000000059605,10,1,experiment,NA,NA,0,0.9,0.1,0,1,303,7,NA
fcp-trial,353,1603472,0.0-314.0-0.0,voc_e2,11752,"[{""event"":""fullscreenenter"",""trial"":1,""time"":3386}]",NA,NA,NA,NA,NA,2,#D89F1C,#3386FF,10,0,1,38,1,88,37,1,899.5999999940395,10,1,experiment,NA,NA,0,0.9,0.1,0,1,304,7,NA
fcp-trial,354,1605766,0.0-315.0-0.0,voc_e2,11752,"[{""event"":""fullscreenenter"",""trial"":1,""time"":3386}]",NA,NA,NA,NA,NA,3,#FA92F8,#1CD855,10,0,1,38,1,6.700000002980232,37,1,771.7999999970198,10,1,experiment,NA,NA,1,0.7,0.3,2,3,305,7,NA
fcp-trial,355,1608534,0.0-316.0-0.0,voc_e2,11752,"[{""event"":""fullscreenenter"",""trial"":1,""time"":3386}]",NA,NA,NA,NA,NA,5,#FA92F8,#1CD855,10,0,1,38,1,282,37,1,962.5,10,1,experiment,NA,NA,1,0.7,0.3,2,3,306,7,NA
fcp-trial,356,1611086,0.0-317.0-0.0,voc_e2,11752,"[{""event"":""fullscreenenter"",""trial"":1,""time"":3386}]",NA,NA,NA,NA,NA,1,#741CD8,#D8271C,0,10,1,38,1,505,39,0,529.3000000119209,10,0,experiment,NA,NA,2,0.5,0.5,4,5,307,7,NA
fcp-trial,357,1613697,0.0-318.0-0.0,voc_e2,11752,"[{""event"":""fullscreenenter"",""trial"":1,""time"":3386}]",NA,NA,NA,NA,NA,5,#741CD8,#D8271C,10,10,1,38,1,247,39,0,855.7000000029802,10,0,experiment,NA,NA,2,0.5,0.5,4,5,308,7,NA
fcp-trial,358,1615901,0.0-319.0-0.0,voc_e2,11752,"[{""event"":""fullscreenenter"",""trial"":1,""time"":3386}]",NA,NA,NA,NA,NA,1,#D89F1C,#3386FF,10,0,1,38,1,310,37,1,377.79999999701977,10,1,experiment,NA,NA,0,0.9,0.1,0,1,309,7,NA
fcp-trial,359,1618191,0.0-320.0-0.0,voc_e2,11752,"[{""event"":""fullscreenenter"",""trial"":1,""time"":3386}]",NA,NA,NA,NA,NA,4,#1CD855,#FA92F8,10,0,0,38,1,325.29999999701977,39,0,450.70000000298023,0,1,experiment,NA,NA,1,0.3,0.7,3,2,310,7,NA
fcp-trial,360,1620663,0.0-321.0-0.0,voc_e2,11752,"[{""event"":""fullscreenenter"",""trial"":1,""time"":3386}]",NA,NA,NA,NA,NA,0,#741CD8,#D8271C,10,0,1,38,1,437.20000000298023,39,0,510.6000000089407,0,0,experiment,NA,NA,2,0.5,0.5,4,5,311,7,NA
fcp-trial,361,1623024,0.0-322.0-0.0,voc_e2,11752,"[{""event"":""fullscreenenter"",""trial"":1,""time"":3386}]",NA,NA,NA,NA,NA,1,#1CD855,#FA92F8,10,10,0,38,1,195.90000000596046,39,0,641.7999999970198,10,1,experiment,NA,NA,1,0.3,0.7,3,2,312,7,NA
fcp-trial,362,1625664,0.0-323.0-0.0,voc_e2,11752,"[{""event"":""fullscreenenter"",""trial"":1,""time"":3386}]",NA,NA,NA,NA,NA,4,#D89F1C,#3386FF,10,0,1,38,1,582.5,37,1,537.4000000059605,10,1,experiment,NA,NA,0,0.9,0.1,0,1,313,7,NA
fcp-trial,363,1627740,0.0-324.0-0.0,voc_e2,11752,"[{""event"":""fullscreenenter"",""trial"":1,""time"":3386}]",NA,NA,NA,NA,NA,3,#D89F1C,#3386FF,0,0,1,38,1,45.29999999701977,39,0,500.20000000298023,0,0,experiment,NA,NA,0,0.9,0.1,0,1,314,7,NA
fcp-trial,364,1629825,0.0-325.0-0.0,voc_e2,11752,"[{""event"":""fullscreenenter"",""trial"":1,""time"":3386}]",NA,NA,NA,NA,NA,6,#D8271C,#741CD8,10,10,0,38,1,31,37,1,542.1999999880791,10,0,experiment,NA,NA,2,0.5,0.5,5,4,315,7,NA
audio-instructions,365,1637521,0.0-326.0,voc_e2,11752,"[{""event"":""fullscreenenter"",""trial"":1,""time"":3386}]",NA,1902.1000000089407,static/audio/finished.wav,NA,0,NA,NA,NA,NA,NA,NA,NA,NA,NA,NA,NA,NA,NA,NA,NA,NA,NA,NA,NA,NA,NA,NA,NA,NA,NA
audio-instructions,366,1652126,0.0-327.0-0.0,voc_e2,11752,"[{""event"":""fullscreenenter"",""trial"":1,""time"":3386}]",NA,3765.900000005961,static/audio/explicit1.wav,NA,0,NA,NA,NA,NA,NA,NA,NA,NA,NA,NA,NA,NA,NA,NA,NA,NA,NA,NA,NA,NA,NA,NA,NA,NA,NA
audio-instructions,367,1660492,0.0-327.0-1.0,voc_e2,11752,"[{""event"":""fullscreenenter"",""trial"":1,""time"":3386}]",NA,772.2999999970198,static/audio/explicit2.wav,NA,0,NA,NA,NA,NA,NA,NA,NA,NA,NA,NA,NA,NA,NA,NA,NA,NA,NA,NA,NA,NA,NA,NA,NA,NA,NA
image-slider-response,368,1675856,0.0-328.0,voc_e2,11752,"[{""event"":""fullscreenenter"",""trial"":1,""time"":3386}]",NA,15361.80000001192,static/img/machines/machine2.png,NA,NA,NA,NA,NA,NA,NA,NA,NA,NA,NA,NA,NA,NA,NA,NA,explicit,NA,NA,NA,NA,NA,NA,NA,NA,NA,2
image-slider-response,369,1685970,0.0-329.0,voc_e2,11752,"[{""event"":""fullscreenenter"",""trial"":1,""time"":3386}]",NA,10111.59999999404,static/img/machines/machine5.png,NA,NA,NA,NA,NA,NA,NA,NA,NA,NA,NA,NA,NA,NA,NA,NA,explicit,NA,NA,NA,NA,NA,NA,NA,NA,NA,8
image-slider-response,370,1689400,0.0-330.0,voc_e2,11752,"[{""event"":""fullscreenenter"",""trial"":1,""time"":3386}]",NA,3428,static/img/machines/machine1.png,NA,NA,NA,NA,NA,NA,NA,NA,NA,NA,NA,NA,NA,NA,NA,NA,explicit,NA,NA,NA,NA,NA,NA,NA,NA,NA,7
image-slider-response,371,1694636,0.0-331.0,voc_e2,11752,"[{""event"":""fullscreenenter"",""trial"":1,""time"":3386}]",NA,5233.899999991059,static/img/machines/machine6.png,NA,NA,NA,NA,NA,NA,NA,NA,NA,NA,NA,NA,NA,NA,NA,NA,explicit,NA,NA,NA,NA,NA,NA,NA,NA,NA,2
image-slider-response,372,1699916,0.0-332.0,voc_e2,11752,"[{""event"":""fullscreenenter"",""trial"":1,""time"":3386}]",NA,5277.79999999702,static/img/machines/machine4.png,NA,NA,NA,NA,NA,NA,NA,NA,NA,NA,NA,NA,NA,NA,NA,NA,explicit,NA,NA,NA,NA,NA,NA,NA,NA,NA,8
image-slider-response,373,1703884,0.0-333.0,voc_e2,11752,"[{""event"":""fullscreenenter"",""trial"":1,""time"":3386}]",NA,3966,static/img/machines/machine3.png,NA,NA,NA,NA,NA,NA,NA,NA,NA,NA,NA,NA,NA,NA,NA,NA,explicit,NA,NA,NA,NA,NA,NA,NA,NA,NA,2
