trial_type,trial_index,time_elapsed,internal_node_id,task_version,subject_id,interactions,success,rt,stimulus,key_press,button_pressed,offer,arcade_color_L,arcade_color_R,arcade_outcome_L,arcade_outcome_R,correct,stage_1_key,stage_1_choice,stage_1_rt,stage_2_key,stage_2_choice,stage_2_rt,stage_3_outcome,accuracy,phase,responses,num_errors,context,reward_prob_L,reward_prob_R,arcade_id_L,arcade_id_R,trial,block,response
pavlovia,0,11,0.0-0.0,voc_e2,12263,[],NA,NA,NA,NA,NA,NA,NA,NA,NA,NA,NA,NA,NA,NA,NA,NA,NA,NA,NA,NA,NA,NA,NA,NA,NA,NA,NA,NA,NA,NA
fullscreen,1,4209,0.0-1.0,voc_e2,12263,"[{""event"":""fullscreenenter"",""trial"":1,""time"":3229}]",TRUE,NA,NA,NA,NA,NA,NA,NA,NA,NA,NA,NA,NA,NA,NA,NA,NA,NA,NA,NA,NA,NA,NA,NA,NA,NA,NA,NA,NA,NA
audio-keyboard-response,2,7529,0.0-2.0,voc_e2,12263,"[{""event"":""fullscreenenter"",""trial"":1,""time"":3229}]",NA,3136,static/audio/beep_loop.wav,32,NA,NA,NA,NA,NA,NA,NA,NA,NA,NA,NA,NA,NA,NA,NA,NA,NA,NA,NA,NA,NA,NA,NA,NA,NA,NA
audio-test,3,9055,0.0-3.0,voc_e2,12263,"[{""event"":""fullscreenenter"",""trial"":1,""time"":3229}]",NA,NA,static/audio/turtle.wav,NA,3,NA,NA,NA,NA,NA,NA,NA,NA,NA,NA,NA,NA,NA,NA,NA,NA,NA,NA,NA,NA,NA,NA,NA,NA,NA
audio-test,4,11406,0.0-4.0,voc_e2,12263,"[{""event"":""fullscreenenter"",""trial"":1,""time"":3229}]",NA,NA,static/audio/shark.wav,NA,2,NA,NA,NA,NA,NA,NA,NA,NA,NA,NA,NA,NA,NA,NA,NA,NA,NA,NA,NA,NA,NA,NA,NA,NA,NA
audio-instructions,5,18628,0.0-5.0-0.0,voc_e2,12263,"[{""event"":""fullscreenenter"",""trial"":1,""time"":3229}]",NA,1443.2999992370603,static/audio/instructions1.wav,NA,0,NA,NA,NA,NA,NA,NA,NA,NA,NA,NA,NA,NA,NA,NA,NA,NA,NA,NA,NA,NA,NA,NA,NA,NA,NA
audio-instructions,6,25948,0.0-5.0-1.0,voc_e2,12263,"[{""event"":""fullscreenenter"",""trial"":1,""time"":3229}]",NA,582.5999984741211,static/audio/instructions2.wav,NA,0,NA,NA,NA,NA,NA,NA,NA,NA,NA,NA,NA,NA,NA,NA,NA,NA,NA,NA,NA,NA,NA,NA,NA,NA,NA
audio-instructions,7,32977,0.0-5.0-2.0,voc_e2,12263,"[{""event"":""fullscreenenter"",""trial"":1,""time"":3229}]",NA,1232.7999992370603,static/audio/instructions3.wav,NA,0,NA,NA,NA,NA,NA,NA,NA,NA,NA,NA,NA,NA,NA,NA,NA,NA,NA,NA,NA,NA,NA,NA,NA,NA,NA
audio-instructions,8,47397,0.0-5.0-3.0,voc_e2,12263,"[{""event"":""fullscreenenter"",""trial"":1,""time"":3229}]",NA,1197,static/audio/instructions4.wav,NA,0,NA,NA,NA,NA,NA,NA,NA,NA,NA,NA,NA,NA,NA,NA,NA,NA,NA,NA,NA,NA,NA,NA,NA,NA,NA
audio-instructions,9,59279,0.0-5.0-4.0,voc_e2,12263,"[{""event"":""fullscreenenter"",""trial"":1,""time"":3229}]",NA,2497.099998474121,static/audio/instructions5.wav,NA,0,NA,NA,NA,NA,NA,NA,NA,NA,NA,NA,NA,NA,NA,NA,NA,NA,NA,NA,NA,NA,NA,NA,NA,NA,NA
fcp-practice,10,62676,0.0-5.0-5.0-0.0,voc_e2,12263,"[{""event"":""fullscreenenter"",""trial"":1,""time"":3229}]",NA,NA,NA,NA,NA,NA,#EDC948,#46d3c8,10,0,1,null,null,null,37,1,1878.900001525879,10,1,practice,NA,NA,NA,NA,NA,NA,NA,NA,NA,NA
fcp-practice,11,64692,0.0-5.0-5.0-1.0,voc_e2,12263,"[{""event"":""fullscreenenter"",""trial"":1,""time"":3229}]",NA,NA,NA,NA,NA,NA,#EDC948,#46d3c8,10,0,1,null,null,null,37,1,501,10,1,practice,NA,NA,NA,NA,NA,NA,NA,NA,NA,NA
fcp-practice,12,66775,0.0-5.0-5.0-2.0,voc_e2,12263,"[{""event"":""fullscreenenter"",""trial"":1,""time"":3229}]",NA,NA,NA,NA,NA,NA,#EDC948,#46d3c8,0,10,1,null,null,null,37,1,564.9000015258789,0,1,practice,NA,NA,NA,NA,NA,NA,NA,NA,NA,NA
fcp-practice,13,68858,0.0-5.0-5.0-3.0,voc_e2,12263,"[{""event"":""fullscreenenter"",""trial"":1,""time"":3229}]",NA,NA,NA,NA,NA,NA,#EDC948,#46d3c8,10,0,1,null,null,null,37,1,566.2000007629395,10,1,practice,NA,NA,NA,NA,NA,NA,NA,NA,NA,NA
fcp-practice,14,71491,0.0-5.0-5.0-4.0,voc_e2,12263,"[{""event"":""fullscreenenter"",""trial"":1,""time"":3229}]",NA,NA,NA,NA,NA,NA,#EDC948,#46d3c8,10,0,1,null,null,null,37,1,1126.900001525879,10,1,practice,NA,NA,NA,NA,NA,NA,NA,NA,NA,NA
audio-instructions,15,90475,0.0-5.0-6.0,voc_e2,12263,"[{""event"":""fullscreenenter"",""trial"":1,""time"":3229}]",NA,978.7999992370604,static/audio/instructions6.wav,NA,0,NA,NA,NA,NA,NA,NA,NA,NA,NA,NA,NA,NA,NA,NA,NA,NA,NA,NA,NA,NA,NA,NA,NA,NA,NA
audio-instructions,16,111192,0.0-5.0-7.0,voc_e2,12263,"[{""event"":""fullscreenenter"",""trial"":1,""time"":3229}]",NA,1523.1999969482422,static/audio/instructions7.wav,NA,0,NA,NA,NA,NA,NA,NA,NA,NA,NA,NA,NA,NA,NA,NA,NA,NA,NA,NA,NA,NA,NA,NA,NA,NA,NA
audio-instructions,17,121365,0.0-5.0-8.0,voc_e2,12263,"[{""event"":""fullscreenenter"",""trial"":1,""time"":3229}]",NA,710.6000022888184,static/audio/instructions8.wav,NA,0,NA,NA,NA,NA,NA,NA,NA,NA,NA,NA,NA,NA,NA,NA,NA,NA,NA,NA,NA,NA,NA,NA,NA,NA,NA
fcp-comprehension,18,131509,0.0-5.0-9.0,voc_e2,12263,"[{""event"":""fullscreenenter"",""trial"":1,""time"":3229}]",NA,10141.09999847412,NA,NA,NA,NA,NA,NA,NA,NA,NA,NA,NA,NA,NA,NA,NA,NA,NA,NA,"true,true",0,NA,NA,NA,NA,NA,NA,NA,NA
audio-instructions,19,138795,0.0-6.0-0.0,voc_e2,12263,"[{""event"":""fullscreenenter"",""trial"":1,""time"":3229}]",NA,1745,static/audio/instructions9.wav,NA,0,NA,NA,NA,NA,NA,NA,NA,NA,NA,NA,NA,NA,NA,NA,NA,NA,NA,NA,NA,NA,NA,NA,NA,NA,NA
audio-instructions,20,151481,0.0-6.0-1.0,voc_e2,12263,"[{""event"":""fullscreenenter"",""trial"":1,""time"":3229}]",NA,575.3999977111816,static/audio/instructions10.wav,NA,0,NA,NA,NA,NA,NA,NA,NA,NA,NA,NA,NA,NA,NA,NA,NA,NA,NA,NA,NA,NA,NA,NA,NA,NA,NA
fcp-trial,21,157817,0.0-6.0-2.0,voc_e2,12263,"[{""event"":""fullscreenenter"",""trial"":1,""time"":3229}]",NA,NA,NA,NA,NA,0,#EDC948,#46d3c8,10,10,1,38,1,3600.2000007629395,39,0,1165.7999992370603,10,0,practice,NA,NA,NA,NA,NA,NA,NA,NA,NA,NA
audio-instructions,22,169597,0.0-6.0-3.0,voc_e2,12263,"[{""event"":""fullscreenenter"",""trial"":1,""time"":3229}]",NA,771.1999969482422,static/audio/instructions11.wav,NA,0,NA,NA,NA,NA,NA,NA,NA,NA,NA,NA,NA,NA,NA,NA,NA,NA,NA,NA,NA,NA,NA,NA,NA,NA,NA
fcp-trial,23,174398,0.0-6.0-4.0,voc_e2,12263,"[{""event"":""fullscreenenter"",""trial"":1,""time"":3229}]",NA,NA,NA,NA,NA,6,#EDC948,#46d3c8,10,10,1,40,0,2031.5,37,1,1249.900001525879,10,1,practice,NA,NA,NA,NA,NA,NA,NA,NA,NA,NA
audio-instructions,24,196228,0.0-6.0-5.0,voc_e2,12263,"[{""event"":""fullscreenenter"",""trial"":1,""time"":3229}]",NA,3145.6000022888184,static/audio/instructions12.wav,NA,0,NA,NA,NA,NA,NA,NA,NA,NA,NA,NA,NA,NA,NA,NA,NA,NA,NA,NA,NA,NA,NA,NA,NA,NA,NA
audio-instructions,25,204590,0.0-6.0-6.0,voc_e2,12263,"[{""event"":""fullscreenenter"",""trial"":1,""time"":3229}]",NA,765.7999992370605,static/audio/instructions13.wav,NA,0,NA,NA,NA,NA,NA,NA,NA,NA,NA,NA,NA,NA,NA,NA,NA,NA,NA,NA,NA,NA,NA,NA,NA,NA,NA
audio-instructions,26,213792,0.0-6.0-7.0,voc_e2,12263,"[{""event"":""fullscreenenter"",""trial"":1,""time"":3229}]",NA,762.5999984741211,static/audio/instructions14.wav,NA,0,NA,NA,NA,NA,NA,NA,NA,NA,NA,NA,NA,NA,NA,NA,NA,NA,NA,NA,NA,NA,NA,NA,NA,NA,NA
audio-instructions,27,221576,0.0-7.0-0.0,voc_e2,12263,"[{""event"":""fullscreenenter"",""trial"":1,""time"":3229}]",NA,877.5,static/audio/instructions15.wav,NA,0,NA,NA,NA,NA,NA,NA,NA,NA,NA,NA,NA,NA,NA,NA,NA,NA,NA,NA,NA,NA,NA,NA,NA,NA,NA
audio-instructions,28,228899,0.0-7.0-1.0,voc_e2,12263,"[{""event"":""fullscreenenter"",""trial"":1,""time"":3229}]",NA,499.0999984741211,static/audio/instructions16.wav,NA,0,NA,NA,NA,NA,NA,NA,NA,NA,NA,NA,NA,NA,NA,NA,NA,NA,NA,NA,NA,NA,NA,NA,NA,NA,NA
audio-instructions,29,237742,0.0-7.0-2.0,voc_e2,12263,"[{""event"":""fullscreenenter"",""trial"":1,""time"":3229}]",NA,1169.900001525879,static/audio/instructions17.wav,NA,0,NA,NA,NA,NA,NA,NA,NA,NA,NA,NA,NA,NA,NA,NA,NA,NA,NA,NA,NA,NA,NA,NA,NA,NA,NA
audio-instructions,30,245983,0.0-7.0-3.0,voc_e2,12263,"[{""event"":""fullscreenenter"",""trial"":1,""time"":3229}]",NA,483.5,static/audio/instructions18.wav,NA,0,NA,NA,NA,NA,NA,NA,NA,NA,NA,NA,NA,NA,NA,NA,NA,NA,NA,NA,NA,NA,NA,NA,NA,NA,NA
audio-instructions,31,253290,0.0-7.0-4.0,voc_e2,12263,"[{""event"":""fullscreenenter"",""trial"":1,""time"":3229}]",NA,568.2999992370605,static/audio/instructions19.wav,NA,0,NA,NA,NA,NA,NA,NA,NA,NA,NA,NA,NA,NA,NA,NA,NA,NA,NA,NA,NA,NA,NA,NA,NA,NA,NA
fcp-comprehension,32,265309,0.0-7.0-5.0,voc_e2,12263,"[{""event"":""fullscreenenter"",""trial"":1,""time"":3229}]",NA,12018,NA,NA,NA,NA,NA,NA,NA,NA,NA,NA,NA,NA,NA,NA,NA,NA,NA,NA,"false,false,false,true",0,NA,NA,NA,NA,NA,NA,NA,NA
audio-instructions,33,275693,0.0-8.0,voc_e2,12263,"[{""event"":""fullscreenenter"",""trial"":1,""time"":3229}]",NA,1168.7999992370603,static/audio/ready.wav,NA,0,NA,NA,NA,NA,NA,NA,NA,NA,NA,NA,NA,NA,NA,NA,NA,NA,NA,NA,NA,NA,NA,NA,NA,NA,NA
fcp-trial,34,280783,0.0-9.0-0.0,voc_e2,12263,"[{""event"":""fullscreenenter"",""trial"":1,""time"":3229}]",NA,NA,NA,NA,NA,5,#D89F1C,#3386FF,0,10,0,40,0,2739.400001525879,37,1,829.2000007629395,0,0,experiment,NA,NA,1,0.3,0.7,3,2,1,1,NA
fcp-trial,35,286416,0.0-10.0-0.0,voc_e2,12263,"[{""event"":""fullscreenenter"",""trial"":1,""time"":3229}]",NA,NA,NA,NA,NA,1,#741CD8,#D8271C,10,0,1,38,1,2554.599998474121,37,1,1564.2999992370603,10,1,experiment,NA,NA,0,0.9,0.1,0,1,2,1,NA
fcp-trial,36,290032,0.0-11.0-0.0,voc_e2,12263,"[{""event"":""fullscreenenter"",""trial"":1,""time"":3229}]",NA,NA,NA,NA,NA,4,#741CD8,#D8271C,10,0,1,38,1,1503,37,1,596.8999977111816,10,1,experiment,NA,NA,0,0.9,0.1,0,1,3,1,NA
fcp-trial,37,293399,0.0-12.0-0.0,voc_e2,12263,"[{""event"":""fullscreenenter"",""trial"":1,""time"":3229}]",NA,NA,NA,NA,NA,2,#FA92F8,#1CD855,10,0,1,38,1,1175.2000007629395,39,0,675.7999992370605,0,0,experiment,NA,NA,2,0.5,0.5,4,5,4,1,NA
fcp-trial,38,298016,0.0-13.0-0.0,voc_e2,12263,"[{""event"":""fullscreenenter"",""trial"":1,""time"":3229}]",NA,NA,NA,NA,NA,0,#1CD855,#FA92F8,10,0,0,38,1,1603.7999992370605,39,0,1490.3999977111816,0,1,experiment,NA,NA,2,0.5,0.5,5,4,5,1,NA
fcp-trial,39,301116,0.0-14.0-0.0,voc_e2,12263,"[{""event"":""fullscreenenter"",""trial"":1,""time"":3229}]",NA,NA,NA,NA,NA,2,#3386FF,#D89F1C,10,0,1,38,1,838.2999992370605,37,1,741.7000007629395,10,1,experiment,NA,NA,1,0.7,0.3,2,3,6,1,NA
fcp-trial,40,304494,0.0-15.0-0.0,voc_e2,12263,"[{""event"":""fullscreenenter"",""trial"":1,""time"":3229}]",NA,NA,NA,NA,NA,2,#D8271C,#741CD8,0,10,0,38,1,1099.5,37,1,761.6999969482422,0,0,experiment,NA,NA,0,0.1,0.9,1,0,7,1,NA
fcp-trial,41,307666,0.0-16.0-0.0,voc_e2,12263,"[{""event"":""fullscreenenter"",""trial"":1,""time"":3229}]",NA,NA,NA,NA,NA,6,#D8271C,#741CD8,0,10,0,38,1,828.8999977111816,37,1,837.2000007629395,0,0,experiment,NA,NA,0,0.1,0.9,1,0,8,1,NA
fcp-trial,42,310928,0.0-17.0-0.0,voc_e2,12263,"[{""event"":""fullscreenenter"",""trial"":1,""time"":3229}]",NA,NA,NA,NA,NA,6,#3386FF,#D89F1C,10,10,1,38,1,1104.2000007629395,37,1,652.2000007629395,10,1,experiment,NA,NA,1,0.7,0.3,2,3,9,1,NA
fcp-trial,43,314124,0.0-18.0-0.0,voc_e2,12263,"[{""event"":""fullscreenenter"",""trial"":1,""time"":3229}]",NA,NA,NA,NA,NA,3,#1CD855,#FA92F8,10,10,0,38,1,763.1000022888184,37,1,926.2999992370604,10,0,experiment,NA,NA,2,0.5,0.5,5,4,10,1,NA
fcp-trial,44,317219,0.0-19.0-0.0,voc_e2,12263,"[{""event"":""fullscreenenter"",""trial"":1,""time"":3229}]",NA,NA,NA,NA,NA,4,#3386FF,#D89F1C,10,0,1,38,1,918.7000007629395,37,1,669,10,1,experiment,NA,NA,1,0.7,0.3,2,3,11,1,NA
fcp-trial,45,322449,0.0-20.0-0.0,voc_e2,12263,"[{""event"":""fullscreenenter"",""trial"":1,""time"":3229}]",NA,NA,NA,NA,NA,5,#741CD8,#D8271C,10,0,1,38,1,3114.800003051758,37,1,607.7999992370605,10,1,experiment,NA,NA,0,0.9,0.1,0,1,12,1,NA
fcp-trial,46,325085,0.0-21.0-0.0,voc_e2,12263,"[{""event"":""fullscreenenter"",""trial"":1,""time"":3229}]",NA,NA,NA,NA,NA,0,#3386FF,#D89F1C,10,0,1,38,1,693,37,1,438.70000076293945,10,1,experiment,NA,NA,1,0.7,0.3,2,3,13,1,NA
fcp-trial,47,328402,0.0-22.0-0.0,voc_e2,12263,"[{""event"":""fullscreenenter"",""trial"":1,""time"":3229}]",NA,NA,NA,NA,NA,6,#1CD855,#FA92F8,0,0,0,38,1,1218.1000022888184,37,1,592,0,0,experiment,NA,NA,2,0.5,0.5,5,4,14,1,NA
fcp-trial,48,331314,0.0-23.0-0.0,voc_e2,12263,"[{""event"":""fullscreenenter"",""trial"":1,""time"":3229}]",NA,NA,NA,NA,NA,3,#D8271C,#741CD8,0,10,0,38,1,793.7000007629395,39,0,613.0999984741211,10,1,experiment,NA,NA,0,0.1,0.9,1,0,15,1,NA
fcp-trial,49,333917,0.0-24.0-0.0,voc_e2,12263,"[{""event"":""fullscreenenter"",""trial"":1,""time"":3229}]",NA,NA,NA,NA,NA,1,#3386FF,#D89F1C,0,0,1,38,1,604.5999984741211,37,1,492.5,0,1,experiment,NA,NA,1,0.7,0.3,2,3,16,1,NA
fcp-trial,50,336452,0.0-25.0-0.0,voc_e2,12263,"[{""event"":""fullscreenenter"",""trial"":1,""time"":3229}]",NA,NA,NA,NA,NA,1,#FA92F8,#1CD855,0,10,1,38,1,638,39,0,387.5999984741211,10,0,experiment,NA,NA,2,0.5,0.5,4,5,17,1,NA
fcp-trial,51,339162,0.0-26.0-0.0,voc_e2,12263,"[{""event"":""fullscreenenter"",""trial"":1,""time"":3229}]",NA,NA,NA,NA,NA,5,#1CD855,#FA92F8,0,0,0,38,1,737.2000007629395,37,1,465.29999923706055,0,0,experiment,NA,NA,2,0.5,0.5,5,4,18,1,NA
fcp-trial,52,341961,0.0-27.0-0.0,voc_e2,12263,"[{""event"":""fullscreenenter"",""trial"":1,""time"":3229}]",NA,NA,NA,NA,NA,3,#D89F1C,#3386FF,0,10,0,38,1,825.4000015258789,39,0,467,10,1,experiment,NA,NA,1,0.3,0.7,3,2,19,1,NA
fcp-trial,53,345363,0.0-28.0-0.0,voc_e2,12263,"[{""event"":""fullscreenenter"",""trial"":1,""time"":3229}]",NA,NA,NA,NA,NA,0,#D8271C,#741CD8,0,10,0,38,1,1407.099998474121,39,0,487.70000076293945,10,1,experiment,NA,NA,0,0.1,0.9,1,0,20,1,NA
fcp-trial,54,348300,0.0-29.0-0.0,voc_e2,12263,"[{""event"":""fullscreenenter"",""trial"":1,""time"":3229}]",NA,NA,NA,NA,NA,4,#FA92F8,#1CD855,10,10,1,38,1,732,39,0,697.9000015258789,10,0,experiment,NA,NA,2,0.5,0.5,4,5,21,1,NA
fcp-trial,55,351042,0.0-30.0-0.0,voc_e2,12263,"[{""event"":""fullscreenenter"",""trial"":1,""time"":3229}]",NA,NA,NA,NA,NA,0,#3386FF,#D89F1C,0,0,1,38,1,658.0999984741211,37,1,577.7999992370605,0,1,experiment,NA,NA,1,0.7,0.3,2,3,22,1,NA
fcp-trial,56,353696,0.0-31.0-0.0,voc_e2,12263,"[{""event"":""fullscreenenter"",""trial"":1,""time"":3229}]",NA,NA,NA,NA,NA,1,#3386FF,#D89F1C,10,10,1,38,1,763.6000022888184,37,1,382.20000076293945,10,1,experiment,NA,NA,1,0.7,0.3,2,3,23,1,NA
fcp-trial,57,356255,0.0-32.0-0.0,voc_e2,12263,"[{""event"":""fullscreenenter"",""trial"":1,""time"":3229}]",NA,NA,NA,NA,NA,4,#3386FF,#D89F1C,0,10,1,38,1,669.6000022888184,37,1,383.4000015258789,0,1,experiment,NA,NA,1,0.7,0.3,2,3,24,1,NA
fcp-trial,58,359170,0.0-33.0-0.0,voc_e2,12263,"[{""event"":""fullscreenenter"",""trial"":1,""time"":3229}]",NA,NA,NA,NA,NA,6,#1CD855,#FA92F8,0,0,0,38,1,772.5999984741211,37,1,633.5,0,0,experiment,NA,NA,2,0.5,0.5,5,4,25,1,NA
fcp-trial,59,361817,0.0-34.0-0.0,voc_e2,12263,"[{""event"":""fullscreenenter"",""trial"":1,""time"":3229}]",NA,NA,NA,NA,NA,4,#D8271C,#741CD8,10,10,0,38,1,682.7000007629395,39,0,457.9000015258789,10,1,experiment,NA,NA,0,0.1,0.9,1,0,26,1,NA
fcp-trial,60,364565,0.0-35.0-0.0,voc_e2,12263,"[{""event"":""fullscreenenter"",""trial"":1,""time"":3229}]",NA,NA,NA,NA,NA,4,#1CD855,#FA92F8,0,0,0,38,1,578.8000030517578,37,1,661.2999992370605,0,0,experiment,NA,NA,2,0.5,0.5,5,4,27,1,NA
fcp-trial,61,367328,0.0-36.0-0.0,voc_e2,12263,"[{""event"":""fullscreenenter"",""trial"":1,""time"":3229}]",NA,NA,NA,NA,NA,3,#D89F1C,#3386FF,0,10,0,38,1,570.2999992370605,39,0,687,10,1,experiment,NA,NA,1,0.3,0.7,3,2,28,1,NA
fcp-trial,62,370450,0.0-37.0-0.0,voc_e2,12263,"[{""event"":""fullscreenenter"",""trial"":1,""time"":3229}]",NA,NA,NA,NA,NA,5,#741CD8,#D8271C,10,0,1,38,1,558,37,1,1056.3000030517578,10,1,experiment,NA,NA,0,0.9,0.1,0,1,29,1,NA
fcp-trial,63,373232,0.0-38.0-0.0,voc_e2,12263,"[{""event"":""fullscreenenter"",""trial"":1,""time"":3229}]",NA,NA,NA,NA,NA,5,#FA92F8,#1CD855,10,10,1,38,1,508.6999969482422,39,0,766,10,0,experiment,NA,NA,2,0.5,0.5,4,5,30,1,NA
fcp-trial,64,376269,0.0-39.0-0.0,voc_e2,12263,"[{""event"":""fullscreenenter"",""trial"":1,""time"":3229}]",NA,NA,NA,NA,NA,3,#741CD8,#D8271C,10,0,1,38,1,758.2999992370605,37,1,771.7999992370605,10,1,experiment,NA,NA,0,0.9,0.1,0,1,31,1,NA
fcp-trial,65,379143,0.0-40.0-0.0,voc_e2,12263,"[{""event"":""fullscreenenter"",""trial"":1,""time"":3229}]",NA,NA,NA,NA,NA,2,#1CD855,#FA92F8,10,10,0,38,1,567.7999992370605,37,1,797.7999992370605,10,0,experiment,NA,NA,2,0.5,0.5,5,4,32,1,NA
fcp-trial,66,381790,0.0-41.0-0.0,voc_e2,12263,"[{""event"":""fullscreenenter"",""trial"":1,""time"":3229}]",NA,NA,NA,NA,NA,6,#3386FF,#D89F1C,10,10,1,38,1,561.2999992370605,37,1,577.4000015258789,10,1,experiment,NA,NA,1,0.7,0.3,2,3,33,1,NA
fcp-trial,67,384294,0.0-42.0-0.0,voc_e2,12263,"[{""event"":""fullscreenenter"",""trial"":1,""time"":3229}]",NA,NA,NA,NA,NA,0,#1CD855,#FA92F8,10,0,0,38,1,485.0999984741211,37,1,509.20000076293945,10,0,experiment,NA,NA,2,0.5,0.5,5,4,34,1,NA
fcp-trial,68,387365,0.0-43.0-0.0,voc_e2,12263,"[{""event"":""fullscreenenter"",""trial"":1,""time"":3229}]",NA,NA,NA,NA,NA,0,#741CD8,#D8271C,10,0,1,38,1,617.9000015258789,37,1,946.4000015258788,10,1,experiment,NA,NA,0,0.9,0.1,0,1,35,1,NA
fcp-trial,69,389878,0.0-44.0-0.0,voc_e2,12263,"[{""event"":""fullscreenenter"",""trial"":1,""time"":3229}]",NA,NA,NA,NA,NA,2,#D89F1C,#3386FF,0,10,0,38,1,524.7000007629395,39,0,482.79999923706055,10,1,experiment,NA,NA,1,0.3,0.7,3,2,36,1,NA
fcp-trial,70,392796,0.0-45.0-0.0,voc_e2,12263,"[{""event"":""fullscreenenter"",""trial"":1,""time"":3229}]",NA,NA,NA,NA,NA,1,#FA92F8,#1CD855,0,10,1,38,1,729.9000015258789,39,0,680.1000022888184,10,0,experiment,NA,NA,2,0.5,0.5,4,5,37,1,NA
fcp-trial,71,395489,0.0-46.0-0.0,voc_e2,12263,"[{""event"":""fullscreenenter"",""trial"":1,""time"":3229}]",NA,NA,NA,NA,NA,5,#D89F1C,#3386FF,0,10,0,38,1,593.9000015258789,39,0,591.1999969482422,10,1,experiment,NA,NA,1,0.3,0.7,3,2,38,1,NA
fcp-trial,72,398167,0.0-47.0-0.0,voc_e2,12263,"[{""event"":""fullscreenenter"",""trial"":1,""time"":3229}]",NA,NA,NA,NA,NA,3,#1CD855,#FA92F8,0,0,0,38,1,572.5999984741211,37,1,598,0,0,experiment,NA,NA,2,0.5,0.5,5,4,39,1,NA
fcp-trial,73,400670,0.0-48.0-0.0,voc_e2,12263,"[{""event"":""fullscreenenter"",""trial"":1,""time"":3229}]",NA,NA,NA,NA,NA,2,#D8271C,#741CD8,0,0,0,38,1,509.5,39,0,486.1999969482422,0,1,experiment,NA,NA,0,0.1,0.9,1,0,40,1,NA
fcp-trial,74,403279,0.0-49.0-0.0,voc_e2,12263,"[{""event"":""fullscreenenter"",""trial"":1,""time"":3229}]",NA,NA,NA,NA,NA,6,#741CD8,#D8271C,10,0,1,38,1,623.2000007629395,37,1,476.79999923706055,10,1,experiment,NA,NA,0,0.9,0.1,0,1,41,1,NA
fcp-trial,75,405817,0.0-50.0-0.0,voc_e2,12263,"[{""event"":""fullscreenenter"",""trial"":1,""time"":3229}]",NA,NA,NA,NA,NA,1,#D8271C,#741CD8,0,10,0,38,1,608.3999977111816,39,0,424.1000022888184,10,1,experiment,NA,NA,0,0.1,0.9,1,0,42,1,NA
fcp-trial,76,408570,0.0-51.0-0.0,voc_e2,12263,"[{""event"":""fullscreenenter"",""trial"":1,""time"":3229}]",NA,NA,NA,NA,NA,6,#D89F1C,#3386FF,0,10,0,38,1,813.0999984741211,39,0,432,10,1,experiment,NA,NA,1,0.3,0.7,3,2,43,1,NA
fcp-trial,77,411327,0.0-52.0-0.0,voc_e2,12263,"[{""event"":""fullscreenenter"",""trial"":1,""time"":3229}]",NA,NA,NA,NA,NA,6,#D8271C,#741CD8,0,10,0,38,1,722.5,39,0,526.2000007629395,10,1,experiment,NA,NA,0,0.1,0.9,1,0,44,1,NA
fcp-trial,78,414319,0.0-53.0-0.0,voc_e2,12263,"[{""event"":""fullscreenenter"",""trial"":1,""time"":3229}]",NA,NA,NA,NA,NA,0,#3386FF,#D89F1C,10,0,1,38,1,833.6000022888184,37,1,652,10,1,experiment,NA,NA,1,0.7,0.3,2,3,45,1,NA
fcp-trial,79,417352,0.0-54.0-0.0,voc_e2,12263,"[{""event"":""fullscreenenter"",""trial"":1,""time"":3229}]",NA,NA,NA,NA,NA,3,#FA92F8,#1CD855,10,10,1,38,1,906.7000007629395,39,0,617.5999984741211,10,0,experiment,NA,NA,2,0.5,0.5,4,5,46,2,NA
fcp-trial,80,419896,0.0-55.0-0.0,voc_e2,12263,"[{""event"":""fullscreenenter"",""trial"":1,""time"":3229}]",NA,NA,NA,NA,NA,2,#3386FF,#D89F1C,0,0,1,38,1,558.5999984741211,37,1,478.5,0,1,experiment,NA,NA,1,0.7,0.3,2,3,47,2,NA
fcp-trial,81,422945,0.0-56.0-0.0,voc_e2,12263,"[{""event"":""fullscreenenter"",""trial"":1,""time"":3229}]",NA,NA,NA,NA,NA,0,#741CD8,#D8271C,10,10,1,38,1,620.5,37,1,923.2999992370604,10,1,experiment,NA,NA,0,0.9,0.1,0,1,48,2,NA
fcp-trial,82,425611,0.0-57.0-0.0,voc_e2,12263,"[{""event"":""fullscreenenter"",""trial"":1,""time"":3229}]",NA,NA,NA,NA,NA,4,#D89F1C,#3386FF,0,0,0,38,1,651.5,39,0,507.70000076293945,0,1,experiment,NA,NA,1,0.3,0.7,3,2,49,2,NA
fcp-trial,83,428324,0.0-58.0-0.0,voc_e2,12263,"[{""event"":""fullscreenenter"",""trial"":1,""time"":3229}]",NA,NA,NA,NA,NA,6,#FA92F8,#1CD855,10,0,1,38,1,663.2999992370605,39,0,542.7000007629395,0,0,experiment,NA,NA,2,0.5,0.5,4,5,50,2,NA
fcp-trial,84,430902,0.0-59.0-0.0,voc_e2,12263,"[{""event"":""fullscreenenter"",""trial"":1,""time"":3229}]",NA,NA,NA,NA,NA,4,#D8271C,#741CD8,0,10,0,38,1,628,39,0,442.9000015258789,10,1,experiment,NA,NA,0,0.1,0.9,1,0,51,2,NA
fcp-trial,85,433560,0.0-60.0-0.0,voc_e2,12263,"[{""event"":""fullscreenenter"",""trial"":1,""time"":3229}]",NA,NA,NA,NA,NA,1,#FA92F8,#1CD855,0,0,1,38,1,590,37,1,552.5,0,1,experiment,NA,NA,2,0.5,0.5,4,5,52,2,NA
fcp-trial,86,436952,0.0-61.0-0.0,voc_e2,12263,"[{""event"":""fullscreenenter"",""trial"":1,""time"":3229}]",NA,NA,NA,NA,NA,3,#3386FF,#D89F1C,0,0,1,38,1,904.3000030517578,37,1,981.0999984741212,0,1,experiment,NA,NA,1,0.7,0.3,2,3,53,2,NA
fcp-trial,87,439465,0.0-62.0-0.0,voc_e2,12263,"[{""event"":""fullscreenenter"",""trial"":1,""time"":3229}]",NA,NA,NA,NA,NA,2,#D8271C,#741CD8,10,10,0,38,1,568.6000022888184,39,0,438,10,1,experiment,NA,NA,0,0.1,0.9,1,0,54,2,NA
fcp-trial,88,442103,0.0-63.0-0.0,voc_e2,12263,"[{""event"":""fullscreenenter"",""trial"":1,""time"":3229}]",NA,NA,NA,NA,NA,2,#FA92F8,#1CD855,0,10,1,38,1,556.4000015258789,37,1,574.6000022888184,0,1,experiment,NA,NA,2,0.5,0.5,4,5,55,2,NA
fcp-trial,89,444840,0.0-64.0-0.0,voc_e2,12263,"[{""event"":""fullscreenenter"",""trial"":1,""time"":3229}]",NA,NA,NA,NA,NA,1,#3386FF,#D89F1C,10,0,1,38,1,633.7000007629395,37,1,596.4000015258789,10,1,experiment,NA,NA,1,0.7,0.3,2,3,56,2,NA
fcp-trial,90,447484,0.0-65.0-0.0,voc_e2,12263,"[{""event"":""fullscreenenter"",""trial"":1,""time"":3229}]",NA,NA,NA,NA,NA,4,#FA92F8,#1CD855,0,10,1,38,1,580.6000022888184,39,0,556.2999992370605,10,0,experiment,NA,NA,2,0.5,0.5,4,5,57,2,NA
fcp-trial,91,451253,0.0-66.0-0.0,voc_e2,12263,"[{""event"":""fullscreenenter"",""trial"":1,""time"":3229}]",NA,NA,NA,NA,NA,3,#741CD8,#D8271C,10,0,1,38,1,1775.099998474121,37,1,488.29999923706055,10,1,experiment,NA,NA,0,0.9,0.1,0,1,58,2,NA
fcp-trial,92,453887,0.0-67.0-0.0,voc_e2,12263,"[{""event"":""fullscreenenter"",""trial"":1,""time"":3229}]",NA,NA,NA,NA,NA,1,#D8271C,#741CD8,0,0,0,38,1,710.5,39,0,417.29999923706055,0,1,experiment,NA,NA,0,0.1,0.9,1,0,59,2,NA
fcp-trial,93,456970,0.0-68.0-0.0,voc_e2,12263,"[{""event"":""fullscreenenter"",""trial"":1,""time"":3229}]",NA,NA,NA,NA,NA,5,#3386FF,#D89F1C,10,0,1,38,1,1202.2000007629395,37,1,372.5,10,1,experiment,NA,NA,1,0.7,0.3,2,3,60,2,NA
fcp-trial,94,459453,0.0-69.0-0.0,voc_e2,12263,"[{""event"":""fullscreenenter"",""trial"":1,""time"":3229}]",NA,NA,NA,NA,NA,5,#D8271C,#741CD8,0,10,0,38,1,528.2000007629395,39,0,448,10,1,experiment,NA,NA,0,0.1,0.9,1,0,61,2,NA
fcp-trial,95,462000,0.0-70.0-0.0,voc_e2,12263,"[{""event"":""fullscreenenter"",""trial"":1,""time"":3229}]",NA,NA,NA,NA,NA,0,#FA92F8,#1CD855,0,0,1,38,1,593.9000015258789,39,0,447.8000030517578,0,0,experiment,NA,NA,2,0.5,0.5,4,5,62,2,NA
fcp-trial,96,464603,0.0-71.0-0.0,voc_e2,12263,"[{""event"":""fullscreenenter"",""trial"":1,""time"":3229}]",NA,NA,NA,NA,NA,5,#1CD855,#FA92F8,0,10,0,38,1,630.1000022888184,37,1,466.0999984741211,0,0,experiment,NA,NA,2,0.5,0.5,5,4,63,2,NA
fcp-trial,97,467007,0.0-72.0-0.0,voc_e2,12263,"[{""event"":""fullscreenenter"",""trial"":1,""time"":3229}]",NA,NA,NA,NA,NA,5,#FA92F8,#1CD855,10,0,1,38,1,475.29999923706055,39,0,422.5,0,0,experiment,NA,NA,2,0.5,0.5,4,5,64,2,NA
fcp-trial,98,469610,0.0-73.0-0.0,voc_e2,12263,"[{""event"":""fullscreenenter"",""trial"":1,""time"":3229}]",NA,NA,NA,NA,NA,5,#741CD8,#D8271C,10,0,1,38,1,715,37,1,381.5999984741211,10,1,experiment,NA,NA,0,0.9,0.1,0,1,65,2,NA
fcp-trial,99,472089,0.0-74.0-0.0,voc_e2,12263,"[{""event"":""fullscreenenter"",""trial"":1,""time"":3229}]",NA,NA,NA,NA,NA,6,#741CD8,#D8271C,10,0,1,38,1,538.2000007629395,37,1,433,10,1,experiment,NA,NA,0,0.9,0.1,0,1,66,2,NA
fcp-trial,100,475166,0.0-75.0-0.0,voc_e2,12263,"[{""event"":""fullscreenenter"",""trial"":1,""time"":3229}]",NA,NA,NA,NA,NA,4,#FA92F8,#1CD855,0,10,1,38,1,938.7999992370605,39,0,632.4000015258789,10,0,experiment,NA,NA,2,0.5,0.5,4,5,67,2,NA
fcp-trial,101,477876,0.0-76.0-0.0,voc_e2,12263,"[{""event"":""fullscreenenter"",""trial"":1,""time"":3229}]",NA,NA,NA,NA,NA,2,#D89F1C,#3386FF,0,10,0,38,1,783.2000007629395,39,0,419.0999984741211,10,1,experiment,NA,NA,1,0.3,0.7,3,2,68,2,NA
fcp-trial,102,480674,0.0-77.0-0.0,voc_e2,12263,"[{""event"":""fullscreenenter"",""trial"":1,""time"":3229}]",NA,NA,NA,NA,NA,3,#D8271C,#741CD8,0,10,0,38,1,862.9000015258789,39,0,427.9000015258789,10,1,experiment,NA,NA,0,0.1,0.9,1,0,69,2,NA
fcp-trial,103,483392,0.0-78.0-0.0,voc_e2,12263,"[{""event"":""fullscreenenter"",""trial"":1,""time"":3229}]",NA,NA,NA,NA,NA,0,#1CD855,#FA92F8,0,0,0,38,1,700.2000007629395,37,1,512.2999992370605,0,0,experiment,NA,NA,2,0.5,0.5,5,4,70,2,NA
fcp-trial,104,485862,0.0-79.0-0.0,voc_e2,12263,"[{""event"":""fullscreenenter"",""trial"":1,""time"":3229}]",NA,NA,NA,NA,NA,5,#D89F1C,#3386FF,10,10,0,38,1,564.1000022888184,39,0,399.5,10,1,experiment,NA,NA,1,0.3,0.7,3,2,71,2,NA
fcp-trial,105,488439,0.0-80.0-0.0,voc_e2,12263,"[{""event"":""fullscreenenter"",""trial"":1,""time"":3229}]",NA,NA,NA,NA,NA,0,#3386FF,#D89F1C,0,10,1,38,1,671.3999977111816,37,1,397.6999969482422,0,1,experiment,NA,NA,1,0.7,0.3,2,3,72,2,NA
fcp-trial,106,490759,0.0-81.0-0.0,voc_e2,12263,"[{""event"":""fullscreenenter"",""trial"":1,""time"":3229}]",NA,NA,NA,NA,NA,4,#D8271C,#741CD8,0,10,0,38,1,429.5,39,0,382.29999923706055,10,1,experiment,NA,NA,0,0.1,0.9,1,0,73,2,NA
fcp-trial,107,493191,0.0-82.0-0.0,voc_e2,12263,"[{""event"":""fullscreenenter"",""trial"":1,""time"":3229}]",NA,NA,NA,NA,NA,1,#3386FF,#D89F1C,10,10,1,38,1,611.9000015258789,37,1,313.79999923706055,10,1,experiment,NA,NA,1,0.7,0.3,2,3,74,2,NA
fcp-trial,108,497753,0.0-83.0-0.0,voc_e2,12263,"[{""event"":""fullscreenenter"",""trial"":1,""time"":3229}]",NA,NA,NA,NA,NA,1,#1CD855,#FA92F8,0,10,0,40,0,1702.5,39,0,1352.900001525879,10,1,experiment,NA,NA,2,0.5,0.5,5,4,75,2,NA
fcp-trial,109,501550,0.0-84.0-0.0,voc_e2,12263,"[{""event"":""fullscreenenter"",""trial"":1,""time"":3229}]",NA,NA,NA,NA,NA,4,#3386FF,#D89F1C,0,0,1,38,1,1913.2999992370605,37,1,377.3999977111816,0,1,experiment,NA,NA,1,0.7,0.3,2,3,76,2,NA
fcp-trial,110,504352,0.0-85.0-0.0,voc_e2,12263,"[{""event"":""fullscreenenter"",""trial"":1,""time"":3229}]",NA,NA,NA,NA,NA,3,#D89F1C,#3386FF,10,10,0,38,1,907.0999984741211,39,0,387.3000030517578,10,1,experiment,NA,NA,1,0.3,0.7,3,2,77,2,NA
fcp-trial,111,507116,0.0-86.0-0.0,voc_e2,12263,"[{""event"":""fullscreenenter"",""trial"":1,""time"":3229}]",NA,NA,NA,NA,NA,1,#D8271C,#741CD8,10,10,0,38,1,862.4000015258789,39,0,393.1000022888184,10,1,experiment,NA,NA,0,0.1,0.9,1,0,78,2,NA
fcp-trial,112,510892,0.0-87.0-0.0,voc_e2,12263,"[{""event"":""fullscreenenter"",""trial"":1,""time"":3229}]",NA,NA,NA,NA,NA,2,#1CD855,#FA92F8,10,0,0,40,0,1334.7999992370605,37,1,930.5,10,0,experiment,NA,NA,2,0.5,0.5,5,4,79,2,NA
fcp-trial,113,513873,0.0-88.0-0.0,voc_e2,12263,"[{""event"":""fullscreenenter"",""trial"":1,""time"":3229}]",NA,NA,NA,NA,NA,6,#3386FF,#D89F1C,0,0,1,38,1,925.2000007629395,37,1,547.9000015258789,0,1,experiment,NA,NA,1,0.7,0.3,2,3,80,2,NA
fcp-trial,114,517545,0.0-89.0-0.0,voc_e2,12263,"[{""event"":""fullscreenenter"",""trial"":1,""time"":3229}]",NA,NA,NA,NA,NA,6,#1CD855,#FA92F8,10,0,0,40,0,1355.2999992370605,39,0,808.7999992370605,0,1,experiment,NA,NA,2,0.5,0.5,5,4,81,2,NA
fcp-trial,115,522536,0.0-90.0-0.0,voc_e2,12263,"[{""event"":""fullscreenenter"",""trial"":1,""time"":3229}]",NA,NA,NA,NA,NA,3,#1CD855,#FA92F8,0,0,0,40,0,2797.2999992370605,37,1,687,0,0,experiment,NA,NA,2,0.5,0.5,5,4,82,2,NA
fcp-trial,116,526886,0.0-91.0-0.0,voc_e2,12263,"[{""event"":""fullscreenenter"",""trial"":1,""time"":3229}]",NA,NA,NA,NA,NA,0,#D8271C,#741CD8,0,10,0,38,1,2492.7000007629395,39,0,348.4000015258789,10,1,experiment,NA,NA,0,0.1,0.9,1,0,83,2,NA
fcp-trial,117,529617,0.0-92.0-0.0,voc_e2,12263,"[{""event"":""fullscreenenter"",""trial"":1,""time"":3229}]",NA,NA,NA,NA,NA,2,#D8271C,#741CD8,0,10,0,38,1,890.5,39,0,332.9000015258789,10,1,experiment,NA,NA,0,0.1,0.9,1,0,84,2,NA
fcp-trial,118,532371,0.0-93.0-0.0,voc_e2,12263,"[{""event"":""fullscreenenter"",""trial"":1,""time"":3229}]",NA,NA,NA,NA,NA,5,#D89F1C,#3386FF,0,10,0,38,1,843.7999992370605,39,0,401.70000076293945,10,1,experiment,NA,NA,1,0.3,0.7,3,2,85,2,NA
fcp-trial,119,535014,0.0-94.0-0.0,voc_e2,12263,"[{""event"":""fullscreenenter"",""trial"":1,""time"":3229}]",NA,NA,NA,NA,NA,2,#3386FF,#D89F1C,10,0,1,38,1,727,37,1,407.8999977111816,10,1,experiment,NA,NA,1,0.7,0.3,2,3,86,2,NA
fcp-trial,120,538407,0.0-95.0-0.0,voc_e2,12263,"[{""event"":""fullscreenenter"",""trial"":1,""time"":3229}]",NA,NA,NA,NA,NA,1,#741CD8,#D8271C,10,0,1,38,1,1167.7999992370605,37,1,716,10,1,experiment,NA,NA,0,0.9,0.1,0,1,87,2,NA
fcp-trial,121,541300,0.0-96.0-0.0,voc_e2,12263,"[{""event"":""fullscreenenter"",""trial"":1,""time"":3229}]",NA,NA,NA,NA,NA,3,#FA92F8,#1CD855,10,0,1,38,1,905.8000030517578,39,0,470.4000015258789,0,0,experiment,NA,NA,2,0.5,0.5,4,5,88,2,NA
fcp-trial,122,544197,0.0-97.0-0.0,voc_e2,12263,"[{""event"":""fullscreenenter"",""trial"":1,""time"":3229}]",NA,NA,NA,NA,NA,5,#FA92F8,#1CD855,0,10,1,38,1,841.9000015258789,39,0,546.2999992370605,10,0,experiment,NA,NA,2,0.5,0.5,4,5,89,2,NA
fcp-trial,123,546821,0.0-98.0-0.0,voc_e2,12263,"[{""event"":""fullscreenenter"",""trial"":1,""time"":3229}]",NA,NA,NA,NA,NA,0,#D8271C,#741CD8,0,10,0,38,1,683,39,0,432.79999923706055,10,1,experiment,NA,NA,0,0.1,0.9,1,0,90,2,NA
fcp-trial,124,549663,0.0-99.0-0.0,voc_e2,12263,"[{""event"":""fullscreenenter"",""trial"":1,""time"":3229}]",NA,NA,NA,NA,NA,6,#3386FF,#D89F1C,10,0,1,38,1,720.6999969482422,37,1,613.2999992370605,10,1,experiment,NA,NA,1,0.7,0.3,2,3,91,3,NA
fcp-trial,125,552280,0.0-100.0-0.0,voc_e2,12263,"[{""event"":""fullscreenenter"",""trial"":1,""time"":3229}]",NA,NA,NA,NA,NA,0,#D89F1C,#3386FF,0,10,0,38,1,523.9000015258789,39,0,586.0999984741211,10,1,experiment,NA,NA,1,0.3,0.7,3,2,92,3,NA
fcp-trial,126,554873,0.0-101.0-0.0,voc_e2,12263,"[{""event"":""fullscreenenter"",""trial"":1,""time"":3229}]",NA,NA,NA,NA,NA,3,#D8271C,#741CD8,0,10,0,38,1,714.2000007629395,39,0,373.70000076293945,10,1,experiment,NA,NA,0,0.1,0.9,1,0,93,3,NA
fcp-trial,127,557850,0.0-102.0-0.0,voc_e2,12263,"[{""event"":""fullscreenenter"",""trial"":1,""time"":3229}]",NA,NA,NA,NA,NA,2,#1CD855,#FA92F8,10,10,0,38,1,1041.2999992370605,39,0,428.29999923706055,10,1,experiment,NA,NA,2,0.5,0.5,5,4,94,3,NA
fcp-trial,128,560319,0.0-103.0-0.0,voc_e2,12263,"[{""event"":""fullscreenenter"",""trial"":1,""time"":3229}]",NA,NA,NA,NA,NA,6,#1CD855,#FA92F8,10,10,0,38,1,498.70000076293945,39,0,462.3999977111816,10,1,experiment,NA,NA,2,0.5,0.5,5,4,95,3,NA
fcp-trial,129,562689,0.0-104.0-0.0,voc_e2,12263,"[{""event"":""fullscreenenter"",""trial"":1,""time"":3229}]",NA,NA,NA,NA,NA,4,#3386FF,#D89F1C,0,0,1,38,1,367.5999984741211,37,1,493.1000022888184,0,1,experiment,NA,NA,1,0.7,0.3,2,3,96,3,NA
fcp-trial,130,565216,0.0-105.0-0.0,voc_e2,12263,"[{""event"":""fullscreenenter"",""trial"":1,""time"":3229}]",NA,NA,NA,NA,NA,5,#741CD8,#D8271C,10,0,1,38,1,492.20000076293945,37,1,526.7000007629395,10,1,experiment,NA,NA,0,0.9,0.1,0,1,97,3,NA
fcp-trial,131,567699,0.0-106.0-0.0,voc_e2,12263,"[{""event"":""fullscreenenter"",""trial"":1,""time"":3229}]",NA,NA,NA,NA,NA,1,#3386FF,#D89F1C,10,10,1,38,1,642.4000015258789,37,1,328.9000015258789,10,1,experiment,NA,NA,1,0.7,0.3,2,3,98,3,NA
fcp-trial,132,569959,0.0-107.0-0.0,voc_e2,12263,"[{""event"":""fullscreenenter"",""trial"":1,""time"":3229}]",NA,NA,NA,NA,NA,4,#FA92F8,#1CD855,0,10,1,38,1,461.4000015258789,39,0,289,10,0,experiment,NA,NA,2,0.5,0.5,4,5,99,3,NA
fcp-trial,133,572602,0.0-108.0-0.0,voc_e2,12263,"[{""event"":""fullscreenenter"",""trial"":1,""time"":3229}]",NA,NA,NA,NA,NA,0,#1CD855,#FA92F8,10,10,0,38,1,650.7999992370605,37,1,484.1999969482422,10,0,experiment,NA,NA,2,0.5,0.5,5,4,100,3,NA
fcp-trial,134,575007,0.0-109.0-0.0,voc_e2,12263,"[{""event"":""fullscreenenter"",""trial"":1,""time"":3229}]",NA,NA,NA,NA,NA,1,#FA92F8,#1CD855,10,0,1,38,1,532.4000015258789,39,0,362.6999969482422,0,0,experiment,NA,NA,2,0.5,0.5,4,5,101,3,NA
fcp-trial,135,577546,0.0-110.0-0.0,voc_e2,12263,"[{""event"":""fullscreenenter"",""trial"":1,""time"":3229}]",NA,NA,NA,NA,NA,6,#D8271C,#741CD8,0,10,0,38,1,596.8999977111816,37,1,434.20000076293945,0,0,experiment,NA,NA,0,0.1,0.9,1,0,102,3,NA
fcp-trial,136,579866,0.0-111.0-0.0,voc_e2,12263,"[{""event"":""fullscreenenter"",""trial"":1,""time"":3229}]",NA,NA,NA,NA,NA,3,#3386FF,#D89F1C,10,0,1,38,1,372.0999984741211,37,1,442.9000015258789,10,1,experiment,NA,NA,1,0.7,0.3,2,3,103,3,NA
fcp-trial,137,583263,0.0-112.0-0.0,voc_e2,12263,"[{""event"":""fullscreenenter"",""trial"":1,""time"":3229}]",NA,NA,NA,NA,NA,2,#741CD8,#D8271C,10,0,1,38,1,1401.599998474121,37,1,486.8000030517578,10,1,experiment,NA,NA,0,0.9,0.1,0,1,104,3,NA
fcp-trial,138,585777,0.0-113.0-0.0,voc_e2,12263,"[{""event"":""fullscreenenter"",""trial"":1,""time"":3229}]",NA,NA,NA,NA,NA,4,#D8271C,#741CD8,0,10,0,38,1,627.7999992370605,39,0,378.20000076293945,10,1,experiment,NA,NA,0,0.1,0.9,1,0,105,3,NA
audio-instructions,139,595987,0.0-114.0,voc_e2,12263,"[{""event"":""fullscreenenter"",""trial"":1,""time"":3229}]",NA,5602.099998474121,static/audio/pause.wav,NA,0,NA,NA,NA,NA,NA,NA,NA,NA,NA,NA,NA,NA,NA,NA,NA,NA,NA,NA,NA,NA,NA,NA,NA,NA,NA
fcp-trial,140,599501,0.0-115.0-0.0,voc_e2,12263,"[{""event"":""fullscreenenter"",""trial"":1,""time"":3229}]",NA,NA,NA,NA,NA,0,#D8271C,#741CD8,0,10,0,38,1,1597.7000007629395,39,0,399.6000022888184,10,1,experiment,NA,NA,0,0.1,0.9,1,0,106,3,NA
fcp-trial,141,602016,0.0-116.0-0.0,voc_e2,12263,"[{""event"":""fullscreenenter"",""trial"":1,""time"":3229}]",NA,NA,NA,NA,NA,2,#FA92F8,#1CD855,10,10,1,38,1,617.4000015258789,39,0,379.1000022888184,10,0,experiment,NA,NA,2,0.5,0.5,4,5,107,3,NA
fcp-trial,142,604415,0.0-117.0-0.0,voc_e2,12263,"[{""event"":""fullscreenenter"",""trial"":1,""time"":3229}]",NA,NA,NA,NA,NA,4,#D8271C,#741CD8,0,10,0,38,1,505.10000228881836,39,0,378.1000022888184,10,1,experiment,NA,NA,0,0.1,0.9,1,0,108,3,NA
fcp-trial,143,606865,0.0-118.0-0.0,voc_e2,12263,"[{""event"":""fullscreenenter"",""trial"":1,""time"":3229}]",NA,NA,NA,NA,NA,1,#3386FF,#D89F1C,10,0,1,38,1,509.4000015258789,37,1,422.29999923706055,10,1,experiment,NA,NA,1,0.7,0.3,2,3,109,3,NA
fcp-trial,144,609282,0.0-119.0-0.0,voc_e2,12263,"[{""event"":""fullscreenenter"",""trial"":1,""time"":3229}]",NA,NA,NA,NA,NA,2,#D89F1C,#3386FF,10,0,0,38,1,473.60000228881836,39,0,419.70000076293945,0,1,experiment,NA,NA,1,0.3,0.7,3,2,110,3,NA
fcp-trial,145,611531,0.0-120.0-0.0,voc_e2,12263,"[{""event"":""fullscreenenter"",""trial"":1,""time"":3229}]",NA,NA,NA,NA,NA,4,#D89F1C,#3386FF,0,0,0,38,1,403.0999984741211,39,0,329.6999969482422,0,1,experiment,NA,NA,1,0.3,0.7,3,2,111,3,NA
fcp-trial,146,614047,0.0-121.0-0.0,voc_e2,12263,"[{""event"":""fullscreenenter"",""trial"":1,""time"":3229}]",NA,NA,NA,NA,NA,1,#1CD855,#FA92F8,10,10,0,38,1,724.6000022888184,37,1,275.70000076293945,10,0,experiment,NA,NA,2,0.5,0.5,5,4,112,3,NA
fcp-trial,147,616331,0.0-122.0-0.0,voc_e2,12263,"[{""event"":""fullscreenenter"",""trial"":1,""time"":3229}]",NA,NA,NA,NA,NA,5,#741CD8,#D8271C,10,0,1,38,1,427.1999969482422,37,1,348.60000228881836,10,1,experiment,NA,NA,0,0.9,0.1,0,1,113,3,NA
fcp-trial,148,618799,0.0-123.0-0.0,voc_e2,12263,"[{""event"":""fullscreenenter"",""trial"":1,""time"":3229}]",NA,NA,NA,NA,NA,0,#FA92F8,#1CD855,0,10,1,38,1,557.9000015258789,39,0,401.6999969482422,10,0,experiment,NA,NA,2,0.5,0.5,4,5,114,3,NA
fcp-trial,149,622452,0.0-124.0-0.0,voc_e2,12263,"[{""event"":""fullscreenenter"",""trial"":1,""time"":3229}]",NA,NA,NA,NA,NA,3,#D89F1C,#3386FF,0,0,0,38,1,733.0999984741211,39,0,1402.5,0,1,experiment,NA,NA,1,0.3,0.7,3,2,115,3,NA
fcp-trial,150,625227,0.0-125.0-0.0,voc_e2,12263,"[{""event"":""fullscreenenter"",""trial"":1,""time"":3229}]",NA,NA,NA,NA,NA,2,#741CD8,#D8271C,10,0,1,38,1,662,37,1,605.8999977111816,10,1,experiment,NA,NA,0,0.9,0.1,0,1,116,3,NA
fcp-trial,151,627725,0.0-126.0-0.0,voc_e2,12263,"[{""event"":""fullscreenenter"",""trial"":1,""time"":3229}]",NA,NA,NA,NA,NA,6,#D89F1C,#3386FF,10,0,0,38,1,501.60000228881836,39,0,488.1999969482422,0,1,experiment,NA,NA,1,0.3,0.7,3,2,117,3,NA
fcp-trial,152,630392,0.0-127.0-0.0,voc_e2,12263,"[{""event"":""fullscreenenter"",""trial"":1,""time"":3229}]",NA,NA,NA,NA,NA,6,#FA92F8,#1CD855,0,10,1,38,1,434.4000015258789,39,0,727.2999992370605,10,0,experiment,NA,NA,2,0.5,0.5,4,5,118,3,NA
fcp-trial,153,632847,0.0-128.0-0.0,voc_e2,12263,"[{""event"":""fullscreenenter"",""trial"":1,""time"":3229}]",NA,NA,NA,NA,NA,3,#741CD8,#D8271C,10,0,1,38,1,601.4000015258789,37,1,347.20000076293945,10,1,experiment,NA,NA,0,0.9,0.1,0,1,119,3,NA
fcp-trial,154,635220,0.0-129.0-0.0,voc_e2,12263,"[{""event"":""fullscreenenter"",""trial"":1,""time"":3229}]",NA,NA,NA,NA,NA,1,#741CD8,#D8271C,10,0,1,38,1,447.70000076293945,37,1,418.20000076293945,10,1,experiment,NA,NA,0,0.9,0.1,0,1,120,3,NA
fcp-trial,155,638273,0.0-130.0-0.0,voc_e2,12263,"[{""event"":""fullscreenenter"",""trial"":1,""time"":3229}]",NA,NA,NA,NA,NA,4,#1CD855,#FA92F8,0,10,0,38,1,903.6000022888184,37,1,641.6000022888184,0,0,experiment,NA,NA,2,0.5,0.5,5,4,121,3,NA
fcp-trial,156,640720,0.0-131.0-0.0,voc_e2,12263,"[{""event"":""fullscreenenter"",""trial"":1,""time"":3229}]",NA,NA,NA,NA,NA,0,#D89F1C,#3386FF,10,10,0,38,1,403.39999771118164,39,0,537.7000007629395,10,1,experiment,NA,NA,1,0.3,0.7,3,2,122,3,NA
fcp-trial,157,643234,0.0-132.0-0.0,voc_e2,12263,"[{""event"":""fullscreenenter"",""trial"":1,""time"":3229}]",NA,NA,NA,NA,NA,3,#1CD855,#FA92F8,10,0,0,38,1,599.5,37,1,408.5999984741211,10,0,experiment,NA,NA,2,0.5,0.5,5,4,123,3,NA
fcp-trial,158,645693,0.0-133.0-0.0,voc_e2,12263,"[{""event"":""fullscreenenter"",""trial"":1,""time"":3229}]",NA,NA,NA,NA,NA,5,#3386FF,#D89F1C,0,0,1,38,1,574.5,37,1,377.3999977111816,0,1,experiment,NA,NA,1,0.7,0.3,2,3,124,3,NA
fcp-trial,159,648332,0.0-134.0-0.0,voc_e2,12263,"[{""event"":""fullscreenenter"",""trial"":1,""time"":3229}]",NA,NA,NA,NA,NA,6,#741CD8,#D8271C,10,0,1,38,1,483.10000228881836,37,1,646.9000015258789,10,1,experiment,NA,NA,0,0.9,0.1,0,1,125,3,NA
fcp-trial,160,650735,0.0-135.0-0.0,voc_e2,12263,"[{""event"":""fullscreenenter"",""trial"":1,""time"":3229}]",NA,NA,NA,NA,NA,5,#1CD855,#FA92F8,0,0,0,38,1,423.60000228881836,37,1,472.3999977111816,0,0,experiment,NA,NA,2,0.5,0.5,5,4,126,3,NA
fcp-trial,161,653123,0.0-136.0-0.0,voc_e2,12263,"[{""event"":""fullscreenenter"",""trial"":1,""time"":3229}]",NA,NA,NA,NA,NA,6,#1CD855,#FA92F8,0,10,0,38,1,477.79999923706055,37,1,402.70000076293945,0,0,experiment,NA,NA,2,0.5,0.5,5,4,127,3,NA
fcp-trial,162,655641,0.0-137.0-0.0,voc_e2,12263,"[{""event"":""fullscreenenter"",""trial"":1,""time"":3229}]",NA,NA,NA,NA,NA,3,#D8271C,#741CD8,0,10,0,38,1,393.5,39,0,615.7999992370605,10,1,experiment,NA,NA,0,0.1,0.9,1,0,128,3,NA
fcp-trial,163,658241,0.0-138.0-0.0,voc_e2,12263,"[{""event"":""fullscreenenter"",""trial"":1,""time"":3229}]",NA,NA,NA,NA,NA,3,#1CD855,#FA92F8,10,10,0,38,1,671.5,37,1,418.6999969482422,10,0,experiment,NA,NA,2,0.5,0.5,5,4,129,3,NA
fcp-trial,164,660539,0.0-139.0-0.0,voc_e2,12263,"[{""event"":""fullscreenenter"",""trial"":1,""time"":3229}]",NA,NA,NA,NA,NA,0,#741CD8,#D8271C,10,0,1,38,1,406.70000076293945,37,1,383.29999923706055,10,1,experiment,NA,NA,0,0.9,0.1,0,1,130,3,NA
fcp-trial,165,662929,0.0-140.0-0.0,voc_e2,12263,"[{""event"":""fullscreenenter"",""trial"":1,""time"":3229}]",NA,NA,NA,NA,NA,5,#D89F1C,#3386FF,10,0,0,38,1,436.70000076293945,39,0,442.5999984741211,0,1,experiment,NA,NA,1,0.3,0.7,3,2,131,3,NA
fcp-trial,166,665441,0.0-141.0-0.0,voc_e2,12263,"[{""event"":""fullscreenenter"",""trial"":1,""time"":3229}]",NA,NA,NA,NA,NA,1,#FA92F8,#1CD855,10,0,1,38,1,607.5999984741211,39,0,398.0999984741211,0,0,experiment,NA,NA,2,0.5,0.5,4,5,132,3,NA
fcp-trial,167,667756,0.0-142.0-0.0,voc_e2,12263,"[{""event"":""fullscreenenter"",""trial"":1,""time"":3229}]",NA,NA,NA,NA,NA,1,#3386FF,#D89F1C,10,10,1,38,1,428.9000015258789,37,1,375.3999977111816,10,1,experiment,NA,NA,1,0.7,0.3,2,3,133,3,NA
fcp-trial,168,670201,0.0-143.0-0.0,voc_e2,12263,"[{""event"":""fullscreenenter"",""trial"":1,""time"":3229}]",NA,NA,NA,NA,NA,2,#1CD855,#FA92F8,10,0,0,38,1,394.4000015258789,37,1,543.7000007629395,10,0,experiment,NA,NA,2,0.5,0.5,5,4,134,3,NA
fcp-trial,169,672595,0.0-144.0-0.0,voc_e2,12263,"[{""event"":""fullscreenenter"",""trial"":1,""time"":3229}]",NA,NA,NA,NA,NA,1,#D8271C,#741CD8,10,10,0,38,1,403.4000015258789,39,0,483.6999969482422,10,1,experiment,NA,NA,0,0.1,0.9,1,0,135,3,NA
fcp-trial,170,675017,0.0-145.0-0.0,voc_e2,12263,"[{""event"":""fullscreenenter"",""trial"":1,""time"":3229}]",NA,NA,NA,NA,NA,4,#1CD855,#FA92F8,10,10,0,38,1,592,37,1,322.8000030517578,10,0,experiment,NA,NA,2,0.5,0.5,5,4,136,4,NA
fcp-trial,171,677275,0.0-146.0-0.0,voc_e2,12263,"[{""event"":""fullscreenenter"",""trial"":1,""time"":3229}]",NA,NA,NA,NA,NA,0,#D89F1C,#3386FF,0,0,0,38,1,430.0999984741211,39,0,321.9000015258789,0,1,experiment,NA,NA,1,0.3,0.7,3,2,137,4,NA
fcp-trial,172,679884,0.0-147.0-0.0,voc_e2,12263,"[{""event"":""fullscreenenter"",""trial"":1,""time"":3229}]",NA,NA,NA,NA,NA,5,#D8271C,#741CD8,0,0,0,38,1,383.70000076293945,39,0,717.3000030517578,0,1,experiment,NA,NA,0,0.1,0.9,1,0,138,4,NA
fcp-trial,173,682344,0.0-148.0-0.0,voc_e2,12263,"[{""event"":""fullscreenenter"",""trial"":1,""time"":3229}]",NA,NA,NA,NA,NA,5,#FA92F8,#1CD855,10,10,1,38,1,383.0999984741211,39,0,569.1999969482422,10,0,experiment,NA,NA,2,0.5,0.5,4,5,139,4,NA
fcp-trial,174,684751,0.0-149.0-0.0,voc_e2,12263,"[{""event"":""fullscreenenter"",""trial"":1,""time"":3229}]",NA,NA,NA,NA,NA,6,#D8271C,#741CD8,0,10,0,38,1,391.79999923706055,39,0,506.9000015258789,10,1,experiment,NA,NA,0,0.1,0.9,1,0,140,4,NA
fcp-trial,175,687260,0.0-150.0-0.0,voc_e2,12263,"[{""event"":""fullscreenenter"",""trial"":1,""time"":3229}]",NA,NA,NA,NA,NA,6,#D89F1C,#3386FF,0,10,0,38,1,339.60000228881836,39,0,663.0999984741211,10,1,experiment,NA,NA,1,0.3,0.7,3,2,141,4,NA
fcp-trial,176,689613,0.0-151.0-0.0,voc_e2,12263,"[{""event"":""fullscreenenter"",""trial"":1,""time"":3229}]",NA,NA,NA,NA,NA,2,#741CD8,#D8271C,10,0,1,38,1,478.79999923706055,37,1,367.20000076293945,10,1,experiment,NA,NA,0,0.9,0.1,0,1,142,4,NA
fcp-trial,177,692043,0.0-152.0-0.0,voc_e2,12263,"[{""event"":""fullscreenenter"",""trial"":1,""time"":3229}]",NA,NA,NA,NA,NA,0,#FA92F8,#1CD855,0,0,1,38,1,559.7999992370605,39,0,362.8999977111816,0,0,experiment,NA,NA,2,0.5,0.5,4,5,143,4,NA
fcp-trial,178,694305,0.0-153.0-0.0,voc_e2,12263,"[{""event"":""fullscreenenter"",""trial"":1,""time"":3229}]",NA,NA,NA,NA,NA,2,#3386FF,#D89F1C,0,0,1,38,1,353.70000076293945,37,1,398.5999984741211,0,1,experiment,NA,NA,1,0.7,0.3,2,3,144,4,NA
fcp-trial,179,696541,0.0-154.0-0.0,voc_e2,12263,"[{""event"":""fullscreenenter"",""trial"":1,""time"":3229}]",NA,NA,NA,NA,NA,4,#741CD8,#D8271C,10,0,1,38,1,344.1999969482422,37,1,383.5999984741211,10,1,experiment,NA,NA,0,0.9,0.1,0,1,145,4,NA
fcp-trial,180,698860,0.0-155.0-0.0,voc_e2,12263,"[{""event"":""fullscreenenter"",""trial"":1,""time"":3229}]",NA,NA,NA,NA,NA,3,#D89F1C,#3386FF,0,10,0,38,1,313.9000015258789,39,0,498.1000022888184,10,1,experiment,NA,NA,1,0.3,0.7,3,2,146,4,NA
fcp-trial,181,701098,0.0-156.0-0.0,voc_e2,12263,"[{""event"":""fullscreenenter"",""trial"":1,""time"":3229}]",NA,NA,NA,NA,NA,4,#D89F1C,#3386FF,10,0,0,38,1,438.8000030517578,39,0,282.29999923706055,0,1,experiment,NA,NA,1,0.3,0.7,3,2,147,4,NA
fcp-trial,182,703275,0.0-157.0-0.0,voc_e2,12263,"[{""event"":""fullscreenenter"",""trial"":1,""time"":3229}]",NA,NA,NA,NA,NA,5,#D89F1C,#3386FF,0,10,0,38,1,359.20000076293945,39,0,310,10,1,experiment,NA,NA,1,0.3,0.7,3,2,148,4,NA
fcp-trial,183,705621,0.0-158.0-0.0,voc_e2,12263,"[{""event"":""fullscreenenter"",""trial"":1,""time"":3229}]",NA,NA,NA,NA,NA,6,#1CD855,#FA92F8,0,10,0,38,1,567.2000007629395,37,1,274,0,0,experiment,NA,NA,2,0.5,0.5,5,4,149,4,NA
fcp-trial,184,707910,0.0-159.0-0.0,voc_e2,12263,"[{""event"":""fullscreenenter"",""trial"":1,""time"":3229}]",NA,NA,NA,NA,NA,0,#3386FF,#D89F1C,10,10,1,38,1,395.4000015258789,37,1,388.0999984741211,10,1,experiment,NA,NA,1,0.7,0.3,2,3,150,4,NA
fcp-trial,185,710165,0.0-160.0-0.0,voc_e2,12263,"[{""event"":""fullscreenenter"",""trial"":1,""time"":3229}]",NA,NA,NA,NA,NA,5,#FA92F8,#1CD855,0,10,1,38,1,300.9000015258789,39,0,447.9000015258789,10,0,experiment,NA,NA,2,0.5,0.5,4,5,151,4,NA
fcp-trial,186,712604,0.0-161.0-0.0,voc_e2,12263,"[{""event"":""fullscreenenter"",""trial"":1,""time"":3229}]",NA,NA,NA,NA,NA,1,#741CD8,#D8271C,10,0,1,38,1,578,37,1,352.60000228881836,10,1,experiment,NA,NA,0,0.9,0.1,0,1,152,4,NA
fcp-trial,187,715022,0.0-162.0-0.0,voc_e2,12263,"[{""event"":""fullscreenenter"",""trial"":1,""time"":3229}]",NA,NA,NA,NA,NA,3,#1CD855,#FA92F8,0,10,0,38,1,582.7999992370605,37,1,328.60000228881836,0,0,experiment,NA,NA,2,0.5,0.5,5,4,153,4,NA
fcp-trial,188,717471,0.0-163.0-0.0,voc_e2,12263,"[{""event"":""fullscreenenter"",""trial"":1,""time"":3229}]",NA,NA,NA,NA,NA,4,#3386FF,#D89F1C,10,0,1,38,1,394.0999984741211,37,1,547.5999984741211,10,1,experiment,NA,NA,1,0.7,0.3,2,3,154,4,NA
fcp-trial,189,719925,0.0-164.0-0.0,voc_e2,12263,"[{""event"":""fullscreenenter"",""trial"":1,""time"":3229}]",NA,NA,NA,NA,NA,2,#D8271C,#741CD8,0,0,0,38,1,354.6999969482422,39,0,593.1000022888184,0,1,experiment,NA,NA,0,0.1,0.9,1,0,155,4,NA
fcp-trial,190,722468,0.0-165.0-0.0,voc_e2,12263,"[{""event"":""fullscreenenter"",""trial"":1,""time"":3229}]",NA,NA,NA,NA,NA,0,#FA92F8,#1CD855,0,0,1,38,1,454.20000076293945,39,0,582.5999984741211,0,0,experiment,NA,NA,2,0.5,0.5,4,5,156,4,NA
fcp-trial,191,724826,0.0-166.0-0.0,voc_e2,12263,"[{""event"":""fullscreenenter"",""trial"":1,""time"":3229}]",NA,NA,NA,NA,NA,3,#741CD8,#D8271C,10,0,1,38,1,472,37,1,374.3999977111816,10,1,experiment,NA,NA,0,0.9,0.1,0,1,157,4,NA
fcp-trial,192,727301,0.0-167.0-0.0,voc_e2,12263,"[{""event"":""fullscreenenter"",""trial"":1,""time"":3229}]",NA,NA,NA,NA,NA,3,#3386FF,#D89F1C,10,0,1,38,1,555.4000015258789,37,1,412.8999977111816,10,1,experiment,NA,NA,1,0.7,0.3,2,3,158,4,NA
fcp-trial,193,729755,0.0-168.0-0.0,voc_e2,12263,"[{""event"":""fullscreenenter"",""trial"":1,""time"":3229}]",NA,NA,NA,NA,NA,6,#741CD8,#D8271C,10,0,1,38,1,348.0999984741211,37,1,597.2999992370605,10,1,experiment,NA,NA,0,0.9,0.1,0,1,159,4,NA
fcp-trial,194,732239,0.0-169.0-0.0,voc_e2,12263,"[{""event"":""fullscreenenter"",""trial"":1,""time"":3229}]",NA,NA,NA,NA,NA,1,#FA92F8,#1CD855,10,10,1,38,1,443.70000076293945,39,0,533.0999984741211,10,0,experiment,NA,NA,2,0.5,0.5,4,5,160,4,NA
fcp-trial,195,734597,0.0-170.0-0.0,voc_e2,12263,"[{""event"":""fullscreenenter"",""trial"":1,""time"":3229}]",NA,NA,NA,NA,NA,1,#3386FF,#D89F1C,10,10,1,38,1,383.29999923706055,37,1,468.5,10,1,experiment,NA,NA,1,0.7,0.3,2,3,161,4,NA
fcp-trial,196,736896,0.0-171.0-0.0,voc_e2,12263,"[{""event"":""fullscreenenter"",""trial"":1,""time"":3229}]",NA,NA,NA,NA,NA,4,#741CD8,#D8271C,10,0,1,38,1,334,37,1,457.5,10,1,experiment,NA,NA,0,0.9,0.1,0,1,162,4,NA
fcp-trial,197,739379,0.0-172.0-0.0,voc_e2,12263,"[{""event"":""fullscreenenter"",""trial"":1,""time"":3229}]",NA,NA,NA,NA,NA,6,#3386FF,#D89F1C,10,10,1,38,1,418.9000015258789,37,1,557.9000015258789,10,1,experiment,NA,NA,1,0.7,0.3,2,3,163,4,NA
fcp-trial,198,741679,0.0-173.0-0.0,voc_e2,12263,"[{""event"":""fullscreenenter"",""trial"":1,""time"":3229}]",NA,NA,NA,NA,NA,4,#FA92F8,#1CD855,10,0,1,38,1,393.29999923706055,39,0,398.20000076293945,0,0,experiment,NA,NA,2,0.5,0.5,4,5,164,4,NA
fcp-trial,199,744326,0.0-174.0-0.0,voc_e2,12263,"[{""event"":""fullscreenenter"",""trial"":1,""time"":3229}]",NA,NA,NA,NA,NA,0,#741CD8,#D8271C,10,10,1,38,1,642.1000022888184,37,1,497.9000015258789,10,1,experiment,NA,NA,0,0.9,0.1,0,1,165,4,NA
fcp-trial,200,746745,0.0-175.0-0.0,voc_e2,12263,"[{""event"":""fullscreenenter"",""trial"":1,""time"":3229}]",NA,NA,NA,NA,NA,5,#D8271C,#741CD8,10,10,0,38,1,514.7999992370605,39,0,398.79999923706055,10,1,experiment,NA,NA,0,0.1,0.9,1,0,166,4,NA
fcp-trial,201,749065,0.0-176.0-0.0,voc_e2,12263,"[{""event"":""fullscreenenter"",""trial"":1,""time"":3229}]",NA,NA,NA,NA,NA,2,#3386FF,#D89F1C,0,0,1,38,1,356.4000015258789,37,1,453.3999977111816,0,1,experiment,NA,NA,1,0.7,0.3,2,3,167,4,NA
fcp-trial,202,751428,0.0-177.0-0.0,voc_e2,12263,"[{""event"":""fullscreenenter"",""trial"":1,""time"":3229}]",NA,NA,NA,NA,NA,2,#FA92F8,#1CD855,10,0,1,38,1,266.5,39,0,587.7999992370605,0,0,experiment,NA,NA,2,0.5,0.5,4,5,168,4,NA
fcp-trial,203,754112,0.0-178.0-0.0,voc_e2,12263,"[{""event"":""fullscreenenter"",""trial"":1,""time"":3229}]",NA,NA,NA,NA,NA,6,#3386FF,#D89F1C,0,10,1,38,1,578.8999977111816,37,1,599,0,1,experiment,NA,NA,1,0.7,0.3,2,3,169,4,NA
fcp-trial,204,756540,0.0-179.0-0.0,voc_e2,12263,"[{""event"":""fullscreenenter"",""trial"":1,""time"":3229}]",NA,NA,NA,NA,NA,3,#D8271C,#741CD8,0,10,0,38,1,326.89999771118164,39,0,593,10,1,experiment,NA,NA,0,0.1,0.9,1,0,170,4,NA
fcp-trial,205,758893,0.0-180.0-0.0,voc_e2,12263,"[{""event"":""fullscreenenter"",""trial"":1,""time"":3229}]",NA,NA,NA,NA,NA,0,#FA92F8,#1CD855,10,10,1,38,1,349.29999923706055,39,0,498.29999923706055,10,0,experiment,NA,NA,2,0.5,0.5,4,5,171,4,NA
fcp-trial,206,761207,0.0-181.0-0.0,voc_e2,12263,"[{""event"":""fullscreenenter"",""trial"":1,""time"":3229}]",NA,NA,NA,NA,NA,0,#D8271C,#741CD8,10,10,0,38,1,303.70000076293945,39,0,503.1000022888184,10,1,experiment,NA,NA,0,0.1,0.9,1,0,172,4,NA
fcp-trial,207,763676,0.0-182.0-0.0,voc_e2,12263,"[{""event"":""fullscreenenter"",""trial"":1,""time"":3229}]",NA,NA,NA,NA,NA,1,#1CD855,#FA92F8,0,10,0,38,1,534.7000007629395,37,1,426.9000015258789,0,0,experiment,NA,NA,2,0.5,0.5,5,4,173,4,NA
fcp-trial,208,765966,0.0-183.0-0.0,voc_e2,12263,"[{""event"":""fullscreenenter"",""trial"":1,""time"":3229}]",NA,NA,NA,NA,NA,2,#D89F1C,#3386FF,0,0,0,38,1,323.20000076293945,39,0,459.3999977111816,0,1,experiment,NA,NA,1,0.3,0.7,3,2,174,4,NA
fcp-trial,209,768629,0.0-184.0-0.0,voc_e2,12263,"[{""event"":""fullscreenenter"",""trial"":1,""time"":3229}]",NA,NA,NA,NA,NA,2,#FA92F8,#1CD855,10,0,1,38,1,690.7000007629395,39,0,462.3000030517578,0,0,experiment,NA,NA,2,0.5,0.5,4,5,175,4,NA
fcp-trial,210,771186,0.0-185.0-0.0,voc_e2,12263,"[{""event"":""fullscreenenter"",""trial"":1,""time"":3229}]",NA,NA,NA,NA,NA,4,#D8271C,#741CD8,0,10,0,38,1,696.7999992370605,39,0,351.70000076293945,10,1,experiment,NA,NA,0,0.1,0.9,1,0,176,4,NA
fcp-trial,211,773710,0.0-186.0-0.0,voc_e2,12263,"[{""event"":""fullscreenenter"",""trial"":1,""time"":3229}]",NA,NA,NA,NA,NA,6,#1CD855,#FA92F8,10,10,0,38,1,597.8999977111816,37,1,418.4000015258789,10,0,experiment,NA,NA,2,0.5,0.5,5,4,177,4,NA
fcp-trial,212,776199,0.0-187.0-0.0,voc_e2,12263,"[{""event"":""fullscreenenter"",""trial"":1,""time"":3229}]",NA,NA,NA,NA,NA,2,#741CD8,#D8271C,10,0,1,38,1,407.39999771118164,37,1,571.7999992370605,10,1,experiment,NA,NA,0,0.9,0.1,0,1,178,4,NA
fcp-trial,213,778743,0.0-188.0-0.0,voc_e2,12263,"[{""event"":""fullscreenenter"",""trial"":1,""time"":3229}]",NA,NA,NA,NA,NA,1,#3386FF,#D89F1C,10,0,1,38,1,522.0999984741211,37,1,513.2999992370605,10,1,experiment,NA,NA,1,0.7,0.3,2,3,179,4,NA
fcp-trial,214,781102,0.0-189.0-0.0,voc_e2,12263,"[{""event"":""fullscreenenter"",""trial"":1,""time"":3229}]",NA,NA,NA,NA,NA,4,#D89F1C,#3386FF,10,10,0,38,1,376.39999771118164,39,0,472.8000030517578,10,1,experiment,NA,NA,1,0.3,0.7,3,2,180,4,NA
fcp-trial,215,783531,0.0-190.0-0.0,voc_e2,12263,"[{""event"":""fullscreenenter"",""trial"":1,""time"":3229}]",NA,NA,NA,NA,NA,5,#D8271C,#741CD8,0,10,0,38,1,343.0999984741211,39,0,577,10,1,experiment,NA,NA,0,0.1,0.9,1,0,181,5,NA
fcp-trial,216,785904,0.0-191.0-0.0,voc_e2,12263,"[{""event"":""fullscreenenter"",""trial"":1,""time"":3229}]",NA,NA,NA,NA,NA,4,#1CD855,#FA92F8,10,10,0,38,1,318.20000076293945,37,1,548.4000015258789,10,0,experiment,NA,NA,2,0.5,0.5,5,4,182,5,NA
fcp-trial,217,788492,0.0-192.0-0.0,voc_e2,12263,"[{""event"":""fullscreenenter"",""trial"":1,""time"":3229}]",NA,NA,NA,NA,NA,5,#FA92F8,#1CD855,0,0,1,38,1,350.10000228881836,39,0,731.9000015258789,0,0,experiment,NA,NA,2,0.5,0.5,4,5,183,5,NA
fcp-trial,218,790911,0.0-193.0-0.0,voc_e2,12263,"[{""event"":""fullscreenenter"",""trial"":1,""time"":3229}]",NA,NA,NA,NA,NA,1,#741CD8,#D8271C,10,10,1,38,1,586.9000015258789,37,1,322.8000030517578,10,1,experiment,NA,NA,0,0.9,0.1,0,1,184,5,NA
fcp-trial,219,793200,0.0-194.0-0.0,voc_e2,12263,"[{""event"":""fullscreenenter"",""trial"":1,""time"":3229}]",NA,NA,NA,NA,NA,3,#D89F1C,#3386FF,0,10,0,38,1,314.79999923706055,39,0,462.4000015258789,10,1,experiment,NA,NA,1,0.3,0.7,3,2,185,5,NA
fcp-trial,220,795669,0.0-195.0-0.0,voc_e2,12263,"[{""event"":""fullscreenenter"",""trial"":1,""time"":3229}]",NA,NA,NA,NA,NA,0,#D89F1C,#3386FF,10,10,0,38,1,276.0999984741211,39,0,686.5,10,1,experiment,NA,NA,1,0.3,0.7,3,2,186,5,NA
fcp-trial,221,797970,0.0-196.0-0.0,voc_e2,12263,"[{""event"":""fullscreenenter"",""trial"":1,""time"":3229}]",NA,NA,NA,NA,NA,6,#741CD8,#D8271C,10,0,1,38,1,329.0999984741211,37,1,464.79999923706055,10,1,experiment,NA,NA,0,0.9,0.1,0,1,187,5,NA
fcp-trial,222,800466,0.0-197.0-0.0,voc_e2,12263,"[{""event"":""fullscreenenter"",""trial"":1,""time"":3229}]",NA,NA,NA,NA,NA,3,#FA92F8,#1CD855,10,0,1,38,1,535.7999992370605,39,0,451.5999984741211,0,0,experiment,NA,NA,2,0.5,0.5,4,5,188,5,NA
fcp-trial,223,802970,0.0-198.0-0.0,voc_e2,12263,"[{""event"":""fullscreenenter"",""trial"":1,""time"":3229}]",NA,NA,NA,NA,NA,5,#D89F1C,#3386FF,0,0,0,38,1,484.5,39,0,512.9000015258789,0,1,experiment,NA,NA,1,0.3,0.7,3,2,189,5,NA
fcp-trial,224,805273,0.0-199.0-0.0,voc_e2,12263,"[{""event"":""fullscreenenter"",""trial"":1,""time"":3229}]",NA,NA,NA,NA,NA,4,#D89F1C,#3386FF,0,10,0,38,1,292.5,39,0,503.20000076293945,10,1,experiment,NA,NA,1,0.3,0.7,3,2,190,5,NA
fcp-trial,225,807606,0.0-200.0-0.0,voc_e2,12263,"[{""event"":""fullscreenenter"",""trial"":1,""time"":3229}]",NA,NA,NA,NA,NA,5,#D89F1C,#3386FF,0,0,0,38,1,321.8000030517578,39,0,502.6000022888184,0,1,experiment,NA,NA,1,0.3,0.7,3,2,191,5,NA
fcp-trial,226,809951,0.0-201.0-0.0,voc_e2,12263,"[{""event"":""fullscreenenter"",""trial"":1,""time"":3229}]",NA,NA,NA,NA,NA,0,#741CD8,#D8271C,10,0,1,38,1,324.20000076293945,37,1,513.9000015258789,10,1,experiment,NA,NA,0,0.9,0.1,0,1,192,5,NA
fcp-trial,227,812329,0.0-202.0-0.0,voc_e2,12263,"[{""event"":""fullscreenenter"",""trial"":1,""time"":3229}]",NA,NA,NA,NA,NA,2,#D8271C,#741CD8,0,10,0,38,1,389.10000228881836,39,0,482.79999923706055,10,1,experiment,NA,NA,0,0.1,0.9,1,0,193,5,NA
fcp-trial,228,814999,0.0-203.0-0.0,voc_e2,12263,"[{""event"":""fullscreenenter"",""trial"":1,""time"":3229}]",NA,NA,NA,NA,NA,4,#FA92F8,#1CD855,10,10,1,38,1,426.20000076293945,39,0,737.4000015258789,10,0,experiment,NA,NA,2,0.5,0.5,4,5,194,5,NA
fcp-trial,229,817257,0.0-204.0-0.0,voc_e2,12263,"[{""event"":""fullscreenenter"",""trial"":1,""time"":3229}]",NA,NA,NA,NA,NA,0,#3386FF,#D89F1C,10,10,1,38,1,263.5,37,1,488.5,10,1,experiment,NA,NA,1,0.7,0.3,2,3,195,5,NA
fcp-trial,230,819664,0.0-205.0-0.0,voc_e2,12263,"[{""event"":""fullscreenenter"",""trial"":1,""time"":3229}]",NA,NA,NA,NA,NA,6,#1CD855,#FA92F8,10,0,0,38,1,308,39,0,591.9000015258789,0,1,experiment,NA,NA,2,0.5,0.5,5,4,196,5,NA
fcp-trial,231,822110,0.0-206.0-0.0,voc_e2,12263,"[{""event"":""fullscreenenter"",""trial"":1,""time"":3229}]",NA,NA,NA,NA,NA,1,#D89F1C,#3386FF,0,10,0,38,1,405.60000228881836,39,0,533.5999984741211,10,1,experiment,NA,NA,1,0.3,0.7,3,2,197,5,NA
fcp-trial,232,824572,0.0-207.0-0.0,voc_e2,12263,"[{""event"":""fullscreenenter"",""trial"":1,""time"":3229}]",NA,NA,NA,NA,NA,4,#D8271C,#741CD8,10,10,0,38,1,572.8000030517578,39,0,383.5,10,1,experiment,NA,NA,0,0.1,0.9,1,0,198,5,NA
fcp-trial,233,827165,0.0-208.0-0.0,voc_e2,12263,"[{""event"":""fullscreenenter"",""trial"":1,""time"":3229}]",NA,NA,NA,NA,NA,2,#FA92F8,#1CD855,10,10,1,38,1,433.4000015258789,39,0,652.7999992370605,10,0,experiment,NA,NA,2,0.5,0.5,4,5,199,5,NA
fcp-trial,234,829503,0.0-209.0-0.0,voc_e2,12263,"[{""event"":""fullscreenenter"",""trial"":1,""time"":3229}]",NA,NA,NA,NA,NA,3,#FA92F8,#1CD855,10,0,1,38,1,324.39999771118164,39,0,507.1000022888184,0,0,experiment,NA,NA,2,0.5,0.5,4,5,200,5,NA
fcp-trial,235,831813,0.0-210.0-0.0,voc_e2,12263,"[{""event"":""fullscreenenter"",""trial"":1,""time"":3229}]",NA,NA,NA,NA,NA,2,#3386FF,#D89F1C,10,0,1,38,1,170.5,37,1,631.2000007629395,10,1,experiment,NA,NA,1,0.7,0.3,2,3,201,5,NA
fcp-trial,236,834222,0.0-211.0-0.0,voc_e2,12263,"[{""event"":""fullscreenenter"",""trial"":1,""time"":3229}]",NA,NA,NA,NA,NA,3,#D89F1C,#3386FF,10,0,0,38,1,434.9000015258789,39,0,467.8000030517578,0,1,experiment,NA,NA,1,0.3,0.7,3,2,202,5,NA
fcp-trial,237,836576,0.0-212.0-0.0,voc_e2,12263,"[{""event"":""fullscreenenter"",""trial"":1,""time"":3229}]",NA,NA,NA,NA,NA,5,#741CD8,#D8271C,10,0,1,38,1,368.3000030517578,37,1,478.20000076293945,10,1,experiment,NA,NA,0,0.9,0.1,0,1,203,5,NA
fcp-trial,238,838920,0.0-213.0-0.0,voc_e2,12263,"[{""event"":""fullscreenenter"",""trial"":1,""time"":3229}]",NA,NA,NA,NA,NA,3,#D8271C,#741CD8,0,10,0,38,1,363.70000076293945,39,0,473.70000076293945,10,1,experiment,NA,NA,0,0.1,0.9,1,0,204,5,NA
fcp-trial,239,841792,0.0-214.0-0.0,voc_e2,12263,"[{""event"":""fullscreenenter"",""trial"":1,""time"":3229}]",NA,NA,NA,NA,NA,1,#1CD855,#FA92F8,10,0,0,38,1,616.8999977111816,37,1,746.7999992370605,10,0,experiment,NA,NA,2,0.5,0.5,5,4,205,5,NA
fcp-trial,240,844330,0.0-215.0-0.0,voc_e2,12263,"[{""event"":""fullscreenenter"",""trial"":1,""time"":3229}]",NA,NA,NA,NA,NA,6,#D89F1C,#3386FF,10,0,0,38,1,310,39,0,712.0999984741211,0,1,experiment,NA,NA,1,0.3,0.7,3,2,206,5,NA
fcp-trial,241,846774,0.0-216.0-0.0,voc_e2,12263,"[{""event"":""fullscreenenter"",""trial"":1,""time"":3229}]",NA,NA,NA,NA,NA,6,#741CD8,#D8271C,10,10,1,38,1,279.79999923706055,37,1,657.1999969482422,10,1,experiment,NA,NA,0,0.9,0.1,0,1,207,5,NA
fcp-trial,242,849523,0.0-217.0-0.0,voc_e2,12263,"[{""event"":""fullscreenenter"",""trial"":1,""time"":3229}]",NA,NA,NA,NA,NA,5,#FA92F8,#1CD855,0,10,1,38,1,498.70000076293945,39,0,744.2999992370605,10,0,experiment,NA,NA,2,0.5,0.5,4,5,208,5,NA
fcp-trial,243,852109,0.0-218.0-0.0,voc_e2,12263,"[{""event"":""fullscreenenter"",""trial"":1,""time"":3229}]",NA,NA,NA,NA,NA,1,#741CD8,#D8271C,10,0,1,38,1,347.5999984741211,37,1,731.8000030517578,10,1,experiment,NA,NA,0,0.9,0.1,0,1,209,5,NA
fcp-trial,244,854908,0.0-219.0-0.0,voc_e2,12263,"[{""event"":""fullscreenenter"",""trial"":1,""time"":3229}]",NA,NA,NA,NA,NA,0,#FA92F8,#1CD855,10,10,1,38,1,519.2999992370605,39,0,772.7000007629395,10,0,experiment,NA,NA,2,0.5,0.5,4,5,210,5,NA
audio-instructions,245,860695,0.0-220.0,voc_e2,12263,"[{""event"":""fullscreenenter"",""trial"":1,""time"":3229}]",NA,1177.7999992370603,static/audio/pause.wav,NA,0,NA,NA,NA,NA,NA,NA,NA,NA,NA,NA,NA,NA,NA,NA,NA,NA,NA,NA,NA,NA,NA,NA,NA,NA,NA
fcp-trial,246,868200,0.0-221.0-0.0,voc_e2,12263,"[{""event"":""fullscreenenter"",""trial"":1,""time"":3229}]",NA,NA,NA,NA,NA,4,#741CD8,#D8271C,10,0,1,38,1,5523.700000762939,37,1,465.79999923706055,10,1,experiment,NA,NA,0,0.9,0.1,0,1,211,5,NA
fcp-trial,247,871183,0.0-222.0-0.0,voc_e2,12263,"[{""event"":""fullscreenenter"",""trial"":1,""time"":3229}]",NA,NA,NA,NA,NA,6,#1CD855,#FA92F8,10,0,0,38,1,602.9000015258789,37,1,864.3000030517578,10,0,experiment,NA,NA,2,0.5,0.5,5,4,212,5,NA
fcp-trial,248,873549,0.0-223.0-0.0,voc_e2,12263,"[{""event"":""fullscreenenter"",""trial"":1,""time"":3229}]",NA,NA,NA,NA,NA,1,#D89F1C,#3386FF,0,10,0,38,1,381.6999969482422,39,0,453.5,10,1,experiment,NA,NA,1,0.3,0.7,3,2,213,5,NA
fcp-trial,249,875932,0.0-224.0-0.0,voc_e2,12263,"[{""event"":""fullscreenenter"",""trial"":1,""time"":3229}]",NA,NA,NA,NA,NA,2,#741CD8,#D8271C,10,10,1,38,1,403.60000228881836,37,1,463.20000076293945,10,1,experiment,NA,NA,0,0.9,0.1,0,1,214,5,NA
fcp-trial,250,878216,0.0-225.0-0.0,voc_e2,12263,"[{""event"":""fullscreenenter"",""trial"":1,""time"":3229}]",NA,NA,NA,NA,NA,1,#1CD855,#FA92F8,0,0,0,38,1,371.20000076293945,37,1,392.29999923706055,0,0,experiment,NA,NA,2,0.5,0.5,5,4,215,5,NA
fcp-trial,251,880615,0.0-226.0-0.0,voc_e2,12263,"[{""event"":""fullscreenenter"",""trial"":1,""time"":3229}]",NA,NA,NA,NA,NA,3,#3386FF,#D89F1C,0,0,1,38,1,455.3000030517578,37,1,429.20000076293945,0,1,experiment,NA,NA,1,0.7,0.3,2,3,216,5,NA
fcp-trial,252,883048,0.0-227.0-0.0,voc_e2,12263,"[{""event"":""fullscreenenter"",""trial"":1,""time"":3229}]",NA,NA,NA,NA,NA,5,#741CD8,#D8271C,10,0,1,38,1,379.79999923706055,37,1,525.7000007629395,10,1,experiment,NA,NA,0,0.9,0.1,0,1,217,5,NA
fcp-trial,253,885548,0.0-228.0-0.0,voc_e2,12263,"[{""event"":""fullscreenenter"",""trial"":1,""time"":3229}]",NA,NA,NA,NA,NA,0,#D89F1C,#3386FF,0,0,0,38,1,525.7999992370605,39,0,461.5,0,1,experiment,NA,NA,1,0.3,0.7,3,2,218,5,NA
fcp-trial,254,887931,0.0-229.0-0.0,voc_e2,12263,"[{""event"":""fullscreenenter"",""trial"":1,""time"":3229}]",NA,NA,NA,NA,NA,4,#FA92F8,#1CD855,0,0,1,38,1,447.89999771118164,39,0,412.8000030517578,0,0,experiment,NA,NA,2,0.5,0.5,4,5,219,5,NA
fcp-trial,255,890476,0.0-230.0-0.0,voc_e2,12263,"[{""event"":""fullscreenenter"",""trial"":1,""time"":3229}]",NA,NA,NA,NA,NA,1,#D8271C,#741CD8,0,0,0,38,1,473.79999923706055,39,0,560.5,0,1,experiment,NA,NA,0,0.1,0.9,1,0,220,5,NA
fcp-trial,256,892844,0.0-231.0-0.0,voc_e2,12263,"[{""event"":""fullscreenenter"",""trial"":1,""time"":3229}]",NA,NA,NA,NA,NA,0,#D8271C,#741CD8,0,10,0,38,1,417.89999771118164,39,0,441.9000015258789,10,1,experiment,NA,NA,0,0.1,0.9,1,0,221,5,NA
fcp-trial,257,895183,0.0-232.0-0.0,voc_e2,12263,"[{""event"":""fullscreenenter"",""trial"":1,""time"":3229}]",NA,NA,NA,NA,NA,4,#D89F1C,#3386FF,0,0,0,38,1,380.5,39,0,451.29999923706055,0,1,experiment,NA,NA,1,0.3,0.7,3,2,222,5,NA
fcp-trial,258,897573,0.0-233.0-0.0,voc_e2,12263,"[{""event"":""fullscreenenter"",""trial"":1,""time"":3229}]",NA,NA,NA,NA,NA,0,#1CD855,#FA92F8,0,10,0,38,1,548.5,37,1,333.20000076293945,0,0,experiment,NA,NA,2,0.5,0.5,5,4,223,5,NA
fcp-trial,259,899897,0.0-234.0-0.0,voc_e2,12263,"[{""event"":""fullscreenenter"",""trial"":1,""time"":3229}]",NA,NA,NA,NA,NA,6,#D8271C,#741CD8,0,0,0,38,1,360.0999984741211,39,0,458.20000076293945,0,1,experiment,NA,NA,0,0.1,0.9,1,0,224,5,NA
fcp-trial,260,902459,0.0-235.0-0.0,voc_e2,12263,"[{""event"":""fullscreenenter"",""trial"":1,""time"":3229}]",NA,NA,NA,NA,NA,2,#3386FF,#D89F1C,10,0,1,38,1,442.9000015258789,37,1,612.0999984741211,10,1,experiment,NA,NA,1,0.7,0.3,2,3,225,5,NA
fcp-trial,261,904913,0.0-236.0-0.0,voc_e2,12263,"[{""event"":""fullscreenenter"",""trial"":1,""time"":3229}]",NA,NA,NA,NA,NA,5,#FA92F8,#1CD855,0,10,1,38,1,530,39,0,416.70000076293945,10,0,experiment,NA,NA,2,0.5,0.5,4,5,226,6,NA
fcp-trial,262,907886,0.0-237.0-0.0,voc_e2,12263,"[{""event"":""fullscreenenter"",""trial"":1,""time"":3229}]",NA,NA,NA,NA,NA,2,#1CD855,#FA92F8,10,10,0,38,1,1030.5,37,1,433.3999977111816,10,0,experiment,NA,NA,2,0.5,0.5,5,4,227,6,NA
fcp-trial,263,910418,0.0-238.0-0.0,voc_e2,12263,"[{""event"":""fullscreenenter"",""trial"":1,""time"":3229}]",NA,NA,NA,NA,NA,5,#D89F1C,#3386FF,0,0,0,38,1,479.60000228881836,39,0,547.2999992370605,0,1,experiment,NA,NA,1,0.3,0.7,3,2,228,6,NA
fcp-trial,264,912951,0.0-239.0-0.0,voc_e2,12263,"[{""event"":""fullscreenenter"",""trial"":1,""time"":3229}]",NA,NA,NA,NA,NA,3,#741CD8,#D8271C,0,0,1,38,1,564.5,37,1,463,0,1,experiment,NA,NA,0,0.9,0.1,0,1,229,6,NA
fcp-trial,265,915725,0.0-240.0-0.0,voc_e2,12263,"[{""event"":""fullscreenenter"",""trial"":1,""time"":3229}]",NA,NA,NA,NA,NA,3,#1CD855,#FA92F8,10,0,0,38,1,469.6999969482422,37,1,798.7999992370605,10,0,experiment,NA,NA,2,0.5,0.5,5,4,230,6,NA
fcp-trial,266,918411,0.0-241.0-0.0,voc_e2,12263,"[{""event"":""fullscreenenter"",""trial"":1,""time"":3229}]",NA,NA,NA,NA,NA,6,#D89F1C,#3386FF,10,0,0,38,1,532.4000015258789,39,0,646.5,0,1,experiment,NA,NA,1,0.3,0.7,3,2,231,6,NA
fcp-trial,267,920786,0.0-242.0-0.0,voc_e2,12263,"[{""event"":""fullscreenenter"",""trial"":1,""time"":3229}]",NA,NA,NA,NA,NA,0,#3386FF,#D89F1C,10,0,1,38,1,398.70000076293945,37,1,467.29999923706055,10,1,experiment,NA,NA,1,0.7,0.3,2,3,232,6,NA
fcp-trial,268,923359,0.0-243.0-0.0,voc_e2,12263,"[{""event"":""fullscreenenter"",""trial"":1,""time"":3229}]",NA,NA,NA,NA,NA,3,#D8271C,#741CD8,0,10,0,38,1,355,39,0,710.5,10,1,experiment,NA,NA,0,0.1,0.9,1,0,233,6,NA
fcp-trial,269,925956,0.0-244.0-0.0,voc_e2,12263,"[{""event"":""fullscreenenter"",""trial"":1,""time"":3229}]",NA,NA,NA,NA,NA,6,#D89F1C,#3386FF,0,10,0,38,1,275.4000015258789,39,0,816.9000015258789,10,1,experiment,NA,NA,1,0.3,0.7,3,2,234,6,NA
fcp-trial,270,928804,0.0-245.0-0.0,voc_e2,12263,"[{""event"":""fullscreenenter"",""trial"":1,""time"":3229}]",NA,NA,NA,NA,NA,4,#741CD8,#D8271C,0,0,1,38,1,409.79999923706055,37,1,931.4000015258788,0,1,experiment,NA,NA,0,0.9,0.1,0,1,235,6,NA
fcp-trial,271,931377,0.0-246.0-0.0,voc_e2,12263,"[{""event"":""fullscreenenter"",""trial"":1,""time"":3229}]",NA,NA,NA,NA,NA,6,#1CD855,#FA92F8,0,0,0,38,1,351,37,1,715.2999992370605,0,0,experiment,NA,NA,2,0.5,0.5,5,4,236,6,NA
fcp-trial,272,933890,0.0-247.0-0.0,voc_e2,12263,"[{""event"":""fullscreenenter"",""trial"":1,""time"":3229}]",NA,NA,NA,NA,NA,0,#FA92F8,#1CD855,0,10,1,38,1,452.60000228881836,37,1,551.6000022888184,0,1,experiment,NA,NA,2,0.5,0.5,4,5,237,6,NA
fcp-trial,273,936917,0.0-248.0-0.0,voc_e2,12263,"[{""event"":""fullscreenenter"",""trial"":1,""time"":3229}]",NA,NA,NA,NA,NA,0,#741CD8,#D8271C,10,0,1,38,1,331.5999984741211,39,0,1184.6999969482422,0,0,experiment,NA,NA,0,0.9,0.1,0,1,238,6,NA
fcp-trial,274,939531,0.0-249.0-0.0,voc_e2,12263,"[{""event"":""fullscreenenter"",""trial"":1,""time"":3229}]",NA,NA,NA,NA,NA,2,#D89F1C,#3386FF,0,10,0,38,1,399.9000015258789,39,0,706.9000015258789,10,1,experiment,NA,NA,1,0.3,0.7,3,2,239,6,NA
fcp-trial,275,942322,0.0-250.0-0.0,voc_e2,12263,"[{""event"":""fullscreenenter"",""trial"":1,""time"":3229}]",NA,NA,NA,NA,NA,2,#1CD855,#FA92F8,10,10,0,38,1,773,37,1,512.5,10,0,experiment,NA,NA,2,0.5,0.5,5,4,240,6,NA
fcp-trial,276,945146,0.0-251.0-0.0,voc_e2,12263,"[{""event"":""fullscreenenter"",""trial"":1,""time"":3229}]",NA,NA,NA,NA,NA,1,#3386FF,#D89F1C,10,10,1,38,1,384.29999923706055,37,1,930.9000015258788,10,1,experiment,NA,NA,1,0.7,0.3,2,3,241,6,NA
fcp-trial,277,947833,0.0-252.0-0.0,voc_e2,12263,"[{""event"":""fullscreenenter"",""trial"":1,""time"":3229}]",NA,NA,NA,NA,NA,5,#1CD855,#FA92F8,0,10,0,38,1,562.3999977111816,37,1,612.6000022888184,0,0,experiment,NA,NA,2,0.5,0.5,5,4,242,6,NA
fcp-trial,278,950456,0.0-253.0-0.0,voc_e2,12263,"[{""event"":""fullscreenenter"",""trial"":1,""time"":3229}]",NA,NA,NA,NA,NA,5,#D8271C,#741CD8,0,10,0,38,1,593.2999992370605,39,0,522.7999992370605,10,1,experiment,NA,NA,0,0.1,0.9,1,0,243,6,NA
fcp-trial,279,952785,0.0-254.0-0.0,voc_e2,12263,"[{""event"":""fullscreenenter"",""trial"":1,""time"":3229}]",NA,NA,NA,NA,NA,4,#1CD855,#FA92F8,0,0,0,38,1,328,37,1,493.3999977111816,0,0,experiment,NA,NA,2,0.5,0.5,5,4,244,6,NA
fcp-trial,280,955996,0.0-255.0-0.0,voc_e2,12263,"[{""event"":""fullscreenenter"",""trial"":1,""time"":3229}]",NA,NA,NA,NA,NA,2,#D8271C,#741CD8,0,10,0,38,1,394.10000228881836,39,0,1310.599998474121,10,1,experiment,NA,NA,0,0.1,0.9,1,0,245,6,NA
fcp-trial,281,958804,0.0-256.0-0.0,voc_e2,12263,"[{""event"":""fullscreenenter"",""trial"":1,""time"":3229}]",NA,NA,NA,NA,NA,3,#3386FF,#D89F1C,0,0,1,38,1,389.4000015258789,37,1,911.7999992370604,0,1,experiment,NA,NA,1,0.7,0.3,2,3,246,6,NA
fcp-trial,282,961273,0.0-257.0-0.0,voc_e2,12263,"[{""event"":""fullscreenenter"",""trial"":1,""time"":3229}]",NA,NA,NA,NA,NA,1,#D8271C,#741CD8,0,10,0,38,1,360.29999923706055,39,0,602.5,10,1,experiment,NA,NA,0,0.1,0.9,1,0,247,6,NA
fcp-trial,283,963801,0.0-258.0-0.0,voc_e2,12263,"[{""event"":""fullscreenenter"",""trial"":1,""time"":3229}]",NA,NA,NA,NA,NA,5,#3386FF,#D89F1C,10,0,1,38,1,418.0999984741211,37,1,592.4000015258789,10,1,experiment,NA,NA,1,0.7,0.3,2,3,248,6,NA
fcp-trial,284,966330,0.0-259.0-0.0,voc_e2,12263,"[{""event"":""fullscreenenter"",""trial"":1,""time"":3229}]",NA,NA,NA,NA,NA,1,#FA92F8,#1CD855,0,10,1,38,1,375.20000076293945,39,0,647.1000022888184,10,0,experiment,NA,NA,2,0.5,0.5,4,5,249,6,NA
fcp-trial,285,969038,0.0-260.0-0.0,voc_e2,12263,"[{""event"":""fullscreenenter"",""trial"":1,""time"":3229}]",NA,NA,NA,NA,NA,3,#FA92F8,#1CD855,0,0,1,38,1,483.9000015258789,39,0,717.7000007629395,0,0,experiment,NA,NA,2,0.5,0.5,4,5,250,6,NA
fcp-trial,286,971650,0.0-261.0-0.0,voc_e2,12263,"[{""event"":""fullscreenenter"",""trial"":1,""time"":3229}]",NA,NA,NA,NA,NA,4,#D89F1C,#3386FF,10,10,0,38,1,458,39,0,647.2999992370605,10,1,experiment,NA,NA,1,0.3,0.7,3,2,251,6,NA
fcp-trial,287,974149,0.0-262.0-0.0,voc_e2,12263,"[{""event"":""fullscreenenter"",""trial"":1,""time"":3229}]",NA,NA,NA,NA,NA,6,#741CD8,#D8271C,0,0,1,38,1,535.2999992370605,37,1,457,0,1,experiment,NA,NA,0,0.9,0.1,0,1,252,6,NA
fcp-trial,288,976554,0.0-263.0-0.0,voc_e2,12263,"[{""event"":""fullscreenenter"",""trial"":1,""time"":3229}]",NA,NA,NA,NA,NA,3,#FA92F8,#1CD855,10,0,1,38,1,354.39999771118164,39,0,543.3999977111816,0,0,experiment,NA,NA,2,0.5,0.5,4,5,253,6,NA
fcp-trial,289,979280,0.0-264.0-0.0,voc_e2,12263,"[{""event"":""fullscreenenter"",""trial"":1,""time"":3229}]",NA,NA,NA,NA,NA,3,#D8271C,#741CD8,0,10,0,38,1,554.6000022888184,39,0,661.7999992370605,10,1,experiment,NA,NA,0,0.1,0.9,1,0,254,6,NA
fcp-trial,290,981744,0.0-265.0-0.0,voc_e2,12263,"[{""event"":""fullscreenenter"",""trial"":1,""time"":3229}]",NA,NA,NA,NA,NA,1,#FA92F8,#1CD855,10,10,1,38,1,459.1999969482422,37,1,498,10,1,experiment,NA,NA,2,0.5,0.5,4,5,255,6,NA
fcp-trial,291,984351,0.0-266.0-0.0,voc_e2,12263,"[{""event"":""fullscreenenter"",""trial"":1,""time"":3229}]",NA,NA,NA,NA,NA,3,#D89F1C,#3386FF,0,10,0,38,1,414,39,0,687.2999992370605,10,1,experiment,NA,NA,1,0.3,0.7,3,2,256,6,NA
fcp-trial,292,987128,0.0-267.0-0.0,voc_e2,12263,"[{""event"":""fullscreenenter"",""trial"":1,""time"":3229}]",NA,NA,NA,NA,NA,0,#1CD855,#FA92F8,0,0,0,38,1,404.0999984741211,37,1,866.9000015258789,0,0,experiment,NA,NA,2,0.5,0.5,5,4,257,6,NA
fcp-trial,293,989513,0.0-268.0-0.0,voc_e2,12263,"[{""event"":""fullscreenenter"",""trial"":1,""time"":3229}]",NA,NA,NA,NA,NA,0,#D8271C,#741CD8,0,10,0,38,1,410.0999984741211,39,0,468.29999923706055,10,1,experiment,NA,NA,0,0.1,0.9,1,0,258,6,NA
fcp-trial,294,992060,0.0-269.0-0.0,voc_e2,12263,"[{""event"":""fullscreenenter"",""trial"":1,""time"":3229}]",NA,NA,NA,NA,NA,0,#D89F1C,#3386FF,0,0,0,38,1,323.6999969482422,37,1,716.7000007629395,0,0,experiment,NA,NA,1,0.3,0.7,3,2,259,6,NA
fcp-trial,295,994708,0.0-270.0-0.0,voc_e2,12263,"[{""event"":""fullscreenenter"",""trial"":1,""time"":3229}]",NA,NA,NA,NA,NA,4,#741CD8,#D8271C,10,10,1,38,1,330,37,1,812.1000022888184,10,1,experiment,NA,NA,0,0.9,0.1,0,1,260,6,NA
fcp-trial,296,997143,0.0-271.0-0.0,voc_e2,12263,"[{""event"":""fullscreenenter"",""trial"":1,""time"":3229}]",NA,NA,NA,NA,NA,6,#D89F1C,#3386FF,0,0,0,38,1,311.29999923706055,39,0,616,0,1,experiment,NA,NA,1,0.3,0.7,3,2,261,6,NA
fcp-trial,297,999565,0.0-272.0-0.0,voc_e2,12263,"[{""event"":""fullscreenenter"",""trial"":1,""time"":3229}]",NA,NA,NA,NA,NA,4,#FA92F8,#1CD855,0,0,1,38,1,309,39,0,606,0,0,experiment,NA,NA,2,0.5,0.5,4,5,262,6,NA
fcp-trial,298,1001960,0.0-273.0-0.0,voc_e2,12263,"[{""event"":""fullscreenenter"",""trial"":1,""time"":3229}]",NA,NA,NA,NA,NA,6,#1CD855,#FA92F8,10,0,0,38,1,289.5,39,0,596,0,1,experiment,NA,NA,2,0.5,0.5,5,4,263,6,NA
fcp-trial,299,1004388,0.0-274.0-0.0,voc_e2,12263,"[{""event"":""fullscreenenter"",""trial"":1,""time"":3229}]",NA,NA,NA,NA,NA,2,#3386FF,#D89F1C,10,0,1,38,1,328.6999969482422,37,1,593.2000007629395,10,1,experiment,NA,NA,1,0.7,0.3,2,3,264,6,NA
fcp-trial,300,1006831,0.0-275.0-0.0,voc_e2,12263,"[{""event"":""fullscreenenter"",""trial"":1,""time"":3229}]",NA,NA,NA,NA,NA,6,#D8271C,#741CD8,0,10,0,38,1,369.5,39,0,567.6999969482422,10,1,experiment,NA,NA,0,0.1,0.9,1,0,265,6,NA
fcp-trial,301,1009195,0.0-276.0-0.0,voc_e2,12263,"[{""event"":""fullscreenenter"",""trial"":1,""time"":3229}]",NA,NA,NA,NA,NA,1,#741CD8,#D8271C,10,0,1,38,1,335.0999984741211,37,1,522.3000030517578,10,1,experiment,NA,NA,0,0.9,0.1,0,1,266,6,NA
fcp-trial,302,1011619,0.0-277.0-0.0,voc_e2,12263,"[{""event"":""fullscreenenter"",""trial"":1,""time"":3229}]",NA,NA,NA,NA,NA,5,#FA92F8,#1CD855,0,0,1,38,1,314.5,39,0,602,0,0,experiment,NA,NA,2,0.5,0.5,4,5,267,6,NA
fcp-trial,303,1013922,0.0-278.0-0.0,voc_e2,12263,"[{""event"":""fullscreenenter"",""trial"":1,""time"":3229}]",NA,NA,NA,NA,NA,5,#D8271C,#741CD8,10,10,0,38,1,209.29999923706055,39,0,588.0999984741211,10,1,experiment,NA,NA,0,0.1,0.9,1,0,268,6,NA
fcp-trial,304,1016326,0.0-279.0-0.0,voc_e2,12263,"[{""event"":""fullscreenenter"",""trial"":1,""time"":3229}]",NA,NA,NA,NA,NA,5,#D89F1C,#3386FF,0,0,0,38,1,379.79999923706055,39,0,518.4000015258789,0,1,experiment,NA,NA,1,0.3,0.7,3,2,269,6,NA
fcp-trial,305,1018566,0.0-280.0-0.0,voc_e2,12263,"[{""event"":""fullscreenenter"",""trial"":1,""time"":3229}]",NA,NA,NA,NA,NA,2,#D8271C,#741CD8,0,0,0,38,1,214.79999923706055,39,0,517.5,0,1,experiment,NA,NA,0,0.1,0.9,1,0,270,6,NA
fcp-trial,306,1021554,0.0-281.0-0.0,voc_e2,12263,"[{""event"":""fullscreenenter"",""trial"":1,""time"":3229}]",NA,NA,NA,NA,NA,1,#D89F1C,#3386FF,10,10,0,38,1,498.10000228881836,39,0,982.1000022888184,10,1,experiment,NA,NA,1,0.3,0.7,3,2,271,7,NA
fcp-trial,307,1024056,0.0-282.0-0.0,voc_e2,12263,"[{""event"":""fullscreenenter"",""trial"":1,""time"":3229}]",NA,NA,NA,NA,NA,2,#FA92F8,#1CD855,10,0,1,38,1,344.79999923706055,39,0,650,0,0,experiment,NA,NA,2,0.5,0.5,4,5,272,7,NA
fcp-trial,308,1026365,0.0-283.0-0.0,voc_e2,12263,"[{""event"":""fullscreenenter"",""trial"":1,""time"":3229}]",NA,NA,NA,NA,NA,4,#3386FF,#D89F1C,10,0,1,38,1,280,37,1,523.9000015258789,10,1,experiment,NA,NA,1,0.7,0.3,2,3,273,7,NA
fcp-trial,309,1028788,0.0-284.0-0.0,voc_e2,12263,"[{""event"":""fullscreenenter"",""trial"":1,""time"":3229}]",NA,NA,NA,NA,NA,0,#741CD8,#D8271C,10,0,1,38,1,356.70000076293945,37,1,557.4000015258789,10,1,experiment,NA,NA,0,0.9,0.1,0,1,274,7,NA
fcp-trial,310,1031072,0.0-285.0-0.0,voc_e2,12263,"[{""event"":""fullscreenenter"",""trial"":1,""time"":3229}]",NA,NA,NA,NA,NA,1,#741CD8,#D8271C,10,0,1,38,1,299.79999923706055,37,1,476.79999923706055,10,1,experiment,NA,NA,0,0.9,0.1,0,1,275,7,NA
fcp-trial,311,1033586,0.0-286.0-0.0,voc_e2,12263,"[{""event"":""fullscreenenter"",""trial"":1,""time"":3229}]",NA,NA,NA,NA,NA,3,#741CD8,#D8271C,10,0,1,38,1,419.6999969482422,37,1,587.9000015258789,10,1,experiment,NA,NA,0,0.9,0.1,0,1,276,7,NA
fcp-trial,312,1036463,0.0-287.0-0.0,voc_e2,12263,"[{""event"":""fullscreenenter"",""trial"":1,""time"":3229}]",NA,NA,NA,NA,NA,5,#D8271C,#741CD8,0,10,0,38,1,823,39,0,547.2999992370605,10,1,experiment,NA,NA,0,0.1,0.9,1,0,277,7,NA
fcp-trial,313,1039065,0.0-288.0-0.0,voc_e2,12263,"[{""event"":""fullscreenenter"",""trial"":1,""time"":3229}]",NA,NA,NA,NA,NA,5,#3386FF,#D89F1C,10,0,1,38,1,502.1999969482422,37,1,592.2999992370605,10,1,experiment,NA,NA,1,0.7,0.3,2,3,278,7,NA
fcp-trial,314,1041579,0.0-289.0-0.0,voc_e2,12263,"[{""event"":""fullscreenenter"",""trial"":1,""time"":3229}]",NA,NA,NA,NA,NA,0,#1CD855,#FA92F8,0,10,0,38,1,488.29999923706055,37,1,517.2000007629395,0,0,experiment,NA,NA,2,0.5,0.5,5,4,279,7,NA
fcp-trial,315,1043903,0.0-290.0-0.0,voc_e2,12263,"[{""event"":""fullscreenenter"",""trial"":1,""time"":3229}]",NA,NA,NA,NA,NA,6,#3386FF,#D89F1C,10,0,1,38,1,310.3000030517578,37,1,507.20000076293945,10,1,experiment,NA,NA,1,0.7,0.3,2,3,280,7,NA
fcp-trial,316,1046322,0.0-291.0-0.0,voc_e2,12263,"[{""event"":""fullscreenenter"",""trial"":1,""time"":3229}]",NA,NA,NA,NA,NA,2,#D89F1C,#3386FF,10,10,0,38,1,389.5,39,0,523.3999977111816,10,1,experiment,NA,NA,1,0.3,0.7,3,2,281,7,NA
fcp-trial,317,1048735,0.0-292.0-0.0,voc_e2,12263,"[{""event"":""fullscreenenter"",""trial"":1,""time"":3229}]",NA,NA,NA,NA,NA,6,#741CD8,#D8271C,10,0,1,38,1,352.60000228881836,37,1,552.7000007629395,10,1,experiment,NA,NA,0,0.9,0.1,0,1,282,7,NA
fcp-trial,318,1051163,0.0-293.0-0.0,voc_e2,12263,"[{""event"":""fullscreenenter"",""trial"":1,""time"":3229}]",NA,NA,NA,NA,NA,6,#FA92F8,#1CD855,10,0,1,38,1,364.5999984741211,39,0,558.4000015258789,0,0,experiment,NA,NA,2,0.5,0.5,4,5,283,7,NA
fcp-trial,319,1053507,0.0-294.0-0.0,voc_e2,12263,"[{""event"":""fullscreenenter"",""trial"":1,""time"":3229}]",NA,NA,NA,NA,NA,1,#1CD855,#FA92F8,10,10,0,38,1,254.10000228881836,37,1,582.2999992370605,10,0,experiment,NA,NA,2,0.5,0.5,5,4,284,7,NA
fcp-trial,320,1055816,0.0-295.0-0.0,voc_e2,12263,"[{""event"":""fullscreenenter"",""trial"":1,""time"":3229}]",NA,NA,NA,NA,NA,0,#D89F1C,#3386FF,0,0,0,38,1,374.89999771118164,39,0,428.3000030517578,0,1,experiment,NA,NA,1,0.3,0.7,3,2,285,7,NA
fcp-trial,321,1058277,0.0-296.0-0.0,voc_e2,12263,"[{""event"":""fullscreenenter"",""trial"":1,""time"":3229}]",NA,NA,NA,NA,NA,5,#1CD855,#FA92F8,10,0,0,38,1,319.39999771118164,39,0,635.5,0,1,experiment,NA,NA,2,0.5,0.5,5,4,286,7,NA
fcp-trial,322,1060602,0.0-297.0-0.0,voc_e2,12263,"[{""event"":""fullscreenenter"",""trial"":1,""time"":3229}]",NA,NA,NA,NA,NA,4,#D8271C,#741CD8,0,10,0,38,1,335.60000228881836,39,0,483,10,1,experiment,NA,NA,0,0.1,0.9,1,0,287,7,NA
fcp-trial,323,1063076,0.0-298.0-0.0,voc_e2,12263,"[{""event"":""fullscreenenter"",""trial"":1,""time"":3229}]",NA,NA,NA,NA,NA,4,#D89F1C,#3386FF,0,10,0,38,1,356.5,39,0,610.9000015258789,10,1,experiment,NA,NA,1,0.3,0.7,3,2,288,7,NA
fcp-trial,324,1065574,0.0-299.0-0.0,voc_e2,12263,"[{""event"":""fullscreenenter"",""trial"":1,""time"":3229}]",NA,NA,NA,NA,NA,3,#1CD855,#FA92F8,10,10,0,38,1,509.5,37,1,482,10,0,experiment,NA,NA,2,0.5,0.5,5,4,289,7,NA
fcp-trial,325,1068167,0.0-300.0-0.0,voc_e2,12263,"[{""event"":""fullscreenenter"",""trial"":1,""time"":3229}]",NA,NA,NA,NA,NA,1,#3386FF,#D89F1C,10,10,1,38,1,534.0999984741211,37,1,544.6000022888184,10,1,experiment,NA,NA,1,0.7,0.3,2,3,290,7,NA
fcp-trial,326,1070732,0.0-301.0-0.0,voc_e2,12263,"[{""event"":""fullscreenenter"",""trial"":1,""time"":3229}]",NA,NA,NA,NA,NA,2,#D8271C,#741CD8,0,10,0,38,1,539.0999984741211,39,0,517,10,1,experiment,NA,NA,0,0.1,0.9,1,0,291,7,NA
fcp-trial,327,1073219,0.0-302.0-0.0,voc_e2,12263,"[{""event"":""fullscreenenter"",""trial"":1,""time"":3229}]",NA,NA,NA,NA,NA,3,#D89F1C,#3386FF,10,10,0,38,1,463.20000076293945,39,0,517.6999969482422,10,1,experiment,NA,NA,1,0.3,0.7,3,2,292,7,NA
fcp-trial,328,1075589,0.0-303.0-0.0,voc_e2,12263,"[{""event"":""fullscreenenter"",""trial"":1,""time"":3229}]",NA,NA,NA,NA,NA,2,#FA92F8,#1CD855,10,0,1,38,1,464.5,39,0,398.79999923706055,0,0,experiment,NA,NA,2,0.5,0.5,4,5,293,7,NA
fcp-trial,329,1078114,0.0-304.0-0.0,voc_e2,12263,"[{""event"":""fullscreenenter"",""trial"":1,""time"":3229}]",NA,NA,NA,NA,NA,4,#1CD855,#FA92F8,10,0,0,38,1,478.0999984741211,37,1,538.4000015258789,10,0,experiment,NA,NA,2,0.5,0.5,5,4,294,7,NA
fcp-trial,330,1080621,0.0-305.0-0.0,voc_e2,12263,"[{""event"":""fullscreenenter"",""trial"":1,""time"":3229}]",NA,NA,NA,NA,NA,5,#741CD8,#D8271C,10,0,1,38,1,492.9000015258789,37,1,507.70000076293945,10,1,experiment,NA,NA,0,0.9,0.1,0,1,295,7,NA
fcp-trial,331,1083005,0.0-306.0-0.0,voc_e2,12263,"[{""event"":""fullscreenenter"",""trial"":1,""time"":3229}]",NA,NA,NA,NA,NA,2,#D89F1C,#3386FF,0,0,0,38,1,365,39,0,513.0999984741211,0,1,experiment,NA,NA,1,0.3,0.7,3,2,296,7,NA
fcp-trial,332,1085468,0.0-307.0-0.0,voc_e2,12263,"[{""event"":""fullscreenenter"",""trial"":1,""time"":3229}]",NA,NA,NA,NA,NA,0,#741CD8,#D8271C,10,0,1,38,1,623.1999969482422,37,1,332.70000076293945,10,1,experiment,NA,NA,0,0.9,0.1,0,1,297,7,NA
fcp-trial,333,1087980,0.0-308.0-0.0,voc_e2,12263,"[{""event"":""fullscreenenter"",""trial"":1,""time"":3229}]",NA,NA,NA,NA,NA,2,#1CD855,#FA92F8,0,10,0,38,1,518.9000015258789,37,1,487.29999923706055,0,0,experiment,NA,NA,2,0.5,0.5,5,4,298,7,NA
fcp-trial,334,1090534,0.0-309.0-0.0,voc_e2,12263,"[{""event"":""fullscreenenter"",""trial"":1,""time"":3229}]",NA,NA,NA,NA,NA,4,#D8271C,#741CD8,0,10,0,38,1,499.6999969482422,39,0,547.7999992370605,10,1,experiment,NA,NA,0,0.1,0.9,1,0,299,7,NA
fcp-trial,335,1093158,0.0-310.0-0.0,voc_e2,12263,"[{""event"":""fullscreenenter"",""trial"":1,""time"":3229}]",NA,NA,NA,NA,NA,2,#741CD8,#D8271C,10,0,1,38,1,658.4000015258789,37,1,458.4000015258789,10,1,experiment,NA,NA,0,0.9,0.1,0,1,300,7,NA
fcp-trial,336,1095575,0.0-311.0-0.0,voc_e2,12263,"[{""event"":""fullscreenenter"",""trial"":1,""time"":3229}]",NA,NA,NA,NA,NA,6,#3386FF,#D89F1C,0,0,1,38,1,415.5999984741211,37,1,490.5,0,1,experiment,NA,NA,1,0.7,0.3,2,3,301,7,NA
fcp-trial,337,1098189,0.0-312.0-0.0,voc_e2,12263,"[{""event"":""fullscreenenter"",""trial"":1,""time"":3229}]",NA,NA,NA,NA,NA,4,#1CD855,#FA92F8,10,10,0,38,1,523.5,37,1,582.7000007629395,10,0,experiment,NA,NA,2,0.5,0.5,5,4,302,7,NA
fcp-trial,338,1100821,0.0-313.0-0.0,voc_e2,12263,"[{""event"":""fullscreenenter"",""trial"":1,""time"":3229}]",NA,NA,NA,NA,NA,0,#1CD855,#FA92F8,10,10,0,38,1,372.9000015258789,37,1,751.2000007629395,10,0,experiment,NA,NA,2,0.5,0.5,5,4,303,7,NA
fcp-trial,339,1103325,0.0-314.0-0.0,voc_e2,12263,"[{""event"":""fullscreenenter"",""trial"":1,""time"":3229}]",NA,NA,NA,NA,NA,1,#D8271C,#741CD8,0,10,0,38,1,519.4000015258789,39,0,477,10,1,experiment,NA,NA,0,0.1,0.9,1,0,304,7,NA
fcp-trial,340,1105760,0.0-315.0-0.0,voc_e2,12263,"[{""event"":""fullscreenenter"",""trial"":1,""time"":3229}]",NA,NA,NA,NA,NA,5,#3386FF,#D89F1C,10,0,1,38,1,459.60000228881836,37,1,469.1000022888184,10,1,experiment,NA,NA,1,0.7,0.3,2,3,305,7,NA
fcp-trial,341,1109110,0.0-316.0-0.0,voc_e2,12263,"[{""event"":""fullscreenenter"",""trial"":1,""time"":3229}]",NA,NA,NA,NA,NA,1,#3386FF,#D89F1C,10,0,1,38,1,866.7000007629395,37,1,977,10,1,experiment,NA,NA,1,0.7,0.3,2,3,306,7,NA
fcp-trial,342,1112056,0.0-317.0-0.0,voc_e2,12263,"[{""event"":""fullscreenenter"",""trial"":1,""time"":3229}]",NA,NA,NA,NA,NA,6,#741CD8,#D8271C,10,0,1,38,1,842.2999992370605,37,1,596.7999992370605,10,1,experiment,NA,NA,0,0.9,0.1,0,1,307,7,NA
fcp-trial,343,1114564,0.0-318.0-0.0,voc_e2,12263,"[{""event"":""fullscreenenter"",""trial"":1,""time"":3229}]",NA,NA,NA,NA,NA,6,#FA92F8,#1CD855,0,10,1,38,1,383.29999923706055,39,0,617.0999984741211,10,0,experiment,NA,NA,2,0.5,0.5,4,5,308,7,NA
fcp-trial,344,1116933,0.0-319.0-0.0,voc_e2,12263,"[{""event"":""fullscreenenter"",""trial"":1,""time"":3229}]",NA,NA,NA,NA,NA,5,#1CD855,#FA92F8,10,0,0,38,1,440.5999984741211,37,1,423,10,0,experiment,NA,NA,2,0.5,0.5,5,4,309,7,NA
fcp-trial,345,1119462,0.0-320.0-0.0,voc_e2,12263,"[{""event"":""fullscreenenter"",""trial"":1,""time"":3229}]",NA,NA,NA,NA,NA,0,#3386FF,#D89F1C,10,0,1,38,1,529,37,1,492.4000015258789,10,1,experiment,NA,NA,1,0.7,0.3,2,3,310,7,NA
fcp-trial,346,1121920,0.0-321.0-0.0,voc_e2,12263,"[{""event"":""fullscreenenter"",""trial"":1,""time"":3229}]",NA,NA,NA,NA,NA,3,#741CD8,#D8271C,10,0,1,38,1,424.0999984741211,37,1,527.5999984741211,10,1,experiment,NA,NA,0,0.9,0.1,0,1,311,7,NA
fcp-trial,347,1124334,0.0-322.0-0.0,voc_e2,12263,"[{""event"":""fullscreenenter"",""trial"":1,""time"":3229}]",NA,NA,NA,NA,NA,1,#1CD855,#FA92F8,10,0,0,38,1,363.8000030517578,37,1,542.1000022888184,10,0,experiment,NA,NA,2,0.5,0.5,5,4,312,7,NA
fcp-trial,348,1126812,0.0-323.0-0.0,voc_e2,12263,"[{""event"":""fullscreenenter"",""trial"":1,""time"":3229}]",NA,NA,NA,NA,NA,3,#FA92F8,#1CD855,10,10,1,38,1,335.0999984741211,39,0,635.9000015258789,10,0,experiment,NA,NA,2,0.5,0.5,4,5,313,7,NA
fcp-trial,349,1129102,0.0-324.0-0.0,voc_e2,12263,"[{""event"":""fullscreenenter"",""trial"":1,""time"":3229}]",NA,NA,NA,NA,NA,3,#3386FF,#D89F1C,0,0,1,38,1,344.5,37,1,438.5999984741211,0,1,experiment,NA,NA,1,0.7,0.3,2,3,314,7,NA
fcp-trial,350,1131400,0.0-325.0-0.0,voc_e2,12263,"[{""event"":""fullscreenenter"",""trial"":1,""time"":3229}]",NA,NA,NA,NA,NA,4,#3386FF,#D89F1C,0,10,1,38,1,302.3000030517578,37,1,479.5,0,1,experiment,NA,NA,1,0.7,0.3,2,3,315,7,NA
audio-instructions,351,1139080,0.0-326.0,voc_e2,12263,"[{""event"":""fullscreenenter"",""trial"":1,""time"":3229}]",NA,1875.2999992370603,static/audio/finished.wav,NA,0,NA,NA,NA,NA,NA,NA,NA,NA,NA,NA,NA,NA,NA,NA,NA,NA,NA,NA,NA,NA,NA,NA,NA,NA,NA
audio-instructions,352,1152058,0.0-327.0-0.0,voc_e2,12263,"[{""event"":""fullscreenenter"",""trial"":1,""time"":3229}]",NA,2138.7999992370605,static/audio/explicit1.wav,NA,0,NA,NA,NA,NA,NA,NA,NA,NA,NA,NA,NA,NA,NA,NA,NA,NA,NA,NA,NA,NA,NA,NA,NA,NA,NA
audio-instructions,353,1161139,0.0-327.0-1.0,voc_e2,12263,"[{""event"":""fullscreenenter"",""trial"":1,""time"":3229}]",NA,1492,static/audio/explicit2.wav,NA,0,NA,NA,NA,NA,NA,NA,NA,NA,NA,NA,NA,NA,NA,NA,NA,NA,NA,NA,NA,NA,NA,NA,NA,NA,NA
image-slider-response,354,1173910,0.0-328.0,voc_e2,12263,"[{""event"":""fullscreenenter"",""trial"":1,""time"":3229}]",NA,12769.09999847412,static/img/machines/machine3.png,NA,NA,NA,NA,NA,NA,NA,NA,NA,NA,NA,NA,NA,NA,NA,NA,explicit,NA,NA,NA,NA,NA,NA,NA,NA,NA,7
image-slider-response,355,1178421,0.0-329.0,voc_e2,12263,"[{""event"":""fullscreenenter"",""trial"":1,""time"":3229}]",NA,4510,static/img/machines/machine6.png,NA,NA,NA,NA,NA,NA,NA,NA,NA,NA,NA,NA,NA,NA,NA,NA,explicit,NA,NA,NA,NA,NA,NA,NA,NA,NA,6
image-slider-response,356,1178435,0.0-330.0,voc_e2,12263,"[{""event"":""fullscreenenter"",""trial"":1,""time"":3229}]",NA,12.599998474121094,static/img/machines/machine1.png,NA,NA,NA,NA,NA,NA,NA,NA,NA,NA,NA,NA,NA,NA,NA,NA,explicit,NA,NA,NA,NA,NA,NA,NA,NA,NA,5
image-slider-response,357,1184720,0.0-331.0,voc_e2,12263,"[{""event"":""fullscreenenter"",""trial"":1,""time"":3229}]",NA,6284.2000007629395,static/img/machines/machine5.png,NA,NA,NA,NA,NA,NA,NA,NA,NA,NA,NA,NA,NA,NA,NA,NA,explicit,NA,NA,NA,NA,NA,NA,NA,NA,NA,4
image-slider-response,358,1189381,0.0-332.0,voc_e2,12263,"[{""event"":""fullscreenenter"",""trial"":1,""time"":3229}]",NA,4658.799999237061,static/img/machines/machine4.png,NA,NA,NA,NA,NA,NA,NA,NA,NA,NA,NA,NA,NA,NA,NA,NA,explicit,NA,NA,NA,NA,NA,NA,NA,NA,NA,3
image-slider-response,359,1192454,0.0-333.0,voc_e2,12263,"[{""event"":""fullscreenenter"",""trial"":1,""time"":3229}]",NA,3071.599998474121,static/img/machines/machine2.png,NA,NA,NA,NA,NA,NA,NA,NA,NA,NA,NA,NA,NA,NA,NA,NA,explicit,NA,NA,NA,NA,NA,NA,NA,NA,NA,8
