trial_type,trial_index,time_elapsed,internal_node_id,task_version,subject_id,interactions,success,rt,stimulus,key_press,button_pressed,offer,arcade_color_L,arcade_color_R,arcade_outcome_L,arcade_outcome_R,correct,stage_1_key,stage_1_choice,stage_1_rt,stage_2_key,stage_2_choice,stage_2_rt,stage_3_outcome,accuracy,phase,responses,num_errors,context,reward_prob_L,reward_prob_R,arcade_id_L,arcade_id_R,trial,block,response
pavlovia,0,27,0.0-0.0,voc_e2,11933,[],NA,NA,NA,NA,NA,NA,NA,NA,NA,NA,NA,NA,NA,NA,NA,NA,NA,NA,NA,NA,NA,NA,NA,NA,NA,NA,NA,NA,NA,NA
fullscreen,1,12948,0.0-1.0,voc_e2,11933,"[{""event"":""fullscreenenter"",""trial"":1,""time"":11992}]",TRUE,NA,NA,NA,NA,NA,NA,NA,NA,NA,NA,NA,NA,NA,NA,NA,NA,NA,NA,NA,NA,NA,NA,NA,NA,NA,NA,NA,NA,NA
audio-keyboard-response,2,15751,0.0-2.0,voc_e2,11933,"[{""event"":""fullscreenenter"",""trial"":1,""time"":11992}]",NA,2800,static/audio/beep_loop.wav,32,NA,NA,NA,NA,NA,NA,NA,NA,NA,NA,NA,NA,NA,NA,NA,NA,NA,NA,NA,NA,NA,NA,NA,NA,NA,NA
audio-test,3,17576,0.0-3.0,voc_e2,11933,"[{""event"":""fullscreenenter"",""trial"":1,""time"":11992}]",NA,NA,static/audio/turtle.wav,NA,3,NA,NA,NA,NA,NA,NA,NA,NA,NA,NA,NA,NA,NA,NA,NA,NA,NA,NA,NA,NA,NA,NA,NA,NA,NA
audio-test,4,20017,0.0-4.0,voc_e2,11933,"[{""event"":""fullscreenenter"",""trial"":1,""time"":11992}]",NA,NA,static/audio/shark.wav,NA,2,NA,NA,NA,NA,NA,NA,NA,NA,NA,NA,NA,NA,NA,NA,NA,NA,NA,NA,NA,NA,NA,NA,NA,NA,NA
audio-instructions,5,26797,0.0-5.0-0.0,voc_e2,11933,"[{""event"":""fullscreenenter"",""trial"":1,""time"":11992}]",NA,983.7000000476836,static/audio/instructions1.wav,NA,0,NA,NA,NA,NA,NA,NA,NA,NA,NA,NA,NA,NA,NA,NA,NA,NA,NA,NA,NA,NA,NA,NA,NA,NA,NA
audio-instructions,6,35828,0.0-5.0-1.0,voc_e2,11933,"[{""event"":""fullscreenenter"",""trial"":1,""time"":11992}]",NA,2296.2999999523163,static/audio/instructions2.wav,NA,0,NA,NA,NA,NA,NA,NA,NA,NA,NA,NA,NA,NA,NA,NA,NA,NA,NA,NA,NA,NA,NA,NA,NA,NA,NA
audio-instructions,7,42973,0.0-5.0-2.0,voc_e2,11933,"[{""event"":""fullscreenenter"",""trial"":1,""time"":11992}]",NA,1340.5,static/audio/instructions3.wav,NA,0,NA,NA,NA,NA,NA,NA,NA,NA,NA,NA,NA,NA,NA,NA,NA,NA,NA,NA,NA,NA,NA,NA,NA,NA,NA
audio-instructions,8,58033,0.0-5.0-3.0,voc_e2,11933,"[{""event"":""fullscreenenter"",""trial"":1,""time"":11992}]",NA,1829.4000000953672,static/audio/instructions4.wav,NA,0,NA,NA,NA,NA,NA,NA,NA,NA,NA,NA,NA,NA,NA,NA,NA,NA,NA,NA,NA,NA,NA,NA,NA,NA,NA
audio-instructions,9,79716,0.0-5.0-4.0,voc_e2,11933,"[{""event"":""fullscreenenter"",""trial"":1,""time"":11992}]",NA,12292.799999952316,static/audio/instructions5.wav,NA,0,NA,NA,NA,NA,NA,NA,NA,NA,NA,NA,NA,NA,NA,NA,NA,NA,NA,NA,NA,NA,NA,NA,NA,NA,NA
fcp-practice,10,83106,0.0-5.0-5.0-0.0,voc_e2,11933,"[{""event"":""fullscreenenter"",""trial"":1,""time"":11992}]",NA,NA,NA,NA,NA,NA,#EDC948,#46d3c8,10,0,1,null,null,null,37,1,1862.8000000715256,10,1,practice,NA,NA,NA,NA,NA,NA,NA,NA,NA,NA
fcp-practice,11,85489,0.0-5.0-5.0-1.0,voc_e2,11933,"[{""event"":""fullscreenenter"",""trial"":1,""time"":11992}]",NA,NA,NA,NA,NA,NA,#EDC948,#46d3c8,10,0,1,null,null,null,37,1,867.1000000238419,10,1,practice,NA,NA,NA,NA,NA,NA,NA,NA,NA,NA
fcp-practice,12,87589,0.0-5.0-5.0-2.0,voc_e2,11933,"[{""event"":""fullscreenenter"",""trial"":1,""time"":11992}]",NA,NA,NA,NA,NA,NA,#EDC948,#46d3c8,0,10,1,null,null,null,37,1,587,0,1,practice,NA,NA,NA,NA,NA,NA,NA,NA,NA,NA
fcp-practice,13,89953,0.0-5.0-5.0-3.0,voc_e2,11933,"[{""event"":""fullscreenenter"",""trial"":1,""time"":11992}]",NA,NA,NA,NA,NA,NA,#EDC948,#46d3c8,10,0,1,null,null,null,37,1,853.9000000953674,10,1,practice,NA,NA,NA,NA,NA,NA,NA,NA,NA,NA
fcp-practice,14,92390,0.0-5.0-5.0-4.0,voc_e2,11933,"[{""event"":""fullscreenenter"",""trial"":1,""time"":11992}]",NA,NA,NA,NA,NA,NA,#EDC948,#46d3c8,10,0,1,null,null,null,37,1,918.2000000476836,10,1,practice,NA,NA,NA,NA,NA,NA,NA,NA,NA,NA
audio-instructions,15,112314,0.0-5.0-6.0,voc_e2,11933,"[{""event"":""fullscreenenter"",""trial"":1,""time"":11992}]",NA,1911.6999999284744,static/audio/instructions6.wav,NA,0,NA,NA,NA,NA,NA,NA,NA,NA,NA,NA,NA,NA,NA,NA,NA,NA,NA,NA,NA,NA,NA,NA,NA,NA,NA
audio-instructions,16,133170,0.0-5.0-7.0,voc_e2,11933,"[{""event"":""fullscreenenter"",""trial"":1,""time"":11992}]",NA,1657.100000023842,static/audio/instructions7.wav,NA,0,NA,NA,NA,NA,NA,NA,NA,NA,NA,NA,NA,NA,NA,NA,NA,NA,NA,NA,NA,NA,NA,NA,NA,NA,NA
audio-instructions,17,143868,0.0-5.0-8.0,voc_e2,11933,"[{""event"":""fullscreenenter"",""trial"":1,""time"":11992}]",NA,1225,static/audio/instructions8.wav,NA,0,NA,NA,NA,NA,NA,NA,NA,NA,NA,NA,NA,NA,NA,NA,NA,NA,NA,NA,NA,NA,NA,NA,NA,NA,NA
fcp-comprehension,18,155437,0.0-5.0-9.0,voc_e2,11933,"[{""event"":""fullscreenenter"",""trial"":1,""time"":11992}]",NA,11566.399999976158,NA,NA,NA,NA,NA,NA,NA,NA,NA,NA,NA,NA,NA,NA,NA,NA,NA,NA,"true,true",0,NA,NA,NA,NA,NA,NA,NA,NA
audio-instructions,19,162868,0.0-6.0-0.0,voc_e2,11933,"[{""event"":""fullscreenenter"",""trial"":1,""time"":11992}]",NA,1874.5,static/audio/instructions9.wav,NA,0,NA,NA,NA,NA,NA,NA,NA,NA,NA,NA,NA,NA,NA,NA,NA,NA,NA,NA,NA,NA,NA,NA,NA,NA,NA
audio-instructions,20,175718,0.0-6.0-1.0,voc_e2,11933,"[{""event"":""fullscreenenter"",""trial"":1,""time"":11992}]",NA,735.2000000476837,static/audio/instructions10.wav,NA,0,NA,NA,NA,NA,NA,NA,NA,NA,NA,NA,NA,NA,NA,NA,NA,NA,NA,NA,NA,NA,NA,NA,NA,NA,NA
fcp-trial,21,183761,0.0-6.0-2.0,voc_e2,11933,"[{""event"":""fullscreenenter"",""trial"":1,""time"":11992}]",NA,NA,NA,NA,NA,0,#EDC948,#46d3c8,10,10,1,38,1,4899.200000047684,39,0,1585.600000023842,10,0,practice,NA,NA,NA,NA,NA,NA,NA,NA,NA,NA
audio-instructions,22,196558,0.0-6.0-3.0,voc_e2,11933,"[{""event"":""fullscreenenter"",""trial"":1,""time"":11992}]",NA,1785.100000023842,static/audio/instructions11.wav,NA,0,NA,NA,NA,NA,NA,NA,NA,NA,NA,NA,NA,NA,NA,NA,NA,NA,NA,NA,NA,NA,NA,NA,NA,NA,NA
fcp-trial,23,199711,0.0-6.0-4.0,voc_e2,11933,"[{""event"":""fullscreenenter"",""trial"":1,""time"":11992}]",NA,NA,NA,NA,NA,6,#EDC948,#46d3c8,10,10,1,40,0,948.7000000476837,37,1,674.8999999761581,10,1,practice,NA,NA,NA,NA,NA,NA,NA,NA,NA,NA
audio-instructions,24,219488,0.0-6.0-5.0,voc_e2,11933,"[{""event"":""fullscreenenter"",""trial"":1,""time"":11992}]",NA,1084.399999976158,static/audio/instructions12.wav,NA,0,NA,NA,NA,NA,NA,NA,NA,NA,NA,NA,NA,NA,NA,NA,NA,NA,NA,NA,NA,NA,NA,NA,NA,NA,NA
audio-instructions,25,228578,0.0-6.0-6.0,voc_e2,11933,"[{""event"":""fullscreenenter"",""trial"":1,""time"":11992}]",NA,1495.2000000476835,static/audio/instructions13.wav,NA,0,NA,NA,NA,NA,NA,NA,NA,NA,NA,NA,NA,NA,NA,NA,NA,NA,NA,NA,NA,NA,NA,NA,NA,NA,NA
audio-instructions,26,237823,0.0-6.0-7.0,voc_e2,11933,"[{""event"":""fullscreenenter"",""trial"":1,""time"":11992}]",NA,799.8999999761581,static/audio/instructions14.wav,NA,0,NA,NA,NA,NA,NA,NA,NA,NA,NA,NA,NA,NA,NA,NA,NA,NA,NA,NA,NA,NA,NA,NA,NA,NA,NA
audio-instructions,27,245449,0.0-7.0-0.0,voc_e2,11933,"[{""event"":""fullscreenenter"",""trial"":1,""time"":11992}]",NA,715.5,static/audio/instructions15.wav,NA,0,NA,NA,NA,NA,NA,NA,NA,NA,NA,NA,NA,NA,NA,NA,NA,NA,NA,NA,NA,NA,NA,NA,NA,NA,NA
audio-instructions,28,254978,0.0-7.0-1.0,voc_e2,11933,"[{""event"":""fullscreenenter"",""trial"":1,""time"":11992}]",NA,2705.1999999284744,static/audio/instructions16.wav,NA,0,NA,NA,NA,NA,NA,NA,NA,NA,NA,NA,NA,NA,NA,NA,NA,NA,NA,NA,NA,NA,NA,NA,NA,NA,NA
audio-instructions,29,263905,0.0-7.0-2.0,voc_e2,11933,"[{""event"":""fullscreenenter"",""trial"":1,""time"":11992}]",NA,1251,static/audio/instructions17.wav,NA,0,NA,NA,NA,NA,NA,NA,NA,NA,NA,NA,NA,NA,NA,NA,NA,NA,NA,NA,NA,NA,NA,NA,NA,NA,NA
audio-instructions,30,273152,0.0-7.0-3.0,voc_e2,11933,"[{""event"":""fullscreenenter"",""trial"":1,""time"":11992}]",NA,1478.2000000476835,static/audio/instructions18.wav,NA,0,NA,NA,NA,NA,NA,NA,NA,NA,NA,NA,NA,NA,NA,NA,NA,NA,NA,NA,NA,NA,NA,NA,NA,NA,NA
audio-instructions,31,280877,0.0-7.0-4.0,voc_e2,11933,"[{""event"":""fullscreenenter"",""trial"":1,""time"":11992}]",NA,984.5,static/audio/instructions19.wav,NA,0,NA,NA,NA,NA,NA,NA,NA,NA,NA,NA,NA,NA,NA,NA,NA,NA,NA,NA,NA,NA,NA,NA,NA,NA,NA
fcp-comprehension,32,308305,0.0-7.0-5.0,voc_e2,11933,"[{""event"":""fullscreenenter"",""trial"":1,""time"":11992}]",NA,27425.19999992847,NA,NA,NA,NA,NA,NA,NA,NA,NA,NA,NA,NA,NA,NA,NA,NA,NA,NA,"false,false,false,true",0,NA,NA,NA,NA,NA,NA,NA,NA
audio-instructions,33,319645,0.0-8.0,voc_e2,11933,"[{""event"":""fullscreenenter"",""trial"":1,""time"":11992}]",NA,2122.7999999523163,static/audio/ready.wav,NA,0,NA,NA,NA,NA,NA,NA,NA,NA,NA,NA,NA,NA,NA,NA,NA,NA,NA,NA,NA,NA,NA,NA,NA,NA,NA
fcp-trial,34,324682,0.0-9.0-0.0,voc_e2,11933,"[{""event"":""fullscreenenter"",""trial"":1,""time"":11992}]",NA,NA,NA,NA,NA,3,#D8271C,#741CD8,10,10,1,38,1,2362.1999999284744,37,1,1157.7000000476835,10,1,experiment,NA,NA,0,0.9,0.1,0,1,1,1,NA
fcp-trial,35,329218,0.0-10.0-0.0,voc_e2,11933,"[{""event"":""fullscreenenter"",""trial"":1,""time"":11992}]",NA,NA,NA,NA,NA,0,#741CD8,#D8271C,0,0,0,38,1,2307.7999999523163,39,0,718.1000000238419,0,1,experiment,NA,NA,0,0.1,0.9,1,0,2,1,NA
fcp-trial,36,335250,0.0-11.0-0.0,voc_e2,11933,"[{""event"":""fullscreenenter"",""trial"":1,""time"":11992}]",NA,NA,NA,NA,NA,6,#741CD8,#D8271C,10,10,0,38,1,3625.600000023842,37,1,890.3999999761581,10,0,experiment,NA,NA,0,0.1,0.9,1,0,3,1,NA
fcp-trial,37,340350,0.0-12.0-0.0,voc_e2,11933,"[{""event"":""fullscreenenter"",""trial"":1,""time"":11992}]",NA,NA,NA,NA,NA,5,#D89F1C,#3386FF,10,10,0,38,1,2956.3000000715256,39,0,626.8999999761581,10,1,experiment,NA,NA,1,0.3,0.7,3,2,4,1,NA
fcp-trial,38,347201,0.0-13.0-0.0,voc_e2,11933,"[{""event"":""fullscreenenter"",""trial"":1,""time"":11992}]",NA,NA,NA,NA,NA,4,#D8271C,#741CD8,10,0,1,38,1,4083.5999999046326,37,1,1239.8000000715256,10,1,experiment,NA,NA,0,0.9,0.1,0,1,5,1,NA
fcp-trial,39,350969,0.0-14.0-0.0,voc_e2,11933,"[{""event"":""fullscreenenter"",""trial"":1,""time"":11992}]",NA,NA,NA,NA,NA,4,#3386FF,#D89F1C,10,0,1,38,1,1653.0999999046326,37,1,602.7000000476837,10,1,experiment,NA,NA,1,0.7,0.3,2,3,6,1,NA
fcp-trial,40,355331,0.0-15.0-0.0,voc_e2,11933,"[{""event"":""fullscreenenter"",""trial"":1,""time"":11992}]",NA,NA,NA,NA,NA,3,#1CD855,#FA92F8,0,10,1,38,1,2154.399999976158,39,0,686.6000000238419,10,0,experiment,NA,NA,2,0.5,0.5,4,5,7,1,NA
fcp-trial,41,358599,0.0-16.0-0.0,voc_e2,11933,"[{""event"":""fullscreenenter"",""trial"":1,""time"":11992}]",NA,NA,NA,NA,NA,1,#1CD855,#FA92F8,10,0,1,38,1,1103.7999999523163,39,0,639.1000000238419,0,0,experiment,NA,NA,2,0.5,0.5,4,5,8,1,NA
fcp-trial,42,362856,0.0-17.0-0.0,voc_e2,11933,"[{""event"":""fullscreenenter"",""trial"":1,""time"":11992}]",NA,NA,NA,NA,NA,2,#741CD8,#D8271C,10,10,0,38,1,1872,39,0,870.5,10,1,experiment,NA,NA,0,0.1,0.9,1,0,9,1,NA
fcp-trial,43,366657,0.0-18.0-0.0,voc_e2,11933,"[{""event"":""fullscreenenter"",""trial"":1,""time"":11992}]",NA,NA,NA,NA,NA,5,#FA92F8,#1CD855,10,10,0,38,1,1681.2999999523163,37,1,605.1000000238419,10,0,experiment,NA,NA,2,0.5,0.5,5,4,10,1,NA
fcp-trial,44,371149,0.0-19.0-0.0,voc_e2,11933,"[{""event"":""fullscreenenter"",""trial"":1,""time"":11992}]",NA,NA,NA,NA,NA,3,#3386FF,#D89F1C,10,0,1,38,1,1581.0999999046326,37,1,1403.2999999523165,10,1,experiment,NA,NA,1,0.7,0.3,2,3,11,1,NA
fcp-trial,45,374333,0.0-20.0-0.0,voc_e2,11933,"[{""event"":""fullscreenenter"",""trial"":1,""time"":11992}]",NA,NA,NA,NA,NA,1,#3386FF,#D89F1C,10,0,1,38,1,1044,37,1,629.7999999523163,10,1,experiment,NA,NA,1,0.7,0.3,2,3,12,1,NA
fcp-trial,46,378270,0.0-21.0-0.0,voc_e2,11933,"[{""event"":""fullscreenenter"",""trial"":1,""time"":11992}]",NA,NA,NA,NA,NA,1,#D8271C,#741CD8,10,0,1,38,1,1965.5,39,0,460.2999999523163,0,0,experiment,NA,NA,0,0.9,0.1,0,1,13,1,NA
fcp-trial,47,383139,0.0-22.0-0.0,voc_e2,11933,"[{""event"":""fullscreenenter"",""trial"":1,""time"":11992}]",NA,NA,NA,NA,NA,6,#1CD855,#FA92F8,0,10,1,40,0,2385,39,0,969.8000000715256,10,0,experiment,NA,NA,2,0.5,0.5,4,5,14,1,NA
fcp-trial,48,387985,0.0-23.0-0.0,voc_e2,11933,"[{""event"":""fullscreenenter"",""trial"":1,""time"":11992}]",NA,NA,NA,NA,NA,4,#FA92F8,#1CD855,0,10,0,40,0,2534.7000000476837,37,1,799,0,0,experiment,NA,NA,2,0.5,0.5,5,4,15,1,NA
fcp-trial,49,394082,0.0-24.0-0.0,voc_e2,11933,"[{""event"":""fullscreenenter"",""trial"":1,""time"":11992}]",NA,NA,NA,NA,NA,0,#3386FF,#D89F1C,0,0,1,40,0,3951.7000000476837,37,1,629.1000000238419,0,1,experiment,NA,NA,1,0.7,0.3,2,3,16,1,NA
fcp-trial,50,397216,0.0-25.0-0.0,voc_e2,11933,"[{""event"":""fullscreenenter"",""trial"":1,""time"":11992}]",NA,NA,NA,NA,NA,6,#D89F1C,#3386FF,0,10,0,38,1,976,37,1,640.8999999761581,0,0,experiment,NA,NA,1,0.3,0.7,3,2,17,1,NA
fcp-trial,51,400983,0.0-26.0-0.0,voc_e2,11933,"[{""event"":""fullscreenenter"",""trial"":1,""time"":11992}]",NA,NA,NA,NA,NA,5,#741CD8,#D8271C,0,10,0,40,0,1729.2999999523163,39,0,526.2999999523163,10,1,experiment,NA,NA,0,0.1,0.9,1,0,18,1,NA
fcp-trial,52,404599,0.0-27.0-0.0,voc_e2,11933,"[{""event"":""fullscreenenter"",""trial"":1,""time"":11992}]",NA,NA,NA,NA,NA,2,#3386FF,#D89F1C,0,0,1,38,1,1521,39,0,575.1999999284744,0,0,experiment,NA,NA,1,0.7,0.3,2,3,19,1,NA
fcp-trial,53,408691,0.0-28.0-0.0,voc_e2,11933,"[{""event"":""fullscreenenter"",""trial"":1,""time"":11992}]",NA,NA,NA,NA,NA,2,#1CD855,#FA92F8,10,0,1,38,1,2120.600000023842,39,0,462.8000000715256,0,0,experiment,NA,NA,2,0.5,0.5,4,5,20,1,NA
fcp-trial,54,411899,0.0-29.0-0.0,voc_e2,11933,"[{""event"":""fullscreenenter"",""trial"":1,""time"":11992}]",NA,NA,NA,NA,NA,0,#FA92F8,#1CD855,10,0,0,40,0,1233.6000000238419,37,1,456.3000000715256,10,0,experiment,NA,NA,2,0.5,0.5,5,4,21,1,NA
fcp-trial,55,415667,0.0-30.0-0.0,voc_e2,11933,"[{""event"":""fullscreenenter"",""trial"":1,""time"":11992}]",NA,NA,NA,NA,NA,6,#D89F1C,#3386FF,0,0,0,38,1,767.4000000953674,39,0,1492.100000023842,0,1,experiment,NA,NA,1,0.3,0.7,3,2,22,1,NA
fcp-trial,56,420034,0.0-31.0-0.0,voc_e2,11933,"[{""event"":""fullscreenenter"",""trial"":1,""time"":11992}]",NA,NA,NA,NA,NA,1,#1CD855,#FA92F8,0,0,1,40,0,2344.5,39,0,511.89999997615814,0,0,experiment,NA,NA,2,0.5,0.5,4,5,23,1,NA
fcp-trial,57,423967,0.0-32.0-0.0,voc_e2,11933,"[{""event"":""fullscreenenter"",""trial"":1,""time"":11992}]",NA,NA,NA,NA,NA,2,#1CD855,#FA92F8,10,0,1,38,1,1754.3999999761581,37,1,662.1999999284744,10,1,experiment,NA,NA,2,0.5,0.5,4,5,24,1,NA
fcp-trial,58,428237,0.0-33.0-0.0,voc_e2,11933,"[{""event"":""fullscreenenter"",""trial"":1,""time"":11992}]",NA,NA,NA,NA,NA,3,#FA92F8,#1CD855,0,10,0,40,0,1833.8000000715256,37,1,925.7000000476836,0,0,experiment,NA,NA,2,0.5,0.5,5,4,25,1,NA
fcp-trial,59,431750,0.0-34.0-0.0,voc_e2,11933,"[{""event"":""fullscreenenter"",""trial"":1,""time"":11992}]",NA,NA,NA,NA,NA,2,#D8271C,#741CD8,10,0,1,38,1,1401,39,0,596.2999999523163,0,0,experiment,NA,NA,0,0.9,0.1,0,1,26,1,NA
fcp-trial,60,435858,0.0-35.0-0.0,voc_e2,11933,"[{""event"":""fullscreenenter"",""trial"":1,""time"":11992}]",NA,NA,NA,NA,NA,0,#3386FF,#D89F1C,10,0,1,38,1,2000.3999999761581,37,1,599.5,10,1,experiment,NA,NA,1,0.7,0.3,2,3,27,1,NA
fcp-trial,61,440451,0.0-36.0-0.0,voc_e2,11933,"[{""event"":""fullscreenenter"",""trial"":1,""time"":11992}]",NA,NA,NA,NA,NA,0,#FA92F8,#1CD855,0,10,0,38,1,2620.7000000476837,37,1,460.10000002384186,0,0,experiment,NA,NA,2,0.5,0.5,5,4,28,1,NA
fcp-trial,62,444040,0.0-37.0-0.0,voc_e2,11933,"[{""event"":""fullscreenenter"",""trial"":1,""time"":11992}]",NA,NA,NA,NA,NA,5,#741CD8,#D8271C,0,10,0,40,0,1621.1999999284744,39,0,452.8000000715256,10,1,experiment,NA,NA,0,0.1,0.9,1,0,29,1,NA
fcp-trial,63,448101,0.0-38.0-0.0,voc_e2,11933,"[{""event"":""fullscreenenter"",""trial"":1,""time"":11992}]",NA,NA,NA,NA,NA,0,#D8271C,#741CD8,10,0,1,38,1,2056.6999999284744,37,1,491.1999999284744,10,1,experiment,NA,NA,0,0.9,0.1,0,1,30,1,NA
fcp-trial,64,451051,0.0-39.0-0.0,voc_e2,11933,"[{""event"":""fullscreenenter"",""trial"":1,""time"":11992}]",NA,NA,NA,NA,NA,5,#3386FF,#D89F1C,0,0,1,38,1,1079,37,1,353.2000000476837,0,1,experiment,NA,NA,1,0.7,0.3,2,3,31,1,NA
fcp-trial,65,455288,0.0-40.0-0.0,voc_e2,11933,"[{""event"":""fullscreenenter"",""trial"":1,""time"":11992}]",NA,NA,NA,NA,NA,5,#FA92F8,#1CD855,0,0,0,40,0,2215.2999999523163,37,1,513.1000000238419,0,0,experiment,NA,NA,2,0.5,0.5,5,4,32,1,NA
fcp-trial,66,458118,0.0-41.0-0.0,voc_e2,11933,"[{""event"":""fullscreenenter"",""trial"":1,""time"":11992}]",NA,NA,NA,NA,NA,3,#3386FF,#D89F1C,10,0,1,38,1,995.5,37,1,321.10000002384186,10,1,experiment,NA,NA,1,0.7,0.3,2,3,33,1,NA
fcp-trial,67,463902,0.0-42.0-0.0,voc_e2,11933,"[{""event"":""fullscreenenter"",""trial"":1,""time"":11992}]",NA,NA,NA,NA,NA,1,#741CD8,#D8271C,0,10,0,38,1,2855.5,39,0,1421.100000023842,10,1,experiment,NA,NA,0,0.1,0.9,1,0,34,1,NA
fcp-trial,68,466669,0.0-43.0-0.0,voc_e2,11933,"[{""event"":""fullscreenenter"",""trial"":1,""time"":11992}]",NA,NA,NA,NA,NA,6,#741CD8,#D8271C,0,10,0,38,1,930.5,39,0,325,10,1,experiment,NA,NA,0,0.1,0.9,1,0,35,1,NA
fcp-trial,69,469424,0.0-44.0-0.0,voc_e2,11933,"[{""event"":""fullscreenenter"",""trial"":1,""time"":11992}]",NA,NA,NA,NA,NA,6,#FA92F8,#1CD855,0,0,0,38,1,916.2000000476837,39,0,330.10000002384186,0,1,experiment,NA,NA,2,0.5,0.5,5,4,36,1,NA
fcp-trial,70,472637,0.0-45.0-0.0,voc_e2,11933,"[{""event"":""fullscreenenter"",""trial"":1,""time"":11992}]",NA,NA,NA,NA,NA,2,#D89F1C,#3386FF,0,10,0,38,1,1383.2000000476837,39,0,305.5,10,1,experiment,NA,NA,1,0.3,0.7,3,2,37,1,NA
fcp-trial,71,475745,0.0-46.0-0.0,voc_e2,11933,"[{""event"":""fullscreenenter"",""trial"":1,""time"":11992}]",NA,NA,NA,NA,NA,1,#D89F1C,#3386FF,0,10,0,38,1,1291.6999999284744,39,0,303.1999999284744,10,1,experiment,NA,NA,1,0.3,0.7,3,2,38,1,NA
fcp-trial,72,479736,0.0-47.0-0.0,voc_e2,11933,"[{""event"":""fullscreenenter"",""trial"":1,""time"":11992}]",NA,NA,NA,NA,NA,4,#1CD855,#FA92F8,10,0,1,40,0,1896.6000000238419,37,1,581.5,10,1,experiment,NA,NA,2,0.5,0.5,4,5,39,1,NA
fcp-trial,73,482920,0.0-48.0-0.0,voc_e2,11933,"[{""event"":""fullscreenenter"",""trial"":1,""time"":11992}]",NA,NA,NA,NA,NA,4,#741CD8,#D8271C,0,10,0,40,0,1182,39,0,491.10000002384186,10,1,experiment,NA,NA,0,0.1,0.9,1,0,40,1,NA
fcp-trial,74,486325,0.0-49.0-0.0,voc_e2,11933,"[{""event"":""fullscreenenter"",""trial"":1,""time"":11992}]",NA,NA,NA,NA,NA,4,#D89F1C,#3386FF,0,10,0,40,0,1490.8999999761581,39,0,404.39999997615814,10,1,experiment,NA,NA,1,0.3,0.7,3,2,41,1,NA
fcp-trial,75,489376,0.0-50.0-0.0,voc_e2,11933,"[{""event"":""fullscreenenter"",""trial"":1,""time"":11992}]",NA,NA,NA,NA,NA,3,#741CD8,#D8271C,0,10,0,40,0,945.1000000238419,39,0,599.1000000238419,10,1,experiment,NA,NA,0,0.1,0.9,1,0,42,1,NA
fcp-trial,76,492627,0.0-51.0-0.0,voc_e2,11933,"[{""event"":""fullscreenenter"",""trial"":1,""time"":11992}]",NA,NA,NA,NA,NA,2,#D89F1C,#3386FF,0,0,0,40,0,1181.7000000476837,37,1,561.3000000715256,0,0,experiment,NA,NA,1,0.3,0.7,3,2,43,1,NA
fcp-trial,77,495540,0.0-52.0-0.0,voc_e2,11933,"[{""event"":""fullscreenenter"",""trial"":1,""time"":11992}]",NA,NA,NA,NA,NA,0,#D89F1C,#3386FF,0,10,0,38,1,1013.7000000476837,39,0,391.2999999523163,10,1,experiment,NA,NA,1,0.3,0.7,3,2,44,1,NA
fcp-trial,78,500236,0.0-53.0-0.0,voc_e2,11933,"[{""event"":""fullscreenenter"",""trial"":1,""time"":11992}]",NA,NA,NA,NA,NA,6,#D8271C,#741CD8,10,0,1,40,0,2735.5,39,0,439.5,0,0,experiment,NA,NA,0,0.9,0.1,0,1,45,1,NA
fcp-trial,79,503076,0.0-54.0-0.0,voc_e2,11933,"[{""event"":""fullscreenenter"",""trial"":1,""time"":11992}]",NA,NA,NA,NA,NA,1,#3386FF,#D89F1C,10,10,1,38,1,1040.2000000476837,37,1,285.40000009536743,10,1,experiment,NA,NA,1,0.7,0.3,2,3,46,2,NA
fcp-trial,80,505888,0.0-55.0-0.0,voc_e2,11933,"[{""event"":""fullscreenenter"",""trial"":1,""time"":11992}]",NA,NA,NA,NA,NA,1,#741CD8,#D8271C,10,10,0,38,1,923.5,39,0,376.2999999523163,10,1,experiment,NA,NA,0,0.1,0.9,1,0,47,2,NA
fcp-trial,81,510405,0.0-56.0-0.0,voc_e2,11933,"[{""event"":""fullscreenenter"",""trial"":1,""time"":11992}]",NA,NA,NA,NA,NA,4,#1CD855,#FA92F8,0,0,1,38,1,2544,37,1,461.10000002384186,0,1,experiment,NA,NA,2,0.5,0.5,4,5,48,2,NA
fcp-trial,82,516771,0.0-57.0-0.0,voc_e2,11933,"[{""event"":""fullscreenenter"",""trial"":1,""time"":11992}]",NA,NA,NA,NA,NA,5,#741CD8,#D8271C,0,0,0,40,0,4425.600000023842,39,0,425.60000002384186,0,1,experiment,NA,NA,0,0.1,0.9,1,0,49,2,NA
fcp-trial,83,519941,0.0-58.0-0.0,voc_e2,11933,"[{""event"":""fullscreenenter"",""trial"":1,""time"":11992}]",NA,NA,NA,NA,NA,2,#741CD8,#D8271C,0,10,0,38,1,1233.1000000238419,39,0,427.90000009536743,10,1,experiment,NA,NA,0,0.1,0.9,1,0,50,2,NA
fcp-trial,84,524525,0.0-59.0-0.0,voc_e2,11933,"[{""event"":""fullscreenenter"",""trial"":1,""time"":11992}]",NA,NA,NA,NA,NA,6,#D89F1C,#3386FF,0,0,0,40,0,2422.7000000476837,37,1,647.7999999523163,0,0,experiment,NA,NA,1,0.3,0.7,3,2,51,2,NA
fcp-trial,85,531208,0.0-60.0-0.0,voc_e2,11933,"[{""event"":""fullscreenenter"",""trial"":1,""time"":11992}]",NA,NA,NA,NA,NA,0,#1CD855,#FA92F8,0,0,1,38,1,4744.5,37,1,428.7999999523163,0,1,experiment,NA,NA,2,0.5,0.5,4,5,52,2,NA
fcp-trial,86,535438,0.0-61.0-0.0,voc_e2,11933,"[{""event"":""fullscreenenter"",""trial"":1,""time"":11992}]",NA,NA,NA,NA,NA,5,#D89F1C,#3386FF,0,10,0,38,1,2172.3000000715256,39,0,547,10,1,experiment,NA,NA,1,0.3,0.7,3,2,53,2,NA
fcp-trial,87,539771,0.0-62.0-0.0,voc_e2,11933,"[{""event"":""fullscreenenter"",""trial"":1,""time"":11992}]",NA,NA,NA,NA,NA,4,#D8271C,#741CD8,10,10,1,40,0,2239.600000023842,37,1,574,10,1,experiment,NA,NA,0,0.9,0.1,0,1,54,2,NA
fcp-trial,88,543246,0.0-63.0-0.0,voc_e2,11933,"[{""event"":""fullscreenenter"",""trial"":1,""time"":11992}]",NA,NA,NA,NA,NA,3,#FA92F8,#1CD855,10,10,0,40,0,1401.1000000238419,39,0,562.3999999761581,10,1,experiment,NA,NA,2,0.5,0.5,5,4,55,2,NA
fcp-trial,89,546605,0.0-64.0-0.0,voc_e2,11933,"[{""event"":""fullscreenenter"",""trial"":1,""time"":11992}]",NA,NA,NA,NA,NA,1,#FA92F8,#1CD855,0,10,0,38,1,1551.8000000715256,39,0,292.7999999523163,10,1,experiment,NA,NA,2,0.5,0.5,5,4,56,2,NA
fcp-trial,90,550890,0.0-65.0-0.0,voc_e2,11933,"[{""event"":""fullscreenenter"",""trial"":1,""time"":11992}]",NA,NA,NA,NA,NA,4,#3386FF,#D89F1C,0,0,1,38,1,2409.5,37,1,355.40000009536743,0,1,experiment,NA,NA,1,0.7,0.3,2,3,57,2,NA
fcp-trial,91,562078,0.0-66.0-0.0,voc_e2,11933,"[{""event"":""fullscreenenter"",""trial"":1,""time"":11992}]",NA,NA,NA,NA,NA,2,#1CD855,#FA92F8,0,10,1,40,0,9181.600000023842,39,0,496.39999997615814,10,0,experiment,NA,NA,2,0.5,0.5,4,5,58,2,NA
fcp-trial,92,565676,0.0-67.0-0.0,voc_e2,11933,"[{""event"":""fullscreenenter"",""trial"":1,""time"":11992}]",NA,NA,NA,NA,NA,3,#741CD8,#D8271C,0,10,0,40,0,1656.6000000238419,39,0,430.2999999523163,10,1,experiment,NA,NA,0,0.1,0.9,1,0,59,2,NA
fcp-trial,93,569773,0.0-68.0-0.0,voc_e2,11933,"[{""event"":""fullscreenenter"",""trial"":1,""time"":11992}]",NA,NA,NA,NA,NA,5,#FA92F8,#1CD855,0,10,0,38,1,2169.5,39,0,406.7999999523163,10,1,experiment,NA,NA,2,0.5,0.5,5,4,60,2,NA
fcp-trial,94,574593,0.0-69.0-0.0,voc_e2,11933,"[{""event"":""fullscreenenter"",""trial"":1,""time"":11992}]",NA,NA,NA,NA,NA,3,#D89F1C,#3386FF,0,10,0,38,1,2079.600000023842,39,0,1232.2000000476835,10,1,experiment,NA,NA,1,0.3,0.7,3,2,61,2,NA
fcp-trial,95,588707,0.0-70.0-0.0,voc_e2,11933,"[{""event"":""fullscreenenter"",""trial"":1,""time"":11992}]",NA,NA,NA,NA,NA,6,#1CD855,#FA92F8,10,10,1,38,1,6761.200000047684,37,1,5834.899999976158,10,1,experiment,NA,NA,2,0.5,0.5,4,5,62,2,NA
fcp-trial,96,594044,0.0-71.0-0.0,voc_e2,11933,"[{""event"":""fullscreenenter"",""trial"":1,""time"":11992}]",NA,NA,NA,NA,NA,0,#D8271C,#741CD8,10,0,1,38,1,3414.1999999284744,37,1,413.10000002384186,10,1,experiment,NA,NA,0,0.9,0.1,0,1,63,2,NA
fcp-trial,97,597724,0.0-72.0-0.0,voc_e2,11933,"[{""event"":""fullscreenenter"",""trial"":1,""time"":11992}]",NA,NA,NA,NA,NA,1,#D8271C,#741CD8,10,0,1,38,1,1475.6999999284744,37,1,686.3999999761581,10,1,experiment,NA,NA,0,0.9,0.1,0,1,64,2,NA
fcp-trial,98,601611,0.0-73.0-0.0,voc_e2,11933,"[{""event"":""fullscreenenter"",""trial"":1,""time"":11992}]",NA,NA,NA,NA,NA,1,#D89F1C,#3386FF,0,10,0,38,1,2013,39,0,360.2000000476837,10,1,experiment,NA,NA,1,0.3,0.7,3,2,65,2,NA
fcp-trial,99,605159,0.0-74.0-0.0,voc_e2,11933,"[{""event"":""fullscreenenter"",""trial"":1,""time"":11992}]",NA,NA,NA,NA,NA,2,#FA92F8,#1CD855,0,0,0,38,1,1448,39,0,579.7999999523163,0,1,experiment,NA,NA,2,0.5,0.5,5,4,66,2,NA
fcp-trial,100,608441,0.0-75.0-0.0,voc_e2,11933,"[{""event"":""fullscreenenter"",""trial"":1,""time"":11992}]",NA,NA,NA,NA,NA,0,#D89F1C,#3386FF,10,10,0,38,1,1463.3999999761581,39,0,304.1999999284744,10,1,experiment,NA,NA,1,0.3,0.7,3,2,67,2,NA
fcp-trial,101,611608,0.0-76.0-0.0,voc_e2,11933,"[{""event"":""fullscreenenter"",""trial"":1,""time"":11992}]",NA,NA,NA,NA,NA,5,#D8271C,#741CD8,10,0,1,40,0,1244.8999999761581,39,0,411.90000009536743,0,0,experiment,NA,NA,0,0.9,0.1,0,1,68,2,NA
fcp-trial,102,615843,0.0-77.0-0.0,voc_e2,11933,"[{""event"":""fullscreenenter"",""trial"":1,""time"":11992}]",NA,NA,NA,NA,NA,6,#741CD8,#D8271C,0,10,0,40,0,1398.3999999761581,37,1,1319.2000000476835,0,0,experiment,NA,NA,0,0.1,0.9,1,0,69,2,NA
fcp-trial,103,620641,0.0-78.0-0.0,voc_e2,11933,"[{""event"":""fullscreenenter"",""trial"":1,""time"":11992}]",NA,NA,NA,NA,NA,5,#3386FF,#D89F1C,10,10,1,38,1,2938.1999999284744,37,1,338.7999999523163,10,1,experiment,NA,NA,1,0.7,0.3,2,3,70,2,NA
fcp-trial,104,624709,0.0-79.0-0.0,voc_e2,11933,"[{""event"":""fullscreenenter"",""trial"":1,""time"":11992}]",NA,NA,NA,NA,NA,1,#1CD855,#FA92F8,10,10,1,38,1,1740.3999999761581,37,1,815.6000000238419,10,1,experiment,NA,NA,2,0.5,0.5,4,5,71,2,NA
fcp-trial,105,628393,0.0-80.0-0.0,voc_e2,11933,"[{""event"":""fullscreenenter"",""trial"":1,""time"":11992}]",NA,NA,NA,NA,NA,2,#D8271C,#741CD8,10,0,1,38,1,1866,37,1,304.39999997615814,10,1,experiment,NA,NA,0,0.9,0.1,0,1,72,2,NA
fcp-trial,106,632179,0.0-81.0-0.0,voc_e2,11933,"[{""event"":""fullscreenenter"",""trial"":1,""time"":11992}]",NA,NA,NA,NA,NA,6,#FA92F8,#1CD855,10,10,0,38,1,1538.2000000476837,39,0,732.1000000238419,10,1,experiment,NA,NA,2,0.5,0.5,5,4,73,2,NA
fcp-trial,107,635863,0.0-82.0-0.0,voc_e2,11933,"[{""event"":""fullscreenenter"",""trial"":1,""time"":11992}]",NA,NA,NA,NA,NA,2,#D89F1C,#3386FF,0,10,0,38,1,1519.6000000238419,39,0,649.1999999284744,10,1,experiment,NA,NA,1,0.3,0.7,3,2,74,2,NA
fcp-trial,108,647194,0.0-83.0-0.0,voc_e2,11933,"[{""event"":""fullscreenenter"",""trial"":1,""time"":11992}]",NA,NA,NA,NA,NA,5,#1CD855,#FA92F8,10,0,1,40,0,9217.799999952316,37,1,597.2000000476837,10,1,experiment,NA,NA,2,0.5,0.5,4,5,75,2,NA
fcp-trial,109,650263,0.0-84.0-0.0,voc_e2,11933,"[{""event"":""fullscreenenter"",""trial"":1,""time"":11992}]",NA,NA,NA,NA,NA,4,#741CD8,#D8271C,0,10,0,38,1,926.4000000953674,39,0,632,10,1,experiment,NA,NA,0,0.1,0.9,1,0,76,2,NA
fcp-trial,110,654133,0.0-85.0-0.0,voc_e2,11933,"[{""event"":""fullscreenenter"",""trial"":1,""time"":11992}]",NA,NA,NA,NA,NA,0,#FA92F8,#1CD855,10,0,0,38,1,1553.2999999523163,39,0,803.1000000238419,0,1,experiment,NA,NA,2,0.5,0.5,5,4,77,2,NA
fcp-trial,111,657377,0.0-86.0-0.0,voc_e2,11933,"[{""event"":""fullscreenenter"",""trial"":1,""time"":11992}]",NA,NA,NA,NA,NA,3,#1CD855,#FA92F8,0,0,1,38,1,1165.3999999761581,37,1,568.7999999523163,0,1,experiment,NA,NA,2,0.5,0.5,4,5,78,2,NA
fcp-trial,112,660766,0.0-87.0-0.0,voc_e2,11933,"[{""event"":""fullscreenenter"",""trial"":1,""time"":11992}]",NA,NA,NA,NA,NA,3,#D89F1C,#3386FF,10,10,0,38,1,1585.8999999761581,39,0,292.3000000715256,10,1,experiment,NA,NA,1,0.3,0.7,3,2,79,2,NA
fcp-trial,113,665116,0.0-88.0-0.0,voc_e2,11933,"[{""event"":""fullscreenenter"",""trial"":1,""time"":11992}]",NA,NA,NA,NA,NA,3,#D8271C,#741CD8,0,0,1,38,1,2241.600000023842,37,1,601.0999999046326,0,1,experiment,NA,NA,0,0.9,0.1,0,1,80,2,NA
fcp-trial,114,668528,0.0-89.0-0.0,voc_e2,11933,"[{""event"":""fullscreenenter"",""trial"":1,""time"":11992}]",NA,NA,NA,NA,NA,4,#1CD855,#FA92F8,10,0,1,40,0,1347.7999999523163,37,1,540.3999999761581,10,1,experiment,NA,NA,2,0.5,0.5,4,5,81,2,NA
fcp-trial,115,672329,0.0-90.0-0.0,voc_e2,11933,"[{""event"":""fullscreenenter"",""trial"":1,""time"":11992}]",NA,NA,NA,NA,NA,4,#D89F1C,#3386FF,0,10,0,38,1,2014.6999999284744,39,0,268.8000000715256,10,1,experiment,NA,NA,1,0.3,0.7,3,2,82,2,NA
fcp-trial,116,674829,0.0-91.0-0.0,voc_e2,11933,"[{""event"":""fullscreenenter"",""trial"":1,""time"":11992}]",NA,NA,NA,NA,NA,6,#D89F1C,#3386FF,0,10,0,38,1,710.7999999523163,39,0,275.09999990463257,10,1,experiment,NA,NA,1,0.3,0.7,3,2,83,2,NA
fcp-trial,117,679061,0.0-92.0-0.0,voc_e2,11933,"[{""event"":""fullscreenenter"",""trial"":1,""time"":11992}]",NA,NA,NA,NA,NA,0,#D8271C,#741CD8,10,0,1,38,1,2336.5,37,1,375.60000002384186,10,1,experiment,NA,NA,0,0.9,0.1,0,1,84,2,NA
fcp-trial,118,682730,0.0-93.0-0.0,voc_e2,11933,"[{""event"":""fullscreenenter"",""trial"":1,""time"":11992}]",NA,NA,NA,NA,NA,6,#1CD855,#FA92F8,10,10,1,40,0,1653.8999999761581,39,0,499.1999999284744,10,0,experiment,NA,NA,2,0.5,0.5,4,5,85,2,NA
fcp-trial,119,686579,0.0-94.0-0.0,voc_e2,11933,"[{""event"":""fullscreenenter"",""trial"":1,""time"":11992}]",NA,NA,NA,NA,NA,6,#3386FF,#D89F1C,10,0,1,38,1,1960.1000000238419,37,1,376,10,1,experiment,NA,NA,1,0.7,0.3,2,3,86,2,NA
fcp-trial,120,693995,0.0-95.0-0.0,voc_e2,11933,"[{""event"":""fullscreenenter"",""trial"":1,""time"":11992}]",NA,NA,NA,NA,NA,0,#FA92F8,#1CD855,10,0,0,38,1,3355.100000023842,39,0,2546.5,0,1,experiment,NA,NA,2,0.5,0.5,5,4,87,2,NA
fcp-trial,121,699935,0.0-96.0-0.0,voc_e2,11933,"[{""event"":""fullscreenenter"",""trial"":1,""time"":11992}]",NA,NA,NA,NA,NA,4,#1CD855,#FA92F8,0,0,1,40,0,3080.7999999523163,37,1,1352.6999999284744,0,1,experiment,NA,NA,2,0.5,0.5,4,5,88,2,NA
fcp-trial,122,704537,0.0-97.0-0.0,voc_e2,11933,"[{""event"":""fullscreenenter"",""trial"":1,""time"":11992}]",NA,NA,NA,NA,NA,4,#741CD8,#D8271C,0,10,0,38,1,2157.3000000715256,39,0,937.2000000476836,10,1,experiment,NA,NA,0,0.1,0.9,1,0,89,2,NA
fcp-trial,123,707729,0.0-98.0-0.0,voc_e2,11933,"[{""event"":""fullscreenenter"",""trial"":1,""time"":11992}]",NA,NA,NA,NA,NA,2,#D89F1C,#3386FF,0,10,0,38,1,1028.1000000238419,39,0,645.1000000238419,10,1,experiment,NA,NA,1,0.3,0.7,3,2,90,2,NA
fcp-trial,124,712322,0.0-99.0-0.0,voc_e2,11933,"[{""event"":""fullscreenenter"",""trial"":1,""time"":11992}]",NA,NA,NA,NA,NA,3,#D8271C,#741CD8,10,0,1,38,1,1423.1999999284744,37,1,1653.600000023842,10,1,experiment,NA,NA,0,0.9,0.1,0,1,91,3,NA
fcp-trial,125,716063,0.0-100.0-0.0,voc_e2,11933,"[{""event"":""fullscreenenter"",""trial"":1,""time"":11992}]",NA,NA,NA,NA,NA,1,#FA92F8,#1CD855,10,0,0,40,0,1611.6000000238419,39,0,608.1999999284744,0,1,experiment,NA,NA,2,0.5,0.5,5,4,92,3,NA
fcp-trial,126,719383,0.0-101.0-0.0,voc_e2,11933,"[{""event"":""fullscreenenter"",""trial"":1,""time"":11992}]",NA,NA,NA,NA,NA,4,#3386FF,#D89F1C,10,0,1,38,1,1070.8999999761581,37,1,739.5,10,1,experiment,NA,NA,1,0.7,0.3,2,3,93,3,NA
fcp-trial,127,722197,0.0-102.0-0.0,voc_e2,11933,"[{""event"":""fullscreenenter"",""trial"":1,""time"":11992}]",NA,NA,NA,NA,NA,5,#1CD855,#FA92F8,0,0,1,38,1,905.2999999523163,39,0,389.7999999523163,0,0,experiment,NA,NA,2,0.5,0.5,4,5,94,3,NA
fcp-trial,128,726866,0.0-103.0-0.0,voc_e2,11933,"[{""event"":""fullscreenenter"",""trial"":1,""time"":11992}]",NA,NA,NA,NA,NA,3,#3386FF,#D89F1C,10,0,1,38,1,2733.1999999284744,37,1,426.8000000715256,10,1,experiment,NA,NA,1,0.7,0.3,2,3,95,3,NA
fcp-trial,129,730270,0.0-104.0-0.0,voc_e2,11933,"[{""event"":""fullscreenenter"",""trial"":1,""time"":11992}]",NA,NA,NA,NA,NA,2,#D8271C,#741CD8,10,0,1,38,1,1538.6999999284744,37,1,352.39999997615814,10,1,experiment,NA,NA,0,0.9,0.1,0,1,96,3,NA
fcp-trial,130,733784,0.0-105.0-0.0,voc_e2,11933,"[{""event"":""fullscreenenter"",""trial"":1,""time"":11992}]",NA,NA,NA,NA,NA,2,#FA92F8,#1CD855,0,10,0,40,0,1202.2999999523163,37,1,800.1000000238419,0,0,experiment,NA,NA,2,0.5,0.5,5,4,97,3,NA
fcp-trial,131,736906,0.0-106.0-0.0,voc_e2,11933,"[{""event"":""fullscreenenter"",""trial"":1,""time"":11992}]",NA,NA,NA,NA,NA,6,#D8271C,#741CD8,10,0,1,38,1,1303.5,37,1,303.7999999523163,10,1,experiment,NA,NA,0,0.9,0.1,0,1,98,3,NA
fcp-trial,132,739955,0.0-107.0-0.0,voc_e2,11933,"[{""event"":""fullscreenenter"",""trial"":1,""time"":11992}]",NA,NA,NA,NA,NA,1,#3386FF,#D89F1C,0,10,1,38,1,1176.7000000476837,37,1,365.10000002384186,0,1,experiment,NA,NA,1,0.7,0.3,2,3,99,3,NA
fcp-trial,133,743131,0.0-108.0-0.0,voc_e2,11933,"[{""event"":""fullscreenenter"",""trial"":1,""time"":11992}]",NA,NA,NA,NA,NA,5,#3386FF,#D89F1C,10,10,1,38,1,1299.1000000238419,37,1,354,10,1,experiment,NA,NA,1,0.7,0.3,2,3,100,3,NA
fcp-trial,134,746170,0.0-109.0-0.0,voc_e2,11933,"[{""event"":""fullscreenenter"",""trial"":1,""time"":11992}]",NA,NA,NA,NA,NA,0,#D8271C,#741CD8,10,0,1,38,1,1234.7999999523163,37,1,294.60000002384186,10,1,experiment,NA,NA,0,0.9,0.1,0,1,101,3,NA
fcp-trial,135,749953,0.0-110.0-0.0,voc_e2,11933,"[{""event"":""fullscreenenter"",""trial"":1,""time"":11992}]",NA,NA,NA,NA,NA,3,#FA92F8,#1CD855,0,10,0,40,0,1727.5999999046326,37,1,548.1999999284744,0,0,experiment,NA,NA,2,0.5,0.5,5,4,102,3,NA
fcp-trial,136,754203,0.0-111.0-0.0,voc_e2,11933,"[{""event"":""fullscreenenter"",""trial"":1,""time"":11992}]",NA,NA,NA,NA,NA,1,#D8271C,#741CD8,10,0,1,38,1,2264.100000023842,37,1,476.7999999523163,10,1,experiment,NA,NA,0,0.9,0.1,0,1,103,3,NA
fcp-trial,137,757217,0.0-112.0-0.0,voc_e2,11933,"[{""event"":""fullscreenenter"",""trial"":1,""time"":11992}]",NA,NA,NA,NA,NA,0,#D89F1C,#3386FF,0,10,0,38,1,1079.5,39,0,426.90000009536743,10,1,experiment,NA,NA,1,0.3,0.7,3,2,104,3,NA
fcp-trial,138,760333,0.0-113.0-0.0,voc_e2,11933,"[{""event"":""fullscreenenter"",""trial"":1,""time"":11992}]",NA,NA,NA,NA,NA,5,#741CD8,#D8271C,0,10,0,38,1,1107.5999999046326,39,0,495,10,1,experiment,NA,NA,0,0.1,0.9,1,0,105,3,NA
audio-instructions,139,766031,0.0-114.0,voc_e2,11933,"[{""event"":""fullscreenenter"",""trial"":1,""time"":11992}]",NA,1124.0999999046326,static/audio/pause.wav,NA,0,NA,NA,NA,NA,NA,NA,NA,NA,NA,NA,NA,NA,NA,NA,NA,NA,NA,NA,NA,NA,NA,NA,NA,NA,NA
fcp-trial,140,769651,0.0-115.0-0.0,voc_e2,11933,"[{""event"":""fullscreenenter"",""trial"":1,""time"":11992}]",NA,NA,NA,NA,NA,1,#741CD8,#D8271C,0,10,0,38,1,1525.3999999761581,39,0,568.6000000238419,10,1,experiment,NA,NA,0,0.1,0.9,1,0,106,3,NA
fcp-trial,141,772317,0.0-116.0-0.0,voc_e2,11933,"[{""event"":""fullscreenenter"",""trial"":1,""time"":11992}]",NA,NA,NA,NA,NA,5,#3386FF,#D89F1C,0,10,1,38,1,855,37,1,292.3000000715256,0,1,experiment,NA,NA,1,0.7,0.3,2,3,107,3,NA
fcp-trial,142,775054,0.0-117.0-0.0,voc_e2,11933,"[{""event"":""fullscreenenter"",""trial"":1,""time"":11992}]",NA,NA,NA,NA,NA,4,#D89F1C,#3386FF,10,10,0,38,1,880.6999999284744,39,0,335.89999997615814,10,1,experiment,NA,NA,1,0.3,0.7,3,2,108,3,NA
fcp-trial,143,777602,0.0-118.0-0.0,voc_e2,11933,"[{""event"":""fullscreenenter"",""trial"":1,""time"":11992}]",NA,NA,NA,NA,NA,5,#D8271C,#741CD8,10,0,1,38,1,634.0999999046326,37,1,387.2999999523163,10,1,experiment,NA,NA,0,0.9,0.1,0,1,109,3,NA
fcp-trial,144,780285,0.0-119.0-0.0,voc_e2,11933,"[{""event"":""fullscreenenter"",""trial"":1,""time"":11992}]",NA,NA,NA,NA,NA,2,#3386FF,#D89F1C,10,0,1,38,1,634.2000000476837,37,1,527.1999999284744,10,1,experiment,NA,NA,1,0.7,0.3,2,3,110,3,NA
fcp-trial,145,783336,0.0-120.0-0.0,voc_e2,11933,"[{""event"":""fullscreenenter"",""trial"":1,""time"":11992}]",NA,NA,NA,NA,NA,3,#1CD855,#FA92F8,10,10,1,40,0,1088.7000000476837,39,0,440.59999990463257,10,0,experiment,NA,NA,2,0.5,0.5,4,5,111,3,NA
fcp-trial,146,786169,0.0-121.0-0.0,voc_e2,11933,"[{""event"":""fullscreenenter"",""trial"":1,""time"":11992}]",NA,NA,NA,NA,NA,6,#FA92F8,#1CD855,10,10,0,40,0,811.8999999761581,39,0,500.10000002384186,10,1,experiment,NA,NA,2,0.5,0.5,5,4,112,3,NA
fcp-trial,147,788637,0.0-122.0-0.0,voc_e2,11933,"[{""event"":""fullscreenenter"",""trial"":1,""time"":11992}]",NA,NA,NA,NA,NA,6,#D8271C,#741CD8,10,10,1,38,1,647.5,37,1,286.89999997615814,10,1,experiment,NA,NA,0,0.9,0.1,0,1,113,3,NA
fcp-trial,148,791636,0.0-123.0-0.0,voc_e2,11933,"[{""event"":""fullscreenenter"",""trial"":1,""time"":11992}]",NA,NA,NA,NA,NA,1,#1CD855,#FA92F8,10,0,1,40,0,1028.1999999284744,39,0,449.7999999523163,0,0,experiment,NA,NA,2,0.5,0.5,4,5,114,3,NA
fcp-trial,149,794169,0.0-124.0-0.0,voc_e2,11933,"[{""event"":""fullscreenenter"",""trial"":1,""time"":11992}]",NA,NA,NA,NA,NA,1,#D89F1C,#3386FF,0,10,0,38,1,611.2999999523163,39,0,390.5,10,1,experiment,NA,NA,1,0.3,0.7,3,2,115,3,NA
fcp-trial,150,796540,0.0-125.0-0.0,voc_e2,11933,"[{""event"":""fullscreenenter"",""trial"":1,""time"":11992}]",NA,NA,NA,NA,NA,6,#3386FF,#D89F1C,10,10,1,38,1,583.5,37,1,276.10000002384186,10,1,experiment,NA,NA,1,0.7,0.3,2,3,116,3,NA
fcp-trial,151,799949,0.0-126.0-0.0,voc_e2,11933,"[{""event"":""fullscreenenter"",""trial"":1,""time"":11992}]",NA,NA,NA,NA,NA,2,#D8271C,#741CD8,10,0,1,38,1,1297,37,1,596.7000000476837,10,1,experiment,NA,NA,0,0.9,0.1,0,1,117,3,NA
fcp-trial,152,802968,0.0-127.0-0.0,voc_e2,11933,"[{""event"":""fullscreenenter"",""trial"":1,""time"":11992}]",NA,NA,NA,NA,NA,2,#1CD855,#FA92F8,10,10,1,40,0,1123.3999999761581,39,0,373.7999999523163,10,0,experiment,NA,NA,2,0.5,0.5,4,5,118,3,NA
fcp-trial,153,805999,0.0-128.0-0.0,voc_e2,11933,"[{""event"":""fullscreenenter"",""trial"":1,""time"":11992}]",NA,NA,NA,NA,NA,3,#741CD8,#D8271C,0,10,0,38,1,921.1000000238419,39,0,595,10,1,experiment,NA,NA,0,0.1,0.9,1,0,119,3,NA
fcp-trial,154,808500,0.0-129.0-0.0,voc_e2,11933,"[{""event"":""fullscreenenter"",""trial"":1,""time"":11992}]",NA,NA,NA,NA,NA,3,#D89F1C,#3386FF,0,10,0,38,1,564.1000000238419,39,0,422.5,10,1,experiment,NA,NA,1,0.3,0.7,3,2,120,3,NA
fcp-trial,155,811449,0.0-130.0-0.0,voc_e2,11933,"[{""event"":""fullscreenenter"",""trial"":1,""time"":11992}]",NA,NA,NA,NA,NA,4,#FA92F8,#1CD855,10,0,0,40,0,989.3000000715256,39,0,440.2000000476837,0,1,experiment,NA,NA,2,0.5,0.5,5,4,121,3,NA
fcp-trial,156,814134,0.0-131.0-0.0,voc_e2,11933,"[{""event"":""fullscreenenter"",""trial"":1,""time"":11992}]",NA,NA,NA,NA,NA,4,#D8271C,#741CD8,10,0,1,38,1,863.3999999761581,37,1,312.40000009536743,10,1,experiment,NA,NA,0,0.9,0.1,0,1,122,3,NA
fcp-trial,157,816934,0.0-132.0-0.0,voc_e2,11933,"[{""event"":""fullscreenenter"",""trial"":1,""time"":11992}]",NA,NA,NA,NA,NA,5,#1CD855,#FA92F8,10,10,1,40,0,941.0999999046326,39,0,338.89999997615814,10,0,experiment,NA,NA,2,0.5,0.5,4,5,123,3,NA
fcp-trial,158,820867,0.0-133.0-0.0,voc_e2,11933,"[{""event"":""fullscreenenter"",""trial"":1,""time"":11992}]",NA,NA,NA,NA,NA,0,#FA92F8,#1CD855,10,0,0,38,1,1819.3000000715256,37,1,602.7999999523163,10,0,experiment,NA,NA,2,0.5,0.5,5,4,124,3,NA
fcp-trial,159,825267,0.0-134.0-0.0,voc_e2,11933,"[{""event"":""fullscreenenter"",""trial"":1,""time"":11992}]",NA,NA,NA,NA,NA,0,#D89F1C,#3386FF,0,10,0,38,1,2172.7000000476837,39,0,713,10,1,experiment,NA,NA,1,0.3,0.7,3,2,125,3,NA
fcp-trial,160,828001,0.0-135.0-0.0,voc_e2,11933,"[{""event"":""fullscreenenter"",""trial"":1,""time"":11992}]",NA,NA,NA,NA,NA,0,#D8271C,#741CD8,10,0,1,40,0,921.5,37,1,296.10000002384186,10,1,experiment,NA,NA,0,0.9,0.1,0,1,126,3,NA
fcp-trial,161,834801,0.0-136.0-0.0,voc_e2,11933,"[{""event"":""fullscreenenter"",""trial"":1,""time"":11992}]",NA,NA,NA,NA,NA,0,#D89F1C,#3386FF,0,0,0,38,1,4242.5,39,0,1041.2000000476835,0,1,experiment,NA,NA,1,0.3,0.7,3,2,127,3,NA
fcp-trial,162,838351,0.0-137.0-0.0,voc_e2,11933,"[{""event"":""fullscreenenter"",""trial"":1,""time"":11992}]",NA,NA,NA,NA,NA,5,#1CD855,#FA92F8,0,0,1,40,0,1071.1000000238419,37,1,954.100000023842,0,1,experiment,NA,NA,2,0.5,0.5,4,5,128,3,NA
fcp-trial,163,841407,0.0-138.0-0.0,voc_e2,11933,"[{""event"":""fullscreenenter"",""trial"":1,""time"":11992}]",NA,NA,NA,NA,NA,1,#1CD855,#FA92F8,10,10,1,38,1,928.0999999046326,39,0,616,10,0,experiment,NA,NA,2,0.5,0.5,4,5,129,3,NA
fcp-trial,164,844609,0.0-139.0-0.0,voc_e2,11933,"[{""event"":""fullscreenenter"",""trial"":1,""time"":11992}]",NA,NA,NA,NA,NA,2,#D89F1C,#3386FF,0,10,0,38,1,1119.1000000238419,39,0,569.8000000715256,10,1,experiment,NA,NA,1,0.3,0.7,3,2,130,3,NA
fcp-trial,165,847339,0.0-140.0-0.0,voc_e2,11933,"[{""event"":""fullscreenenter"",""trial"":1,""time"":11992}]",NA,NA,NA,NA,NA,6,#741CD8,#D8271C,0,10,0,38,1,738.1000000238419,39,0,480.1999999284744,10,1,experiment,NA,NA,0,0.1,0.9,1,0,131,3,NA
fcp-trial,166,850385,0.0-141.0-0.0,voc_e2,11933,"[{""event"":""fullscreenenter"",""trial"":1,""time"":11992}]",NA,NA,NA,NA,NA,2,#FA92F8,#1CD855,0,10,0,38,1,1070.7000000476837,37,1,459.39999997615814,0,0,experiment,NA,NA,2,0.5,0.5,5,4,132,3,NA
fcp-trial,167,853489,0.0-142.0-0.0,voc_e2,11933,"[{""event"":""fullscreenenter"",""trial"":1,""time"":11992}]",NA,NA,NA,NA,NA,5,#741CD8,#D8271C,10,10,0,38,1,1198.5999999046326,39,0,393.39999997615814,10,1,experiment,NA,NA,0,0.1,0.9,1,0,133,3,NA
fcp-trial,168,856675,0.0-143.0-0.0,voc_e2,11933,"[{""event"":""fullscreenenter"",""trial"":1,""time"":11992}]",NA,NA,NA,NA,NA,3,#1CD855,#FA92F8,10,0,1,40,0,1057.3999999761581,39,0,617.1000000238419,0,0,experiment,NA,NA,2,0.5,0.5,4,5,134,3,NA
fcp-trial,169,859402,0.0-144.0-0.0,voc_e2,11933,"[{""event"":""fullscreenenter"",""trial"":1,""time"":11992}]",NA,NA,NA,NA,NA,5,#3386FF,#D89F1C,10,0,1,38,1,684.7999999523163,37,1,520.1999999284744,10,1,experiment,NA,NA,1,0.7,0.3,2,3,135,3,NA
fcp-trial,170,863319,0.0-145.0-0.0,voc_e2,11933,"[{""event"":""fullscreenenter"",""trial"":1,""time"":11992}]",NA,NA,NA,NA,NA,0,#741CD8,#D8271C,0,10,0,38,1,1979.3000000715256,39,0,425.7000000476837,10,1,experiment,NA,NA,0,0.1,0.9,1,0,136,4,NA
fcp-trial,171,867352,0.0-146.0-0.0,voc_e2,11933,"[{""event"":""fullscreenenter"",""trial"":1,""time"":11992}]",NA,NA,NA,NA,NA,4,#1CD855,#FA92F8,0,10,1,40,0,2134.2999999523163,39,0,378.8000000715256,10,0,experiment,NA,NA,2,0.5,0.5,4,5,137,4,NA
fcp-trial,172,869975,0.0-147.0-0.0,voc_e2,11933,"[{""event"":""fullscreenenter"",""trial"":1,""time"":11992}]",NA,NA,NA,NA,NA,6,#D89F1C,#3386FF,10,10,0,38,1,687.6000000238419,39,0,427.39999997615814,10,1,experiment,NA,NA,1,0.3,0.7,3,2,138,4,NA
fcp-trial,173,873284,0.0-148.0-0.0,voc_e2,11933,"[{""event"":""fullscreenenter"",""trial"":1,""time"":11992}]",NA,NA,NA,NA,NA,6,#1CD855,#FA92F8,0,0,1,40,0,1272.2999999523163,37,1,524.3999999761581,0,1,experiment,NA,NA,2,0.5,0.5,4,5,139,4,NA
fcp-trial,174,876178,0.0-149.0-0.0,voc_e2,11933,"[{""event"":""fullscreenenter"",""trial"":1,""time"":11992}]",NA,NA,NA,NA,NA,1,#D89F1C,#3386FF,0,10,0,38,1,923.2999999523163,39,0,456.7000000476837,10,1,experiment,NA,NA,1,0.3,0.7,3,2,140,4,NA
fcp-trial,175,879386,0.0-150.0-0.0,voc_e2,11933,"[{""event"":""fullscreenenter"",""trial"":1,""time"":11992}]",NA,NA,NA,NA,NA,2,#741CD8,#D8271C,10,10,0,38,1,1285.1999999284744,39,0,407.1999999284744,10,1,experiment,NA,NA,0,0.1,0.9,1,0,141,4,NA
fcp-trial,176,882002,0.0-151.0-0.0,voc_e2,11933,"[{""event"":""fullscreenenter"",""trial"":1,""time"":11992}]",NA,NA,NA,NA,NA,4,#741CD8,#D8271C,0,10,0,38,1,709.6999999284744,39,0,394.60000002384186,10,1,experiment,NA,NA,0,0.1,0.9,1,0,142,4,NA
fcp-trial,177,888837,0.0-152.0-0.0,voc_e2,11933,"[{""event"":""fullscreenenter"",""trial"":1,""time"":11992}]",NA,NA,NA,NA,NA,4,#3386FF,#D89F1C,10,0,1,38,1,4738,37,1,587.1000000238419,10,1,experiment,NA,NA,1,0.7,0.3,2,3,143,4,NA
fcp-trial,178,891770,0.0-153.0-0.0,voc_e2,11933,"[{""event"":""fullscreenenter"",""trial"":1,""time"":11992}]",NA,NA,NA,NA,NA,0,#1CD855,#FA92F8,10,0,1,38,1,1108.6000000238419,39,0,307.7999999523163,0,0,experiment,NA,NA,2,0.5,0.5,4,5,144,4,NA
fcp-trial,179,896353,0.0-154.0-0.0,voc_e2,11933,"[{""event"":""fullscreenenter"",""trial"":1,""time"":11992}]",NA,NA,NA,NA,NA,3,#741CD8,#D8271C,0,10,0,38,1,2605.399999976158,39,0,457.39999997615814,10,1,experiment,NA,NA,0,0.1,0.9,1,0,145,4,NA
fcp-trial,180,902185,0.0-155.0-0.0,voc_e2,11933,"[{""event"":""fullscreenenter"",""trial"":1,""time"":11992}]",NA,NA,NA,NA,NA,3,#D89F1C,#3386FF,0,10,0,38,1,3949.399999976158,39,0,372.7999999523163,10,1,experiment,NA,NA,1,0.3,0.7,3,2,146,4,NA
fcp-trial,181,905957,0.0-156.0-0.0,voc_e2,11933,"[{""event"":""fullscreenenter"",""trial"":1,""time"":11992}]",NA,NA,NA,NA,NA,1,#D8271C,#741CD8,10,0,1,38,1,1835.7000000476837,37,1,427.5,10,1,experiment,NA,NA,0,0.9,0.1,0,1,147,4,NA
fcp-trial,182,908870,0.0-157.0-0.0,voc_e2,11933,"[{""event"":""fullscreenenter"",""trial"":1,""time"":11992}]",NA,NA,NA,NA,NA,5,#D8271C,#741CD8,10,0,1,38,1,1035.5,37,1,357.60000002384186,10,1,experiment,NA,NA,0,0.9,0.1,0,1,148,4,NA
fcp-trial,183,911588,0.0-158.0-0.0,voc_e2,11933,"[{""event"":""fullscreenenter"",""trial"":1,""time"":11992}]",NA,NA,NA,NA,NA,3,#741CD8,#D8271C,0,10,0,38,1,675.8999999761581,39,0,529.5,10,1,experiment,NA,NA,0,0.1,0.9,1,0,149,4,NA
fcp-trial,184,914337,0.0-159.0-0.0,voc_e2,11933,"[{""event"":""fullscreenenter"",""trial"":1,""time"":11992}]",NA,NA,NA,NA,NA,6,#D8271C,#741CD8,10,0,1,38,1,733.2000000476837,37,1,496.60000002384186,10,1,experiment,NA,NA,0,0.9,0.1,0,1,150,4,NA
fcp-trial,185,917441,0.0-160.0-0.0,voc_e2,11933,"[{""event"":""fullscreenenter"",""trial"":1,""time"":11992}]",NA,NA,NA,NA,NA,5,#D89F1C,#3386FF,10,10,0,38,1,1133.5,39,0,458.2999999523163,10,1,experiment,NA,NA,1,0.3,0.7,3,2,151,4,NA
fcp-trial,186,920186,0.0-161.0-0.0,voc_e2,11933,"[{""event"":""fullscreenenter"",""trial"":1,""time"":11992}]",NA,NA,NA,NA,NA,2,#741CD8,#D8271C,0,10,0,38,1,836,39,0,390.39999997615814,10,1,experiment,NA,NA,0,0.1,0.9,1,0,152,4,NA
fcp-trial,187,923071,0.0-162.0-0.0,voc_e2,11933,"[{""event"":""fullscreenenter"",""trial"":1,""time"":11992}]",NA,NA,NA,NA,NA,4,#D89F1C,#3386FF,0,0,0,38,1,975.8999999761581,39,0,390.10000002384186,0,1,experiment,NA,NA,1,0.3,0.7,3,2,153,4,NA
fcp-trial,188,925585,0.0-163.0-0.0,voc_e2,11933,"[{""event"":""fullscreenenter"",""trial"":1,""time"":11992}]",NA,NA,NA,NA,NA,0,#D89F1C,#3386FF,0,10,0,38,1,643,39,0,357.6999999284744,10,1,experiment,NA,NA,1,0.3,0.7,3,2,154,4,NA
fcp-trial,189,928394,0.0-164.0-0.0,voc_e2,11933,"[{""event"":""fullscreenenter"",""trial"":1,""time"":11992}]",NA,NA,NA,NA,NA,5,#1CD855,#FA92F8,10,10,1,38,1,817.2999999523163,39,0,483.2999999523163,10,0,experiment,NA,NA,2,0.5,0.5,4,5,155,4,NA
fcp-trial,190,931117,0.0-165.0-0.0,voc_e2,11933,"[{""event"":""fullscreenenter"",""trial"":1,""time"":11992}]",NA,NA,NA,NA,NA,1,#741CD8,#D8271C,0,10,0,38,1,768.1000000238419,39,0,441,10,1,experiment,NA,NA,0,0.1,0.9,1,0,156,4,NA
fcp-trial,191,934251,0.0-166.0-0.0,voc_e2,11933,"[{""event"":""fullscreenenter"",""trial"":1,""time"":11992}]",NA,NA,NA,NA,NA,6,#FA92F8,#1CD855,10,10,0,40,0,1129.5,37,1,489.8000000715256,10,0,experiment,NA,NA,2,0.5,0.5,5,4,157,4,NA
fcp-trial,192,936807,0.0-167.0-0.0,voc_e2,11933,"[{""event"":""fullscreenenter"",""trial"":1,""time"":11992}]",NA,NA,NA,NA,NA,6,#D89F1C,#3386FF,0,10,0,38,1,755.3999999761581,39,0,287.2999999523163,10,1,experiment,NA,NA,1,0.3,0.7,3,2,158,4,NA
fcp-trial,193,939809,0.0-168.0-0.0,voc_e2,11933,"[{""event"":""fullscreenenter"",""trial"":1,""time"":11992}]",NA,NA,NA,NA,NA,4,#1CD855,#FA92F8,10,10,1,40,0,1107.7999999523163,37,1,375.3000000715256,10,1,experiment,NA,NA,2,0.5,0.5,4,5,159,4,NA
fcp-trial,194,942647,0.0-169.0-0.0,voc_e2,11933,"[{""event"":""fullscreenenter"",""trial"":1,""time"":11992}]",NA,NA,NA,NA,NA,3,#FA92F8,#1CD855,0,0,0,40,0,775,37,1,551.3999999761581,0,0,experiment,NA,NA,2,0.5,0.5,5,4,160,4,NA
fcp-trial,195,945665,0.0-170.0-0.0,voc_e2,11933,"[{""event"":""fullscreenenter"",""trial"":1,""time"":11992}]",NA,NA,NA,NA,NA,4,#741CD8,#D8271C,10,10,0,38,1,1163.2999999523163,39,0,337.6999999284744,10,1,experiment,NA,NA,0,0.1,0.9,1,0,161,4,NA
fcp-trial,196,949331,0.0-171.0-0.0,voc_e2,11933,"[{""event"":""fullscreenenter"",""trial"":1,""time"":11992}]",NA,NA,NA,NA,NA,3,#3386FF,#D89F1C,0,0,1,38,1,1881,37,1,273.09999990463257,0,1,experiment,NA,NA,1,0.7,0.3,2,3,162,4,NA
fcp-trial,197,951661,0.0-172.0-0.0,voc_e2,11933,"[{""event"":""fullscreenenter"",""trial"":1,""time"":11992}]",NA,NA,NA,NA,NA,1,#D89F1C,#3386FF,0,10,0,38,1,531.1999999284744,39,0,284.60000002384186,10,1,experiment,NA,NA,1,0.3,0.7,3,2,163,4,NA
fcp-trial,198,954388,0.0-173.0-0.0,voc_e2,11933,"[{""event"":""fullscreenenter"",""trial"":1,""time"":11992}]",NA,NA,NA,NA,NA,0,#D8271C,#741CD8,10,0,1,38,1,937.8000000715256,37,1,273.8000000715256,10,1,experiment,NA,NA,0,0.9,0.1,0,1,164,4,NA
fcp-trial,199,957187,0.0-174.0-0.0,voc_e2,11933,"[{""event"":""fullscreenenter"",""trial"":1,""time"":11992}]",NA,NA,NA,NA,NA,2,#FA92F8,#1CD855,10,0,0,40,0,973.7999999523163,37,1,312.2000000476837,10,0,experiment,NA,NA,2,0.5,0.5,5,4,165,4,NA
fcp-trial,200,959890,0.0-175.0-0.0,voc_e2,11933,"[{""event"":""fullscreenenter"",""trial"":1,""time"":11992}]",NA,NA,NA,NA,NA,2,#D89F1C,#3386FF,0,10,0,38,1,933.1000000238419,39,0,256.59999990463257,10,1,experiment,NA,NA,1,0.3,0.7,3,2,166,4,NA
fcp-trial,201,963088,0.0-176.0-0.0,voc_e2,11933,"[{""event"":""fullscreenenter"",""trial"":1,""time"":11992}]",NA,NA,NA,NA,NA,1,#FA92F8,#1CD855,0,0,0,40,0,1042,39,0,645.2000000476837,0,1,experiment,NA,NA,2,0.5,0.5,5,4,167,4,NA
fcp-trial,202,966655,0.0-177.0-0.0,voc_e2,11933,"[{""event"":""fullscreenenter"",""trial"":1,""time"":11992}]",NA,NA,NA,NA,NA,0,#1CD855,#FA92F8,0,10,1,38,1,1283.5,39,0,769.4000000953674,10,0,experiment,NA,NA,2,0.5,0.5,4,5,168,4,NA
fcp-trial,203,970114,0.0-178.0-0.0,voc_e2,11933,"[{""event"":""fullscreenenter"",""trial"":1,""time"":11992}]",NA,NA,NA,NA,NA,2,#3386FF,#D89F1C,10,0,1,38,1,1283.3999999761581,37,1,667.7999999523163,10,1,experiment,NA,NA,1,0.7,0.3,2,3,169,4,NA
fcp-trial,204,973307,0.0-179.0-0.0,voc_e2,11933,"[{""event"":""fullscreenenter"",""trial"":1,""time"":11992}]",NA,NA,NA,NA,NA,5,#D8271C,#741CD8,0,0,1,38,1,1367.7999999523163,37,1,304.59999990463257,0,1,experiment,NA,NA,0,0.9,0.1,0,1,170,4,NA
fcp-trial,205,976144,0.0-180.0-0.0,voc_e2,11933,"[{""event"":""fullscreenenter"",""trial"":1,""time"":11992}]",NA,NA,NA,NA,NA,1,#D89F1C,#3386FF,0,10,0,38,1,1000.4000000953674,39,0,324.2999999523163,10,1,experiment,NA,NA,1,0.3,0.7,3,2,171,4,NA
fcp-trial,206,979128,0.0-181.0-0.0,voc_e2,11933,"[{""event"":""fullscreenenter"",""trial"":1,""time"":11992}]",NA,NA,NA,NA,NA,4,#1CD855,#FA92F8,10,0,1,40,0,1111.8000000715256,39,0,350.6999999284744,0,0,experiment,NA,NA,2,0.5,0.5,4,5,172,4,NA
fcp-trial,207,983949,0.0-182.0-0.0,voc_e2,11933,"[{""event"":""fullscreenenter"",""trial"":1,""time"":11992}]",NA,NA,NA,NA,NA,4,#D89F1C,#3386FF,0,0,0,38,1,2576.4000000953674,39,0,731.3000000715256,0,1,experiment,NA,NA,1,0.3,0.7,3,2,173,4,NA
fcp-trial,208,988287,0.0-183.0-0.0,voc_e2,11933,"[{""event"":""fullscreenenter"",""trial"":1,""time"":11992}]",NA,NA,NA,NA,NA,5,#1CD855,#FA92F8,0,0,1,38,1,2244,39,0,580.8000000715256,0,0,experiment,NA,NA,2,0.5,0.5,4,5,174,4,NA
fcp-trial,209,991297,0.0-184.0-0.0,voc_e2,11933,"[{""event"":""fullscreenenter"",""trial"":1,""time"":11992}]",NA,NA,NA,NA,NA,6,#D8271C,#741CD8,10,0,1,38,1,1231.6999999284744,37,1,267.89999997615814,10,1,experiment,NA,NA,0,0.9,0.1,0,1,175,4,NA
fcp-trial,210,993856,0.0-185.0-0.0,voc_e2,11933,"[{""event"":""fullscreenenter"",""trial"":1,""time"":11992}]",NA,NA,NA,NA,NA,1,#D8271C,#741CD8,10,10,1,38,1,774.9000000953674,37,1,271,10,1,experiment,NA,NA,0,0.9,0.1,0,1,176,4,NA
fcp-trial,211,996421,0.0-186.0-0.0,voc_e2,11933,"[{""event"":""fullscreenenter"",""trial"":1,""time"":11992}]",NA,NA,NA,NA,NA,3,#D89F1C,#3386FF,0,10,0,38,1,684.2000000476837,39,0,371.6999999284744,10,1,experiment,NA,NA,1,0.3,0.7,3,2,177,4,NA
fcp-trial,212,999400,0.0-187.0-0.0,voc_e2,11933,"[{""event"":""fullscreenenter"",""trial"":1,""time"":11992}]",NA,NA,NA,NA,NA,3,#FA92F8,#1CD855,0,10,0,40,0,1077.2999999523163,37,1,389.39999997615814,0,0,experiment,NA,NA,2,0.5,0.5,5,4,178,4,NA
fcp-trial,213,1002060,0.0-188.0-0.0,voc_e2,11933,"[{""event"":""fullscreenenter"",""trial"":1,""time"":11992}]",NA,NA,NA,NA,NA,1,#1CD855,#FA92F8,10,10,1,40,0,804.7999999523163,39,0,346.7999999523163,10,0,experiment,NA,NA,2,0.5,0.5,4,5,179,4,NA
fcp-trial,214,1005025,0.0-189.0-0.0,voc_e2,11933,"[{""event"":""fullscreenenter"",""trial"":1,""time"":11992}]",NA,NA,NA,NA,NA,4,#741CD8,#D8271C,0,10,0,38,1,868.7000000476837,39,0,572.7999999523163,10,1,experiment,NA,NA,0,0.1,0.9,1,0,180,4,NA
fcp-trial,215,1007849,0.0-190.0-0.0,voc_e2,11933,"[{""event"":""fullscreenenter"",""trial"":1,""time"":11992}]",NA,NA,NA,NA,NA,0,#D89F1C,#3386FF,10,0,0,38,1,853,39,0,458,0,1,experiment,NA,NA,1,0.3,0.7,3,2,181,5,NA
fcp-trial,216,1011576,0.0-191.0-0.0,voc_e2,11933,"[{""event"":""fullscreenenter"",""trial"":1,""time"":11992}]",NA,NA,NA,NA,NA,3,#D8271C,#741CD8,10,0,1,38,1,1864,37,1,322.5,10,1,experiment,NA,NA,0,0.9,0.1,0,1,182,5,NA
fcp-trial,217,1014280,0.0-192.0-0.0,voc_e2,11933,"[{""event"":""fullscreenenter"",""trial"":1,""time"":11992}]",NA,NA,NA,NA,NA,5,#D89F1C,#3386FF,10,10,0,38,1,779.6000000238419,39,0,413.6999999284744,10,1,experiment,NA,NA,1,0.3,0.7,3,2,183,5,NA
fcp-trial,218,1017430,0.0-193.0-0.0,voc_e2,11933,"[{""event"":""fullscreenenter"",""trial"":1,""time"":11992}]",NA,NA,NA,NA,NA,6,#FA92F8,#1CD855,10,0,0,40,0,1282.6000000238419,37,1,349,10,0,experiment,NA,NA,2,0.5,0.5,5,4,184,5,NA
fcp-trial,219,1020775,0.0-194.0-0.0,voc_e2,11933,"[{""event"":""fullscreenenter"",""trial"":1,""time"":11992}]",NA,NA,NA,NA,NA,2,#741CD8,#D8271C,0,10,0,38,1,1164.5,39,0,670.0999999046326,10,1,experiment,NA,NA,0,0.1,0.9,1,0,185,5,NA
fcp-trial,220,1023430,0.0-195.0-0.0,voc_e2,11933,"[{""event"":""fullscreenenter"",""trial"":1,""time"":11992}]",NA,NA,NA,NA,NA,0,#741CD8,#D8271C,0,10,0,38,1,833.1000000238419,39,0,307.2999999523163,10,1,experiment,NA,NA,0,0.1,0.9,1,0,186,5,NA
fcp-trial,221,1026036,0.0-196.0-0.0,voc_e2,11933,"[{""event"":""fullscreenenter"",""trial"":1,""time"":11992}]",NA,NA,NA,NA,NA,6,#D89F1C,#3386FF,10,10,0,38,1,682.6000000238419,39,0,404.1999999284744,10,1,experiment,NA,NA,1,0.3,0.7,3,2,187,5,NA
fcp-trial,222,1028960,0.0-197.0-0.0,voc_e2,11933,"[{""event"":""fullscreenenter"",""trial"":1,""time"":11992}]",NA,NA,NA,NA,NA,0,#1CD855,#FA92F8,10,0,1,40,0,1041.5,39,0,374.2999999523163,0,0,experiment,NA,NA,2,0.5,0.5,4,5,188,5,NA
fcp-trial,223,1032186,0.0-198.0-0.0,voc_e2,11933,"[{""event"":""fullscreenenter"",""trial"":1,""time"":11992}]",NA,NA,NA,NA,NA,2,#1CD855,#FA92F8,10,0,1,40,0,1333.0999999046326,39,0,382.89999997615814,0,0,experiment,NA,NA,2,0.5,0.5,4,5,189,5,NA
fcp-trial,224,1035183,0.0-199.0-0.0,voc_e2,11933,"[{""event"":""fullscreenenter"",""trial"":1,""time"":11992}]",NA,NA,NA,NA,NA,0,#D89F1C,#3386FF,0,10,0,38,1,1034.5,39,0,438.2000000476837,10,1,experiment,NA,NA,1,0.3,0.7,3,2,190,5,NA
fcp-trial,225,1038471,0.0-200.0-0.0,voc_e2,11933,"[{""event"":""fullscreenenter"",""trial"":1,""time"":11992}]",NA,NA,NA,NA,NA,3,#1CD855,#FA92F8,10,0,1,40,0,1132.6000000238419,37,1,622.6999999284744,10,1,experiment,NA,NA,2,0.5,0.5,4,5,191,5,NA
fcp-trial,226,1046223,0.0-201.0-0.0,voc_e2,11933,"[{""event"":""fullscreenenter"",""trial"":1,""time"":11992}]",NA,NA,NA,NA,NA,4,#D89F1C,#3386FF,0,10,0,38,1,5907.199999928474,39,0,332.7999999523163,10,1,experiment,NA,NA,1,0.3,0.7,3,2,192,5,NA
fcp-trial,227,1049008,0.0-202.0-0.0,voc_e2,11933,"[{""event"":""fullscreenenter"",""trial"":1,""time"":11992}]",NA,NA,NA,NA,NA,3,#D8271C,#741CD8,10,0,1,38,1,882.7999999523163,37,1,380.39999997615814,10,1,experiment,NA,NA,0,0.9,0.1,0,1,193,5,NA
fcp-trial,228,1051780,0.0-203.0-0.0,voc_e2,11933,"[{""event"":""fullscreenenter"",""trial"":1,""time"":11992}]",NA,NA,NA,NA,NA,5,#D8271C,#741CD8,10,10,1,38,1,915.9000000953674,37,1,341,10,1,experiment,NA,NA,0,0.9,0.1,0,1,194,5,NA
fcp-trial,229,1054948,0.0-204.0-0.0,voc_e2,11933,"[{""event"":""fullscreenenter"",""trial"":1,""time"":11992}]",NA,NA,NA,NA,NA,1,#3386FF,#D89F1C,10,0,1,38,1,1239.5,37,1,410.2999999523163,10,1,experiment,NA,NA,1,0.7,0.3,2,3,195,5,NA
fcp-trial,230,1058377,0.0-205.0-0.0,voc_e2,11933,"[{""event"":""fullscreenenter"",""trial"":1,""time"":11992}]",NA,NA,NA,NA,NA,5,#FA92F8,#1CD855,10,10,0,40,0,1401,39,0,506.5,10,1,experiment,NA,NA,2,0.5,0.5,5,4,196,5,NA
fcp-trial,231,1061327,0.0-206.0-0.0,voc_e2,11933,"[{""event"":""fullscreenenter"",""trial"":1,""time"":11992}]",NA,NA,NA,NA,NA,1,#D8271C,#741CD8,10,0,1,38,1,1159.5,37,1,271.3000000715256,10,1,experiment,NA,NA,0,0.9,0.1,0,1,197,5,NA
fcp-trial,232,1063777,0.0-207.0-0.0,voc_e2,11933,"[{""event"":""fullscreenenter"",""trial"":1,""time"":11992}]",NA,NA,NA,NA,NA,6,#FA92F8,#1CD855,0,10,0,40,0,538.1000000238419,39,0,390.90000009536743,10,1,experiment,NA,NA,2,0.5,0.5,5,4,198,5,NA
fcp-trial,233,1066598,0.0-208.0-0.0,voc_e2,11933,"[{""event"":""fullscreenenter"",""trial"":1,""time"":11992}]",NA,NA,NA,NA,NA,6,#3386FF,#D89F1C,10,10,1,38,1,1049.7999999523163,37,1,258.2999999523163,10,1,experiment,NA,NA,1,0.7,0.3,2,3,199,5,NA
fcp-trial,234,1069808,0.0-209.0-0.0,voc_e2,11933,"[{""event"":""fullscreenenter"",""trial"":1,""time"":11992}]",NA,NA,NA,NA,NA,2,#D89F1C,#3386FF,10,10,0,38,1,1218.7999999523163,39,0,471.8000000715256,10,1,experiment,NA,NA,1,0.3,0.7,3,2,200,5,NA
fcp-trial,235,1072911,0.0-210.0-0.0,voc_e2,11933,"[{""event"":""fullscreenenter"",""trial"":1,""time"":11992}]",NA,NA,NA,NA,NA,4,#D8271C,#741CD8,10,0,1,38,1,818.2000000476837,37,1,769.1999999284744,10,1,experiment,NA,NA,0,0.9,0.1,0,1,201,5,NA
fcp-trial,236,1076509,0.0-211.0-0.0,voc_e2,11933,"[{""event"":""fullscreenenter"",""trial"":1,""time"":11992}]",NA,NA,NA,NA,NA,0,#1CD855,#FA92F8,0,0,1,38,1,1707.8999999761581,37,1,374.59999990463257,0,1,experiment,NA,NA,2,0.5,0.5,4,5,202,5,NA
fcp-trial,237,1079111,0.0-212.0-0.0,voc_e2,11933,"[{""event"":""fullscreenenter"",""trial"":1,""time"":11992}]",NA,NA,NA,NA,NA,3,#3386FF,#D89F1C,10,10,1,38,1,751.5,37,1,342.7999999523163,10,1,experiment,NA,NA,1,0.7,0.3,2,3,203,5,NA
fcp-trial,238,1083135,0.0-213.0-0.0,voc_e2,11933,"[{""event"":""fullscreenenter"",""trial"":1,""time"":11992}]",NA,NA,NA,NA,NA,1,#1CD855,#FA92F8,10,10,1,40,0,2139.600000023842,37,1,368.7000000476837,10,1,experiment,NA,NA,2,0.5,0.5,4,5,204,5,NA
fcp-trial,239,1087884,0.0-214.0-0.0,voc_e2,11933,"[{""event"":""fullscreenenter"",""trial"":1,""time"":11992}]",NA,NA,NA,NA,NA,0,#D8271C,#741CD8,10,0,1,38,1,1287.3999999761581,37,1,1949.6999999284744,10,1,experiment,NA,NA,0,0.9,0.1,0,1,205,5,NA
fcp-trial,240,1090678,0.0-215.0-0.0,voc_e2,11933,"[{""event"":""fullscreenenter"",""trial"":1,""time"":11992}]",NA,NA,NA,NA,NA,6,#D8271C,#741CD8,10,0,1,38,1,920,37,1,357.89999997615814,10,1,experiment,NA,NA,0,0.9,0.1,0,1,206,5,NA
fcp-trial,241,1093612,0.0-216.0-0.0,voc_e2,11933,"[{""event"":""fullscreenenter"",""trial"":1,""time"":11992}]",NA,NA,NA,NA,NA,4,#1CD855,#FA92F8,0,0,1,40,0,1057.6000000238419,39,0,355.7999999523163,0,0,experiment,NA,NA,2,0.5,0.5,4,5,207,5,NA
fcp-trial,242,1096180,0.0-217.0-0.0,voc_e2,11933,"[{""event"":""fullscreenenter"",""trial"":1,""time"":11992}]",NA,NA,NA,NA,NA,5,#3386FF,#D89F1C,0,0,1,38,1,742.8999999761581,37,1,307.89999997615814,0,1,experiment,NA,NA,1,0.7,0.3,2,3,208,5,NA
fcp-trial,243,1098780,0.0-218.0-0.0,voc_e2,11933,"[{""event"":""fullscreenenter"",""trial"":1,""time"":11992}]",NA,NA,NA,NA,NA,2,#D8271C,#741CD8,10,10,1,38,1,815.8999999761581,37,1,270.39999997615814,10,1,experiment,NA,NA,0,0.9,0.1,0,1,209,5,NA
fcp-trial,244,1101630,0.0-219.0-0.0,voc_e2,11933,"[{""event"":""fullscreenenter"",""trial"":1,""time"":11992}]",NA,NA,NA,NA,NA,2,#1CD855,#FA92F8,0,0,1,40,0,975,39,0,354.59999990463257,0,0,experiment,NA,NA,2,0.5,0.5,4,5,210,5,NA
audio-instructions,245,1106910,0.0-220.0,voc_e2,11933,"[{""event"":""fullscreenenter"",""trial"":1,""time"":11992}]",NA,655.8000000715256,static/audio/pause.wav,NA,0,NA,NA,NA,NA,NA,NA,NA,NA,NA,NA,NA,NA,NA,NA,NA,NA,NA,NA,NA,NA,NA,NA,NA,NA,NA
fcp-trial,246,1110600,0.0-221.0-0.0,voc_e2,11933,"[{""event"":""fullscreenenter"",""trial"":1,""time"":11992}]",NA,NA,NA,NA,NA,2,#D8271C,#741CD8,10,0,1,38,1,1620.7000000476837,37,1,539,10,1,experiment,NA,NA,0,0.9,0.1,0,1,211,5,NA
fcp-trial,247,1113132,0.0-222.0-0.0,voc_e2,11933,"[{""event"":""fullscreenenter"",""trial"":1,""time"":11992}]",NA,NA,NA,NA,NA,6,#1CD855,#FA92F8,10,0,1,40,0,712.5999999046326,39,0,295,0,0,experiment,NA,NA,2,0.5,0.5,4,5,212,5,NA
fcp-trial,248,1116217,0.0-223.0-0.0,voc_e2,11933,"[{""event"":""fullscreenenter"",""trial"":1,""time"":11992}]",NA,NA,NA,NA,NA,3,#D8271C,#741CD8,10,10,1,38,1,919.6000000238419,37,1,647.2999999523163,10,1,experiment,NA,NA,0,0.9,0.1,0,1,213,5,NA
fcp-trial,249,1118982,0.0-224.0-0.0,voc_e2,11933,"[{""event"":""fullscreenenter"",""trial"":1,""time"":11992}]",NA,NA,NA,NA,NA,0,#D89F1C,#3386FF,10,10,0,38,1,899.5,39,0,344.7000000476837,10,1,experiment,NA,NA,1,0.3,0.7,3,2,214,5,NA
fcp-trial,250,1121683,0.0-225.0-0.0,voc_e2,11933,"[{""event"":""fullscreenenter"",""trial"":1,""time"":11992}]",NA,NA,NA,NA,NA,4,#D8271C,#741CD8,10,0,1,38,1,927.5,37,1,253.69999992847443,10,1,experiment,NA,NA,0,0.9,0.1,0,1,215,5,NA
fcp-trial,251,1124270,0.0-226.0-0.0,voc_e2,11933,"[{""event"":""fullscreenenter"",""trial"":1,""time"":11992}]",NA,NA,NA,NA,NA,6,#D89F1C,#3386FF,10,10,0,38,1,698.7999999523163,39,0,366,10,1,experiment,NA,NA,1,0.3,0.7,3,2,216,5,NA
fcp-trial,252,1127132,0.0-227.0-0.0,voc_e2,11933,"[{""event"":""fullscreenenter"",""trial"":1,""time"":11992}]",NA,NA,NA,NA,NA,0,#FA92F8,#1CD855,0,10,0,40,0,718.1000000238419,39,0,626.7999999523163,10,1,experiment,NA,NA,2,0.5,0.5,5,4,217,5,NA
fcp-trial,253,1130118,0.0-228.0-0.0,voc_e2,11933,"[{""event"":""fullscreenenter"",""trial"":1,""time"":11992}]",NA,NA,NA,NA,NA,1,#D8271C,#741CD8,10,10,1,38,1,1127.7999999523163,37,1,332.1999999284744,10,1,experiment,NA,NA,0,0.9,0.1,0,1,218,5,NA
fcp-trial,254,1133351,0.0-229.0-0.0,voc_e2,11933,"[{""event"":""fullscreenenter"",""trial"":1,""time"":11992}]",NA,NA,NA,NA,NA,5,#3386FF,#D89F1C,10,0,1,38,1,1126.7999999523163,37,1,583.5,10,1,experiment,NA,NA,1,0.7,0.3,2,3,219,5,NA
fcp-trial,255,1135718,0.0-230.0-0.0,voc_e2,11933,"[{""event"":""fullscreenenter"",""trial"":1,""time"":11992}]",NA,NA,NA,NA,NA,2,#3386FF,#D89F1C,10,0,1,38,1,532.3999999761581,37,1,304,10,1,experiment,NA,NA,1,0.7,0.3,2,3,220,5,NA
fcp-trial,256,1139322,0.0-231.0-0.0,voc_e2,11933,"[{""event"":""fullscreenenter"",""trial"":1,""time"":11992}]",NA,NA,NA,NA,NA,2,#FA92F8,#1CD855,0,0,0,38,1,1436.2999999523163,39,0,653.0999999046326,0,1,experiment,NA,NA,2,0.5,0.5,5,4,221,5,NA
fcp-trial,257,1142116,0.0-232.0-0.0,voc_e2,11933,"[{""event"":""fullscreenenter"",""trial"":1,""time"":11992}]",NA,NA,NA,NA,NA,0,#741CD8,#D8271C,0,10,0,38,1,684,39,0,591.8999999761581,10,1,experiment,NA,NA,0,0.1,0.9,1,0,222,5,NA
fcp-trial,258,1144618,0.0-233.0-0.0,voc_e2,11933,"[{""event"":""fullscreenenter"",""trial"":1,""time"":11992}]",NA,NA,NA,NA,NA,3,#3386FF,#D89F1C,0,0,1,38,1,730.8999999761581,37,1,253.10000002384183,0,1,experiment,NA,NA,1,0.7,0.3,2,3,223,5,NA
fcp-trial,259,1147598,0.0-234.0-0.0,voc_e2,11933,"[{""event"":""fullscreenenter"",""trial"":1,""time"":11992}]",NA,NA,NA,NA,NA,5,#D8271C,#741CD8,10,0,1,38,1,800.6000000238419,37,1,658.4000000953674,10,1,experiment,NA,NA,0,0.9,0.1,0,1,224,5,NA
fcp-trial,260,1151481,0.0-235.0-0.0,voc_e2,11933,"[{""event"":""fullscreenenter"",""trial"":1,""time"":11992}]",NA,NA,NA,NA,NA,4,#D89F1C,#3386FF,0,10,0,38,1,2115.399999976158,39,0,254.29999995231628,10,1,experiment,NA,NA,1,0.3,0.7,3,2,225,5,NA
fcp-trial,261,1157052,0.0-236.0-0.0,voc_e2,11933,"[{""event"":""fullscreenenter"",""trial"":1,""time"":11992}]",NA,NA,NA,NA,NA,4,#FA92F8,#1CD855,0,0,0,40,0,3648,39,0,414.5,0,1,experiment,NA,NA,2,0.5,0.5,5,4,226,6,NA
fcp-trial,262,1160830,0.0-237.0-0.0,voc_e2,11933,"[{""event"":""fullscreenenter"",""trial"":1,""time"":11992}]",NA,NA,NA,NA,NA,1,#1CD855,#FA92F8,0,0,1,40,0,1006.8999999761581,39,0,1261.100000023842,0,0,experiment,NA,NA,2,0.5,0.5,4,5,227,6,NA
fcp-trial,263,1164798,0.0-238.0-0.0,voc_e2,11933,"[{""event"":""fullscreenenter"",""trial"":1,""time"":11992}]",NA,NA,NA,NA,NA,6,#D8271C,#741CD8,0,0,1,38,1,2141.399999976158,37,1,303.10000002384186,0,1,experiment,NA,NA,0,0.9,0.1,0,1,228,6,NA
fcp-trial,264,1168149,0.0-239.0-0.0,voc_e2,11933,"[{""event"":""fullscreenenter"",""trial"":1,""time"":11992}]",NA,NA,NA,NA,NA,1,#3386FF,#D89F1C,0,10,1,40,0,1458.8000000715256,39,0,376.39999997615814,10,0,experiment,NA,NA,1,0.7,0.3,2,3,229,6,NA
fcp-trial,265,1170934,0.0-240.0-0.0,voc_e2,11933,"[{""event"":""fullscreenenter"",""trial"":1,""time"":11992}]",NA,NA,NA,NA,NA,3,#FA92F8,#1CD855,0,0,0,40,0,898.2999999523163,39,0,364.3000000715256,0,1,experiment,NA,NA,2,0.5,0.5,5,4,230,6,NA
fcp-trial,266,1173583,0.0-241.0-0.0,voc_e2,11933,"[{""event"":""fullscreenenter"",""trial"":1,""time"":11992}]",NA,NA,NA,NA,NA,5,#1CD855,#FA92F8,10,0,1,40,0,770.2999999523163,39,0,355.89999997615814,0,0,experiment,NA,NA,2,0.5,0.5,4,5,231,6,NA
fcp-trial,267,1177670,0.0-242.0-0.0,voc_e2,11933,"[{""event"":""fullscreenenter"",""trial"":1,""time"":11992}]",NA,NA,NA,NA,NA,5,#D89F1C,#3386FF,0,10,0,38,1,2216.2999999523163,37,1,362.39999997615814,0,0,experiment,NA,NA,1,0.3,0.7,3,2,232,6,NA
fcp-trial,268,1182124,0.0-243.0-0.0,voc_e2,11933,"[{""event"":""fullscreenenter"",""trial"":1,""time"":11992}]",NA,NA,NA,NA,NA,2,#FA92F8,#1CD855,10,10,0,40,0,2580.7000000476837,39,0,354.40000009536743,10,1,experiment,NA,NA,2,0.5,0.5,5,4,233,6,NA
fcp-trial,269,1184950,0.0-244.0-0.0,voc_e2,11933,"[{""event"":""fullscreenenter"",""trial"":1,""time"":11992}]",NA,NA,NA,NA,NA,2,#741CD8,#D8271C,0,10,0,38,1,1007.3000000715256,39,0,307.8000000715256,10,1,experiment,NA,NA,0,0.1,0.9,1,0,234,6,NA
fcp-trial,270,1189489,0.0-245.0-0.0,voc_e2,11933,"[{""event"":""fullscreenenter"",""trial"":1,""time"":11992}]",NA,NA,NA,NA,NA,3,#3386FF,#D89F1C,10,0,1,38,1,1778.1000000238419,39,0,1251.600000023842,0,0,experiment,NA,NA,1,0.7,0.3,2,3,235,6,NA
fcp-trial,271,1193618,0.0-246.0-0.0,voc_e2,11933,"[{""event"":""fullscreenenter"",""trial"":1,""time"":11992}]",NA,NA,NA,NA,NA,6,#FA92F8,#1CD855,0,10,0,40,0,2172.600000023842,39,0,441.89999997615814,10,1,experiment,NA,NA,2,0.5,0.5,5,4,236,6,NA
fcp-trial,272,1196414,0.0-247.0-0.0,voc_e2,11933,"[{""event"":""fullscreenenter"",""trial"":1,""time"":11992}]",NA,NA,NA,NA,NA,3,#741CD8,#D8271C,0,10,0,38,1,955.4000000953674,39,0,323.89999997615814,10,1,experiment,NA,NA,0,0.1,0.9,1,0,237,6,NA
fcp-trial,273,1199375,0.0-248.0-0.0,voc_e2,11933,"[{""event"":""fullscreenenter"",""trial"":1,""time"":11992}]",NA,NA,NA,NA,NA,4,#FA92F8,#1CD855,10,0,0,40,0,940.7000000476837,37,1,505,10,0,experiment,NA,NA,2,0.5,0.5,5,4,238,6,NA
fcp-trial,274,1202288,0.0-249.0-0.0,voc_e2,11933,"[{""event"":""fullscreenenter"",""trial"":1,""time"":11992}]",NA,NA,NA,NA,NA,1,#741CD8,#D8271C,0,10,0,38,1,1044,39,0,358,10,1,experiment,NA,NA,0,0.1,0.9,1,0,239,6,NA
fcp-trial,275,1204854,0.0-250.0-0.0,voc_e2,11933,"[{""event"":""fullscreenenter"",""trial"":1,""time"":11992}]",NA,NA,NA,NA,NA,0,#D89F1C,#3386FF,0,10,0,38,1,729.1999999284744,39,0,322.3000000715256,10,1,experiment,NA,NA,1,0.3,0.7,3,2,240,6,NA
fcp-trial,276,1207719,0.0-251.0-0.0,voc_e2,11933,"[{""event"":""fullscreenenter"",""trial"":1,""time"":11992}]",NA,NA,NA,NA,NA,0,#FA92F8,#1CD855,10,10,0,40,0,938.7000000476837,39,0,411.7000000476837,10,1,experiment,NA,NA,2,0.5,0.5,5,4,241,6,NA
fcp-trial,277,1210368,0.0-252.0-0.0,voc_e2,11933,"[{""event"":""fullscreenenter"",""trial"":1,""time"":11992}]",NA,NA,NA,NA,NA,0,#D8271C,#741CD8,10,0,1,38,1,834.3999999761581,37,1,295.8000000715256,10,1,experiment,NA,NA,0,0.9,0.1,0,1,242,6,NA
fcp-trial,278,1213971,0.0-253.0-0.0,voc_e2,11933,"[{""event"":""fullscreenenter"",""trial"":1,""time"":11992}]",NA,NA,NA,NA,NA,4,#D89F1C,#3386FF,0,0,0,38,1,1765.5,39,0,324,0,1,experiment,NA,NA,1,0.3,0.7,3,2,243,6,NA
fcp-trial,279,1216586,0.0-254.0-0.0,voc_e2,11933,"[{""event"":""fullscreenenter"",""trial"":1,""time"":11992}]",NA,NA,NA,NA,NA,2,#D89F1C,#3386FF,10,0,0,38,1,783.5999999046326,39,0,313.5,0,1,experiment,NA,NA,1,0.3,0.7,3,2,244,6,NA
fcp-trial,280,1219488,0.0-255.0-0.0,voc_e2,11933,"[{""event"":""fullscreenenter"",""trial"":1,""time"":11992}]",NA,NA,NA,NA,NA,5,#741CD8,#D8271C,0,0,0,38,1,1012.2000000476837,39,0,375.6999999284744,0,1,experiment,NA,NA,0,0.1,0.9,1,0,245,6,NA
fcp-trial,281,1222502,0.0-256.0-0.0,voc_e2,11933,"[{""event"":""fullscreenenter"",""trial"":1,""time"":11992}]",NA,NA,NA,NA,NA,5,#FA92F8,#1CD855,10,10,0,40,0,1039.1999999284744,39,0,459.89999997615814,10,1,experiment,NA,NA,2,0.5,0.5,5,4,246,6,NA
fcp-trial,282,1225224,0.0-257.0-0.0,voc_e2,11933,"[{""event"":""fullscreenenter"",""trial"":1,""time"":11992}]",NA,NA,NA,NA,NA,6,#D8271C,#741CD8,10,0,1,38,1,935,37,1,267.39999997615814,10,1,experiment,NA,NA,0,0.9,0.1,0,1,247,6,NA
fcp-trial,283,1228082,0.0-258.0-0.0,voc_e2,11933,"[{""event"":""fullscreenenter"",""trial"":1,""time"":11992}]",NA,NA,NA,NA,NA,4,#741CD8,#D8271C,0,10,0,38,1,1044.5,39,0,302.2999999523163,10,1,experiment,NA,NA,0,0.1,0.9,1,0,248,6,NA
fcp-trial,284,1230704,0.0-259.0-0.0,voc_e2,11933,"[{""event"":""fullscreenenter"",""trial"":1,""time"":11992}]",NA,NA,NA,NA,NA,6,#D89F1C,#3386FF,0,10,0,38,1,751.7999999523163,39,0,355.10000002384186,10,1,experiment,NA,NA,1,0.3,0.7,3,2,249,6,NA
fcp-trial,285,1233958,0.0-260.0-0.0,voc_e2,11933,"[{""event"":""fullscreenenter"",""trial"":1,""time"":11992}]",NA,NA,NA,NA,NA,3,#1CD855,#FA92F8,10,0,1,40,0,1229.5,37,1,513.1999999284744,10,1,experiment,NA,NA,2,0.5,0.5,4,5,250,6,NA
fcp-trial,286,1236635,0.0-261.0-0.0,voc_e2,11933,"[{""event"":""fullscreenenter"",""trial"":1,""time"":11992}]",NA,NA,NA,NA,NA,1,#3386FF,#D89F1C,0,0,1,38,1,872.7000000476837,37,1,289.5,0,1,experiment,NA,NA,1,0.7,0.3,2,3,251,6,NA
fcp-trial,287,1240058,0.0-262.0-0.0,voc_e2,11933,"[{""event"":""fullscreenenter"",""trial"":1,""time"":11992}]",NA,NA,NA,NA,NA,1,#1CD855,#FA92F8,10,0,1,40,0,1105.3999999761581,39,0,805,0,0,experiment,NA,NA,2,0.5,0.5,4,5,252,6,NA
fcp-trial,288,1242851,0.0-263.0-0.0,voc_e2,11933,"[{""event"":""fullscreenenter"",""trial"":1,""time"":11992}]",NA,NA,NA,NA,NA,1,#D8271C,#741CD8,10,0,1,38,1,855.2000000476837,37,1,425.8000000715256,10,1,experiment,NA,NA,0,0.9,0.1,0,1,253,6,NA
fcp-trial,289,1247369,0.0-264.0-0.0,voc_e2,11933,"[{""event"":""fullscreenenter"",""trial"":1,""time"":11992}]",NA,NA,NA,NA,NA,0,#1CD855,#FA92F8,10,0,1,40,0,2566.3000000715256,37,1,443.10000002384186,10,1,experiment,NA,NA,2,0.5,0.5,4,5,254,6,NA
fcp-trial,290,1250390,0.0-265.0-0.0,voc_e2,11933,"[{""event"":""fullscreenenter"",""trial"":1,""time"":11992}]",NA,NA,NA,NA,NA,1,#FA92F8,#1CD855,0,0,0,40,0,1065.8999999761581,39,0,443.1999999284744,0,1,experiment,NA,NA,2,0.5,0.5,5,4,255,6,NA
fcp-trial,291,1253591,0.0-266.0-0.0,voc_e2,11933,"[{""event"":""fullscreenenter"",""trial"":1,""time"":11992}]",NA,NA,NA,NA,NA,3,#3386FF,#D89F1C,0,10,1,38,1,1430.7000000476837,37,1,251.20000004768372,0,1,experiment,NA,NA,1,0.7,0.3,2,3,256,6,NA
fcp-trial,292,1256435,0.0-267.0-0.0,voc_e2,11933,"[{""event"":""fullscreenenter"",""trial"":1,""time"":11992}]",NA,NA,NA,NA,NA,2,#3386FF,#D89F1C,10,10,1,40,0,636.6999999284744,39,0,694.3000000715256,10,0,experiment,NA,NA,1,0.7,0.3,2,3,257,6,NA
fcp-trial,293,1259204,0.0-268.0-0.0,voc_e2,11933,"[{""event"":""fullscreenenter"",""trial"":1,""time"":11992}]",NA,NA,NA,NA,NA,0,#741CD8,#D8271C,0,0,0,38,1,924.8999999761581,39,0,323.3000000715256,0,1,experiment,NA,NA,0,0.1,0.9,1,0,258,6,NA
fcp-trial,294,1262789,0.0-269.0-0.0,voc_e2,11933,"[{""event"":""fullscreenenter"",""trial"":1,""time"":11992}]",NA,NA,NA,NA,NA,2,#1CD855,#FA92F8,0,0,1,40,0,1683,39,0,379.5,0,0,experiment,NA,NA,2,0.5,0.5,4,5,259,6,NA
fcp-trial,295,1265774,0.0-270.0-0.0,voc_e2,11933,"[{""event"":""fullscreenenter"",""trial"":1,""time"":11992}]",NA,NA,NA,NA,NA,5,#D89F1C,#3386FF,10,0,0,40,0,1027.6000000238419,39,0,445.6999999284744,0,1,experiment,NA,NA,1,0.3,0.7,3,2,260,6,NA
fcp-trial,296,1269662,0.0-271.0-0.0,voc_e2,11933,"[{""event"":""fullscreenenter"",""trial"":1,""time"":11992}]",NA,NA,NA,NA,NA,5,#1CD855,#FA92F8,0,0,1,40,0,2050.2000000476837,39,0,320,0,0,experiment,NA,NA,2,0.5,0.5,4,5,261,6,NA
fcp-trial,297,1273326,0.0-272.0-0.0,voc_e2,11933,"[{""event"":""fullscreenenter"",""trial"":1,""time"":11992}]",NA,NA,NA,NA,NA,1,#3386FF,#D89F1C,10,0,1,38,1,1899.5,37,1,251.70000004768372,10,1,experiment,NA,NA,1,0.7,0.3,2,3,262,6,NA
fcp-trial,298,1275893,0.0-273.0-0.0,voc_e2,11933,"[{""event"":""fullscreenenter"",""trial"":1,""time"":11992}]",NA,NA,NA,NA,NA,6,#741CD8,#D8271C,0,10,0,38,1,787.7000000476837,39,0,268.5,10,1,experiment,NA,NA,0,0.1,0.9,1,0,263,6,NA
fcp-trial,299,1279171,0.0-274.0-0.0,voc_e2,11933,"[{""event"":""fullscreenenter"",""trial"":1,""time"":11992}]",NA,NA,NA,NA,NA,3,#1CD855,#FA92F8,0,0,1,40,0,975.7999999523163,37,1,787.7999999523163,0,1,experiment,NA,NA,2,0.5,0.5,4,5,264,6,NA
fcp-trial,300,1282053,0.0-275.0-0.0,voc_e2,11933,"[{""event"":""fullscreenenter"",""trial"":1,""time"":11992}]",NA,NA,NA,NA,NA,6,#D89F1C,#3386FF,0,0,0,38,1,1110,39,0,255,0,1,experiment,NA,NA,1,0.3,0.7,3,2,265,6,NA
fcp-trial,301,1284689,0.0-276.0-0.0,voc_e2,11933,"[{""event"":""fullscreenenter"",""trial"":1,""time"":11992}]",NA,NA,NA,NA,NA,0,#D89F1C,#3386FF,0,10,0,40,0,693.0999999046326,37,1,424.2000000476837,0,0,experiment,NA,NA,1,0.3,0.7,3,2,266,6,NA
fcp-trial,302,1287770,0.0-277.0-0.0,voc_e2,11933,"[{""event"":""fullscreenenter"",""trial"":1,""time"":11992}]",NA,NA,NA,NA,NA,5,#D8271C,#741CD8,0,0,1,38,1,868.1000000238419,37,1,697.7000000476837,0,1,experiment,NA,NA,0,0.9,0.1,0,1,267,6,NA
fcp-trial,303,1290837,0.0-278.0-0.0,voc_e2,11933,"[{""event"":""fullscreenenter"",""trial"":1,""time"":11992}]",NA,NA,NA,NA,NA,6,#FA92F8,#1CD855,10,0,0,40,0,1111.1000000238419,37,1,442.39999997615814,10,0,experiment,NA,NA,2,0.5,0.5,5,4,268,6,NA
fcp-trial,304,1293421,0.0-279.0-0.0,voc_e2,11933,"[{""event"":""fullscreenenter"",""trial"":1,""time"":11992}]",NA,NA,NA,NA,NA,4,#1CD855,#FA92F8,0,10,1,40,0,820.5,39,0,250.60000002384183,10,0,experiment,NA,NA,2,0.5,0.5,4,5,269,6,NA
fcp-trial,305,1297459,0.0-280.0-0.0,voc_e2,11933,"[{""event"":""fullscreenenter"",""trial"":1,""time"":11992}]",NA,NA,NA,NA,NA,4,#3386FF,#D89F1C,10,0,1,38,1,2256.7999999523163,37,1,267.1999999284744,10,1,experiment,NA,NA,1,0.7,0.3,2,3,270,6,NA
fcp-trial,306,1299987,0.0-281.0-0.0,voc_e2,11933,"[{""event"":""fullscreenenter"",""trial"":1,""time"":11992}]",NA,NA,NA,NA,NA,4,#D8271C,#741CD8,10,0,1,38,1,736.8999999761581,37,1,272.7000000476837,10,1,experiment,NA,NA,0,0.9,0.1,0,1,271,7,NA
fcp-trial,307,1302792,0.0-282.0-0.0,voc_e2,11933,"[{""event"":""fullscreenenter"",""trial"":1,""time"":11992}]",NA,NA,NA,NA,NA,3,#741CD8,#D8271C,0,10,0,38,1,628.7000000476837,39,0,666.2000000476837,10,1,experiment,NA,NA,0,0.1,0.9,1,0,272,7,NA
fcp-trial,308,1305878,0.0-283.0-0.0,voc_e2,11933,"[{""event"":""fullscreenenter"",""trial"":1,""time"":11992}]",NA,NA,NA,NA,NA,2,#D8271C,#741CD8,10,0,1,38,1,631.3999999761581,37,1,943.100000023842,10,1,experiment,NA,NA,0,0.9,0.1,0,1,273,7,NA
fcp-trial,309,1308572,0.0-284.0-0.0,voc_e2,11933,"[{""event"":""fullscreenenter"",""trial"":1,""time"":11992}]",NA,NA,NA,NA,NA,1,#1CD855,#FA92F8,10,10,1,40,0,872.1000000238419,39,0,305.39999997615814,10,0,experiment,NA,NA,2,0.5,0.5,4,5,274,7,NA
fcp-trial,310,1310905,0.0-285.0-0.0,voc_e2,11933,"[{""event"":""fullscreenenter"",""trial"":1,""time"":11992}]",NA,NA,NA,NA,NA,2,#D8271C,#741CD8,10,0,1,38,1,493.3000000715256,37,1,324.5,10,1,experiment,NA,NA,0,0.9,0.1,0,1,275,7,NA
fcp-trial,311,1314480,0.0-286.0-0.0,voc_e2,11933,"[{""event"":""fullscreenenter"",""trial"":1,""time"":11992}]",NA,NA,NA,NA,NA,2,#1CD855,#FA92F8,10,10,1,40,0,1105.8000000715256,37,1,952.4000000953674,10,1,experiment,NA,NA,2,0.5,0.5,4,5,276,7,NA
fcp-trial,312,1317406,0.0-287.0-0.0,voc_e2,11933,"[{""event"":""fullscreenenter"",""trial"":1,""time"":11992}]",NA,NA,NA,NA,NA,1,#3386FF,#D89F1C,10,10,1,38,1,1053.7999999523163,37,1,356.89999997615814,10,1,experiment,NA,NA,1,0.7,0.3,2,3,277,7,NA
fcp-trial,313,1320159,0.0-288.0-0.0,voc_e2,11933,"[{""event"":""fullscreenenter"",""trial"":1,""time"":11992}]",NA,NA,NA,NA,NA,5,#D8271C,#741CD8,10,0,1,38,1,831.8999999761581,37,1,407.7999999523163,10,1,experiment,NA,NA,0,0.9,0.1,0,1,278,7,NA
fcp-trial,314,1323672,0.0-289.0-0.0,voc_e2,11933,"[{""event"":""fullscreenenter"",""trial"":1,""time"":11992}]",NA,NA,NA,NA,NA,0,#1CD855,#FA92F8,10,0,1,40,0,1669.5,39,0,321.39999997615814,0,0,experiment,NA,NA,2,0.5,0.5,4,5,279,7,NA
fcp-trial,315,1326459,0.0-290.0-0.0,voc_e2,11933,"[{""event"":""fullscreenenter"",""trial"":1,""time"":11992}]",NA,NA,NA,NA,NA,4,#D8271C,#741CD8,10,0,1,38,1,867.4000000953674,37,1,407.2999999523163,10,1,experiment,NA,NA,0,0.9,0.1,0,1,280,7,NA
fcp-trial,316,1330173,0.0-291.0-0.0,voc_e2,11933,"[{""event"":""fullscreenenter"",""trial"":1,""time"":11992}]",NA,NA,NA,NA,NA,0,#3386FF,#D89F1C,10,0,1,38,1,1832.6000000238419,37,1,371,10,1,experiment,NA,NA,1,0.7,0.3,2,3,281,7,NA
fcp-trial,317,1333472,0.0-292.0-0.0,voc_e2,11933,"[{""event"":""fullscreenenter"",""trial"":1,""time"":11992}]",NA,NA,NA,NA,NA,3,#FA92F8,#1CD855,10,10,0,40,0,1354,37,1,420.10000002384186,10,0,experiment,NA,NA,2,0.5,0.5,5,4,282,7,NA
fcp-trial,318,1337193,0.0-293.0-0.0,voc_e2,11933,"[{""event"":""fullscreenenter"",""trial"":1,""time"":11992}]",NA,NA,NA,NA,NA,4,#3386FF,#D89F1C,10,0,1,38,1,1701.2999999523163,37,1,510.3000000715256,10,1,experiment,NA,NA,1,0.7,0.3,2,3,283,7,NA
fcp-trial,319,1341172,0.0-294.0-0.0,voc_e2,11933,"[{""event"":""fullscreenenter"",""trial"":1,""time"":11992}]",NA,NA,NA,NA,NA,4,#FA92F8,#1CD855,10,10,0,40,0,2051,37,1,407.7000000476837,10,0,experiment,NA,NA,2,0.5,0.5,5,4,284,7,NA
fcp-trial,320,1344391,0.0-295.0-0.0,voc_e2,11933,"[{""event"":""fullscreenenter"",""trial"":1,""time"":11992}]",NA,NA,NA,NA,NA,0,#D8271C,#741CD8,10,0,1,38,1,1094.8999999761581,37,1,608.6999999284744,10,1,experiment,NA,NA,0,0.9,0.1,0,1,285,7,NA
fcp-trial,321,1347747,0.0-296.0-0.0,voc_e2,11933,"[{""event"":""fullscreenenter"",""trial"":1,""time"":11992}]",NA,NA,NA,NA,NA,6,#741CD8,#D8271C,0,10,0,38,1,1399.3000000715256,39,0,445,10,1,experiment,NA,NA,0,0.1,0.9,1,0,286,7,NA
fcp-trial,322,1351823,0.0-297.0-0.0,voc_e2,11933,"[{""event"":""fullscreenenter"",""trial"":1,""time"":11992}]",NA,NA,NA,NA,NA,1,#741CD8,#D8271C,0,10,0,38,1,1491,39,0,1079,10,1,experiment,NA,NA,0,0.1,0.9,1,0,287,7,NA
fcp-trial,323,1354756,0.0-298.0-0.0,voc_e2,11933,"[{""event"":""fullscreenenter"",""trial"":1,""time"":11992}]",NA,NA,NA,NA,NA,6,#D89F1C,#3386FF,0,10,0,38,1,1112.6000000238419,39,0,307.60000002384186,10,1,experiment,NA,NA,1,0.3,0.7,3,2,288,7,NA
fcp-trial,324,1357458,0.0-299.0-0.0,voc_e2,11933,"[{""event"":""fullscreenenter"",""trial"":1,""time"":11992}]",NA,NA,NA,NA,NA,5,#1CD855,#FA92F8,10,10,1,40,0,678.1000000238419,37,1,515,10,1,experiment,NA,NA,2,0.5,0.5,4,5,289,7,NA
fcp-trial,325,1360141,0.0-300.0-0.0,voc_e2,11933,"[{""event"":""fullscreenenter"",""trial"":1,""time"":11992}]",NA,NA,NA,NA,NA,3,#D89F1C,#3386FF,0,10,0,38,1,666.8999999761581,39,0,494.7000000476837,10,1,experiment,NA,NA,1,0.3,0.7,3,2,290,7,NA
fcp-trial,326,1362823,0.0-301.0-0.0,voc_e2,11933,"[{""event"":""fullscreenenter"",""trial"":1,""time"":11992}]",NA,NA,NA,NA,NA,6,#1CD855,#FA92F8,10,0,1,40,0,742.3999999761581,37,1,426.10000002384186,10,1,experiment,NA,NA,2,0.5,0.5,4,5,291,7,NA
fcp-trial,327,1365372,0.0-302.0-0.0,voc_e2,11933,"[{""event"":""fullscreenenter"",""trial"":1,""time"":11992}]",NA,NA,NA,NA,NA,3,#D8271C,#741CD8,10,0,1,38,1,710.5999999046326,37,1,324,10,1,experiment,NA,NA,0,0.9,0.1,0,1,292,7,NA
fcp-trial,328,1368078,0.0-303.0-0.0,voc_e2,11933,"[{""event"":""fullscreenenter"",""trial"":1,""time"":11992}]",NA,NA,NA,NA,NA,5,#D89F1C,#3386FF,10,10,0,38,1,909.7999999523163,39,0,283.1999999284744,10,1,experiment,NA,NA,1,0.3,0.7,3,2,293,7,NA
fcp-trial,329,1370657,0.0-304.0-0.0,voc_e2,11933,"[{""event"":""fullscreenenter"",""trial"":1,""time"":11992}]",NA,NA,NA,NA,NA,2,#3386FF,#D89F1C,10,0,1,38,1,790.6000000238419,37,1,273.7000000476837,10,1,experiment,NA,NA,1,0.7,0.3,2,3,294,7,NA
fcp-trial,330,1373008,0.0-305.0-0.0,voc_e2,11933,"[{""event"":""fullscreenenter"",""trial"":1,""time"":11992}]",NA,NA,NA,NA,NA,3,#D89F1C,#3386FF,10,10,0,38,1,564.3000000715256,39,0,268.10000002384186,10,1,experiment,NA,NA,1,0.3,0.7,3,2,295,7,NA
fcp-trial,331,1375662,0.0-306.0-0.0,voc_e2,11933,"[{""event"":""fullscreenenter"",""trial"":1,""time"":11992}]",NA,NA,NA,NA,NA,2,#741CD8,#D8271C,0,10,0,38,1,733.6000000238419,39,0,408,10,1,experiment,NA,NA,0,0.1,0.9,1,0,296,7,NA
fcp-trial,332,1378223,0.0-307.0-0.0,voc_e2,11933,"[{""event"":""fullscreenenter"",""trial"":1,""time"":11992}]",NA,NA,NA,NA,NA,3,#741CD8,#D8271C,0,10,0,38,1,735.7999999523163,39,0,303.7000000476837,10,1,experiment,NA,NA,0,0.1,0.9,1,0,297,7,NA
fcp-trial,333,1380767,0.0-308.0-0.0,voc_e2,11933,"[{""event"":""fullscreenenter"",""trial"":1,""time"":11992}]",NA,NA,NA,NA,NA,4,#3386FF,#D89F1C,0,0,1,38,1,747.3000000715256,37,1,286.6999999284744,0,1,experiment,NA,NA,1,0.7,0.3,2,3,298,7,NA
fcp-trial,334,1383259,0.0-309.0-0.0,voc_e2,11933,"[{""event"":""fullscreenenter"",""trial"":1,""time"":11992}]",NA,NA,NA,NA,NA,0,#FA92F8,#1CD855,10,10,0,40,0,552.7999999523163,37,1,423.2000000476837,10,0,experiment,NA,NA,2,0.5,0.5,5,4,299,7,NA
fcp-trial,335,1385826,0.0-310.0-0.0,voc_e2,11933,"[{""event"":""fullscreenenter"",""trial"":1,""time"":11992}]",NA,NA,NA,NA,NA,4,#741CD8,#D8271C,10,0,0,38,1,762.8999999761581,39,0,286.1999999284744,0,1,experiment,NA,NA,0,0.1,0.9,1,0,300,7,NA
fcp-trial,336,1388709,0.0-311.0-0.0,voc_e2,11933,"[{""event"":""fullscreenenter"",""trial"":1,""time"":11992}]",NA,NA,NA,NA,NA,6,#D89F1C,#3386FF,10,10,0,38,1,631.2999999523163,39,0,720.6000000238419,10,1,experiment,NA,NA,1,0.3,0.7,3,2,301,7,NA
fcp-trial,337,1391412,0.0-312.0-0.0,voc_e2,11933,"[{""event"":""fullscreenenter"",""trial"":1,""time"":11992}]",NA,NA,NA,NA,NA,5,#1CD855,#FA92F8,0,10,1,40,0,849.7000000476837,39,0,340.5,10,0,experiment,NA,NA,2,0.5,0.5,4,5,302,7,NA
fcp-trial,338,1394341,0.0-313.0-0.0,voc_e2,11933,"[{""event"":""fullscreenenter"",""trial"":1,""time"":11992}]",NA,NA,NA,NA,NA,2,#FA92F8,#1CD855,0,0,0,40,0,834.6999999284744,39,0,570.7999999523163,0,1,experiment,NA,NA,2,0.5,0.5,5,4,303,7,NA
fcp-trial,339,1397079,0.0-314.0-0.0,voc_e2,11933,"[{""event"":""fullscreenenter"",""trial"":1,""time"":11992}]",NA,NA,NA,NA,NA,5,#741CD8,#D8271C,0,10,0,38,1,900.2999999523163,39,0,323.89999997615814,10,1,experiment,NA,NA,0,0.1,0.9,1,0,304,7,NA
fcp-trial,340,1400591,0.0-315.0-0.0,voc_e2,11933,"[{""event"":""fullscreenenter"",""trial"":1,""time"":11992}]",NA,NA,NA,NA,NA,5,#D89F1C,#3386FF,0,0,0,38,1,1721.8999999761581,39,0,276.2000000476837,0,1,experiment,NA,NA,1,0.3,0.7,3,2,305,7,NA
fcp-trial,341,1403380,0.0-316.0-0.0,voc_e2,11933,"[{""event"":""fullscreenenter"",""trial"":1,""time"":11992}]",NA,NA,NA,NA,NA,1,#FA92F8,#1CD855,10,0,0,40,0,848.3999999761581,39,0,427.39999997615814,0,1,experiment,NA,NA,2,0.5,0.5,5,4,306,7,NA
fcp-trial,342,1405809,0.0-317.0-0.0,voc_e2,11933,"[{""event"":""fullscreenenter"",""trial"":1,""time"":11992}]",NA,NA,NA,NA,NA,6,#D8271C,#741CD8,10,0,1,38,1,583,37,1,329.09999990463257,10,1,experiment,NA,NA,0,0.9,0.1,0,1,307,7,NA
fcp-trial,343,1408592,0.0-318.0-0.0,voc_e2,11933,"[{""event"":""fullscreenenter"",""trial"":1,""time"":11992}]",NA,NA,NA,NA,NA,4,#FA92F8,#1CD855,0,0,0,38,1,810.0999999046326,37,1,454.7000000476837,0,0,experiment,NA,NA,2,0.5,0.5,5,4,308,7,NA
fcp-trial,344,1412115,0.0-319.0-0.0,voc_e2,11933,"[{""event"":""fullscreenenter"",""trial"":1,""time"":11992}]",NA,NA,NA,NA,NA,0,#3386FF,#D89F1C,10,0,1,38,1,1602.3000000715256,37,1,406.89999997615814,10,1,experiment,NA,NA,1,0.7,0.3,2,3,309,7,NA
fcp-trial,345,1415027,0.0-320.0-0.0,voc_e2,11933,"[{""event"":""fullscreenenter"",""trial"":1,""time"":11992}]",NA,NA,NA,NA,NA,2,#3386FF,#D89F1C,0,10,1,38,1,888.6999999284744,37,1,509.3000000715256,0,1,experiment,NA,NA,1,0.7,0.3,2,3,310,7,NA
fcp-trial,346,1418659,0.0-321.0-0.0,voc_e2,11933,"[{""event"":""fullscreenenter"",""trial"":1,""time"":11992}]",NA,NA,NA,NA,NA,6,#FA92F8,#1CD855,10,10,0,40,0,1019.1999999284744,37,1,1093,10,0,experiment,NA,NA,2,0.5,0.5,5,4,311,7,NA
fcp-trial,347,1421509,0.0-322.0-0.0,voc_e2,11933,"[{""event"":""fullscreenenter"",""trial"":1,""time"":11992}]",NA,NA,NA,NA,NA,1,#D8271C,#741CD8,10,0,1,38,1,1076.4000000953674,37,1,253.89999997615817,10,1,experiment,NA,NA,0,0.9,0.1,0,1,312,7,NA
fcp-trial,348,1424243,0.0-323.0-0.0,voc_e2,11933,"[{""event"":""fullscreenenter"",""trial"":1,""time"":11992}]",NA,NA,NA,NA,NA,3,#1CD855,#FA92F8,0,10,1,40,0,846,39,0,377.7000000476837,10,0,experiment,NA,NA,2,0.5,0.5,4,5,313,7,NA
fcp-trial,349,1427931,0.0-324.0-0.0,voc_e2,11933,"[{""event"":""fullscreenenter"",""trial"":1,""time"":11992}]",NA,NA,NA,NA,NA,0,#D8271C,#741CD8,10,0,1,40,0,765.3000000715256,37,1,1407.5999999046326,10,1,experiment,NA,NA,0,0.9,0.1,0,1,314,7,NA
fcp-trial,350,1431995,0.0-325.0-0.0,voc_e2,11933,"[{""event"":""fullscreenenter"",""trial"":1,""time"":11992}]",NA,NA,NA,NA,NA,1,#D89F1C,#3386FF,0,0,0,38,1,2036.8000000715256,39,0,509.5,0,1,experiment,NA,NA,1,0.3,0.7,3,2,315,7,NA
audio-instructions,351,1438830,0.0-326.0,voc_e2,11933,"[{""event"":""fullscreenenter"",""trial"":1,""time"":11992}]",NA,1104.399999976158,static/audio/finished.wav,NA,0,NA,NA,NA,NA,NA,NA,NA,NA,NA,NA,NA,NA,NA,NA,NA,NA,NA,NA,NA,NA,NA,NA,NA,NA,NA
audio-instructions,352,1451160,0.0-327.0-0.0,voc_e2,11933,"[{""event"":""fullscreenenter"",""trial"":1,""time"":11992}]",NA,1494.7000000476835,static/audio/explicit1.wav,NA,0,NA,NA,NA,NA,NA,NA,NA,NA,NA,NA,NA,NA,NA,NA,NA,NA,NA,NA,NA,NA,NA,NA,NA,NA,NA
audio-instructions,353,1459518,0.0-327.0-1.0,voc_e2,11933,"[{""event"":""fullscreenenter"",""trial"":1,""time"":11992}]",NA,762,static/audio/explicit2.wav,NA,0,NA,NA,NA,NA,NA,NA,NA,NA,NA,NA,NA,NA,NA,NA,NA,NA,NA,NA,NA,NA,NA,NA,NA,NA,NA
image-slider-response,354,1468517,0.0-328.0,voc_e2,11933,"[{""event"":""fullscreenenter"",""trial"":1,""time"":11992}]",NA,8995.799999952316,static/img/machines/machine1.png,NA,NA,NA,NA,NA,NA,NA,NA,NA,NA,NA,NA,NA,NA,NA,NA,explicit,NA,NA,NA,NA,NA,NA,NA,NA,NA,8
image-slider-response,355,1474289,0.0-329.0,voc_e2,11933,"[{""event"":""fullscreenenter"",""trial"":1,""time"":11992}]",NA,5769.899999976158,static/img/machines/machine5.png,NA,NA,NA,NA,NA,NA,NA,NA,NA,NA,NA,NA,NA,NA,NA,NA,explicit,NA,NA,NA,NA,NA,NA,NA,NA,NA,4
image-slider-response,356,1480507,0.0-330.0,voc_e2,11933,"[{""event"":""fullscreenenter"",""trial"":1,""time"":11992}]",NA,6215.100000023842,static/img/machines/machine3.png,NA,NA,NA,NA,NA,NA,NA,NA,NA,NA,NA,NA,NA,NA,NA,NA,explicit,NA,NA,NA,NA,NA,NA,NA,NA,NA,6
image-slider-response,357,1488553,0.0-331.0,voc_e2,11933,"[{""event"":""fullscreenenter"",""trial"":1,""time"":11992}]",NA,8043.600000023842,static/img/machines/machine4.png,NA,NA,NA,NA,NA,NA,NA,NA,NA,NA,NA,NA,NA,NA,NA,NA,explicit,NA,NA,NA,NA,NA,NA,NA,NA,NA,4
image-slider-response,358,1491039,0.0-332.0,voc_e2,11933,"[{""event"":""fullscreenenter"",""trial"":1,""time"":11992}]",NA,2483.2999999523163,static/img/machines/machine6.png,NA,NA,NA,NA,NA,NA,NA,NA,NA,NA,NA,NA,NA,NA,NA,NA,explicit,NA,NA,NA,NA,NA,NA,NA,NA,NA,4
image-slider-response,359,1498025,0.0-333.0,voc_e2,11933,"[{""event"":""fullscreenenter"",""trial"":1,""time"":11992}]",NA,6983,static/img/machines/machine2.png,NA,NA,NA,NA,NA,NA,NA,NA,NA,NA,NA,NA,NA,NA,NA,NA,explicit,NA,NA,NA,NA,NA,NA,NA,NA,NA,3
