trial_type,trial_index,time_elapsed,internal_node_id,task_version,subject_id,interactions,success,rt,stimulus,key_press,button_pressed,offer,arcade_color_L,arcade_color_R,arcade_outcome_L,arcade_outcome_R,correct,stage_1_key,stage_1_choice,stage_1_rt,stage_2_key,stage_2_choice,stage_2_rt,stage_3_outcome,accuracy,phase,responses,num_errors,context,reward_prob_L,reward_prob_R,arcade_id_L,arcade_id_R,trial,block,response
pavlovia,0,6,0.0-0.0,voc_e2,12212,[],NA,NA,NA,NA,NA,NA,NA,NA,NA,NA,NA,NA,NA,NA,NA,NA,NA,NA,NA,NA,NA,NA,NA,NA,NA,NA,NA,NA,NA,NA
fullscreen,1,4262,0.0-1.0,voc_e2,12212,"[{""event"":""fullscreenenter"",""trial"":1,""time"":3286}]",TRUE,NA,NA,NA,NA,NA,NA,NA,NA,NA,NA,NA,NA,NA,NA,NA,NA,NA,NA,NA,NA,NA,NA,NA,NA,NA,NA,NA,NA,NA
audio-keyboard-response,2,7403,0.0-2.0,voc_e2,12212,"[{""event"":""fullscreenenter"",""trial"":1,""time"":3286}]",NA,3080,static/audio/beep_loop.wav,32,NA,NA,NA,NA,NA,NA,NA,NA,NA,NA,NA,NA,NA,NA,NA,NA,NA,NA,NA,NA,NA,NA,NA,NA,NA,NA
audio-test,3,9136,0.0-3.0,voc_e2,12212,"[{""event"":""fullscreenenter"",""trial"":1,""time"":3286}]",NA,NA,static/audio/turtle.wav,NA,3,NA,NA,NA,NA,NA,NA,NA,NA,NA,NA,NA,NA,NA,NA,NA,NA,NA,NA,NA,NA,NA,NA,NA,NA,NA
audio-test,4,11290,0.0-4.0,voc_e2,12212,"[{""event"":""fullscreenenter"",""trial"":1,""time"":3286}]",NA,NA,static/audio/shark.wav,NA,2,NA,NA,NA,NA,NA,NA,NA,NA,NA,NA,NA,NA,NA,NA,NA,NA,NA,NA,NA,NA,NA,NA,NA,NA,NA
audio-instructions,5,18750,0.0-5.0-0.0,voc_e2,12212,"[{""event"":""fullscreenenter"",""trial"":1,""time"":3286}]",NA,1681.2000000476835,static/audio/instructions1.wav,NA,0,NA,NA,NA,NA,NA,NA,NA,NA,NA,NA,NA,NA,NA,NA,NA,NA,NA,NA,NA,NA,NA,NA,NA,NA,NA
audio-instructions,6,26438,0.0-5.0-1.0,voc_e2,12212,"[{""event"":""fullscreenenter"",""trial"":1,""time"":3286}]",NA,949.899999976158,static/audio/instructions2.wav,NA,0,NA,NA,NA,NA,NA,NA,NA,NA,NA,NA,NA,NA,NA,NA,NA,NA,NA,NA,NA,NA,NA,NA,NA,NA,NA
audio-instructions,7,33392,0.0-5.0-2.0,voc_e2,12212,"[{""event"":""fullscreenenter"",""trial"":1,""time"":3286}]",NA,1143.199999988079,static/audio/instructions3.wav,NA,0,NA,NA,NA,NA,NA,NA,NA,NA,NA,NA,NA,NA,NA,NA,NA,NA,NA,NA,NA,NA,NA,NA,NA,NA,NA
audio-instructions,8,48354,0.0-5.0-3.0,voc_e2,12212,"[{""event"":""fullscreenenter"",""trial"":1,""time"":3286}]",NA,1736,static/audio/instructions4.wav,NA,0,NA,NA,NA,NA,NA,NA,NA,NA,NA,NA,NA,NA,NA,NA,NA,NA,NA,NA,NA,NA,NA,NA,NA,NA,NA
audio-instructions,9,59114,0.0-5.0-4.0,voc_e2,12212,"[{""event"":""fullscreenenter"",""trial"":1,""time"":3286}]",NA,1375.4000000357628,static/audio/instructions5.wav,NA,0,NA,NA,NA,NA,NA,NA,NA,NA,NA,NA,NA,NA,NA,NA,NA,NA,NA,NA,NA,NA,NA,NA,NA,NA,NA
fcp-practice,10,61431,0.0-5.0-5.0-0.0,voc_e2,12212,"[{""event"":""fullscreenenter"",""trial"":1,""time"":3286}]",NA,NA,NA,NA,NA,NA,#EDC948,#46d3c8,10,0,1,null,null,null,37,1,804.1999999880791,10,1,practice,NA,NA,NA,NA,NA,NA,NA,NA,NA,NA
fcp-practice,11,63602,0.0-5.0-5.0-1.0,voc_e2,12212,"[{""event"":""fullscreenenter"",""trial"":1,""time"":3286}]",NA,NA,NA,NA,NA,NA,#EDC948,#46d3c8,10,0,1,null,null,null,37,1,654.3999999761581,10,1,practice,NA,NA,NA,NA,NA,NA,NA,NA,NA,NA
fcp-practice,12,65515,0.0-5.0-5.0-2.0,voc_e2,12212,"[{""event"":""fullscreenenter"",""trial"":1,""time"":3286}]",NA,NA,NA,NA,NA,NA,#EDC948,#46d3c8,0,10,1,null,null,null,37,1,405.5,0,1,practice,NA,NA,NA,NA,NA,NA,NA,NA,NA,NA
fcp-practice,13,67384,0.0-5.0-5.0-3.0,voc_e2,12212,"[{""event"":""fullscreenenter"",""trial"":1,""time"":3286}]",NA,NA,NA,NA,NA,NA,#EDC948,#46d3c8,10,0,1,null,null,null,37,1,350.19999998807907,10,1,practice,NA,NA,NA,NA,NA,NA,NA,NA,NA,NA
fcp-practice,14,69233,0.0-5.0-5.0-4.0,voc_e2,12212,"[{""event"":""fullscreenenter"",""trial"":1,""time"":3286}]",NA,NA,NA,NA,NA,NA,#EDC948,#46d3c8,10,0,1,null,null,null,37,1,339.5,10,1,practice,NA,NA,NA,NA,NA,NA,NA,NA,NA,NA
audio-instructions,15,88910,0.0-5.0-6.0,voc_e2,12212,"[{""event"":""fullscreenenter"",""trial"":1,""time"":3286}]",NA,1670.699999988079,static/audio/instructions6.wav,NA,0,NA,NA,NA,NA,NA,NA,NA,NA,NA,NA,NA,NA,NA,NA,NA,NA,NA,NA,NA,NA,NA,NA,NA,NA,NA
audio-instructions,16,109470,0.0-5.0-7.0,voc_e2,12212,"[{""event"":""fullscreenenter"",""trial"":1,""time"":3286}]",NA,1361.300000011921,static/audio/instructions7.wav,NA,0,NA,NA,NA,NA,NA,NA,NA,NA,NA,NA,NA,NA,NA,NA,NA,NA,NA,NA,NA,NA,NA,NA,NA,NA,NA
audio-instructions,17,119822,0.0-5.0-8.0,voc_e2,12212,"[{""event"":""fullscreenenter"",""trial"":1,""time"":3286}]",NA,883.3999999761581,static/audio/instructions8.wav,NA,0,NA,NA,NA,NA,NA,NA,NA,NA,NA,NA,NA,NA,NA,NA,NA,NA,NA,NA,NA,NA,NA,NA,NA,NA,NA
fcp-comprehension,18,128158,0.0-5.0-9.0,voc_e2,12212,"[{""event"":""fullscreenenter"",""trial"":1,""time"":3286}]",NA,8334.800000011921,NA,NA,NA,NA,NA,NA,NA,NA,NA,NA,NA,NA,NA,NA,NA,NA,NA,NA,"false,true",1,NA,NA,NA,NA,NA,NA,NA,NA
audio-instructions,19,133714,0.0-5.1-0.1,voc_e2,12212,"[{""event"":""fullscreenenter"",""trial"":1,""time"":3286}]",NA,775.3999999761581,static/audio/instructions1.wav,NA,0,NA,NA,NA,NA,NA,NA,NA,NA,NA,NA,NA,NA,NA,NA,NA,NA,NA,NA,NA,NA,NA,NA,NA,NA,NA
audio-instructions,20,141222,0.0-5.1-1.1,voc_e2,12212,"[{""event"":""fullscreenenter"",""trial"":1,""time"":3286}]",NA,772.6000000238419,static/audio/instructions2.wav,NA,0,NA,NA,NA,NA,NA,NA,NA,NA,NA,NA,NA,NA,NA,NA,NA,NA,NA,NA,NA,NA,NA,NA,NA,NA,NA
audio-instructions,21,149812,0.0-5.1-2.1,voc_e2,12212,"[{""event"":""fullscreenenter"",""trial"":1,""time"":3286}]",NA,2783.599999964237,static/audio/instructions3.wav,NA,0,NA,NA,NA,NA,NA,NA,NA,NA,NA,NA,NA,NA,NA,NA,NA,NA,NA,NA,NA,NA,NA,NA,NA,NA,NA
audio-instructions,22,167836,0.0-5.1-3.1,voc_e2,12212,"[{""event"":""fullscreenenter"",""trial"":1,""time"":3286}]",NA,4797.599999964237,static/audio/instructions4.wav,NA,0,NA,NA,NA,NA,NA,NA,NA,NA,NA,NA,NA,NA,NA,NA,NA,NA,NA,NA,NA,NA,NA,NA,NA,NA,NA
audio-instructions,23,178502,0.0-5.1-4.1,voc_e2,12212,"[{""event"":""fullscreenenter"",""trial"":1,""time"":3286}]",NA,1283.2000000476835,static/audio/instructions5.wav,NA,0,NA,NA,NA,NA,NA,NA,NA,NA,NA,NA,NA,NA,NA,NA,NA,NA,NA,NA,NA,NA,NA,NA,NA,NA,NA
fcp-practice,24,181636,0.0-5.1-5.1-0.1,voc_e2,12212,"[{""event"":""fullscreenenter"",""trial"":1,""time"":3286}]",NA,NA,NA,NA,NA,NA,#EDC948,#46d3c8,10,0,1,null,null,null,37,1,1615.899999976158,10,1,practice,NA,NA,NA,NA,NA,NA,NA,NA,NA,NA
fcp-practice,25,184169,0.0-5.1-5.1-1.1,voc_e2,12212,"[{""event"":""fullscreenenter"",""trial"":1,""time"":3286}]",NA,NA,NA,NA,NA,NA,#EDC948,#46d3c8,10,0,1,null,null,null,37,1,1017.3000000119208,10,1,practice,NA,NA,NA,NA,NA,NA,NA,NA,NA,NA
fcp-practice,26,186151,0.0-5.1-5.1-2.1,voc_e2,12212,"[{""event"":""fullscreenenter"",""trial"":1,""time"":3286}]",NA,NA,NA,NA,NA,NA,#EDC948,#46d3c8,0,10,1,null,null,null,37,1,473.699999988079,0,1,practice,NA,NA,NA,NA,NA,NA,NA,NA,NA,NA
fcp-practice,27,188033,0.0-5.1-5.1-3.1,voc_e2,12212,"[{""event"":""fullscreenenter"",""trial"":1,""time"":3286}]",NA,NA,NA,NA,NA,NA,#EDC948,#46d3c8,10,0,1,null,null,null,37,1,369.199999988079,10,1,practice,NA,NA,NA,NA,NA,NA,NA,NA,NA,NA
fcp-practice,28,189994,0.0-5.1-5.1-4.1,voc_e2,12212,"[{""event"":""fullscreenenter"",""trial"":1,""time"":3286}]",NA,NA,NA,NA,NA,NA,#EDC948,#46d3c8,10,0,1,null,null,null,37,1,453.5,10,1,practice,NA,NA,NA,NA,NA,NA,NA,NA,NA,NA
audio-instructions,29,227403,0.0-5.1-6.1,voc_e2,12212,"[{""event"":""fullscreenenter"",""trial"":1,""time"":3286}]",NA,19404,static/audio/instructions6.wav,NA,0,NA,NA,NA,NA,NA,NA,NA,NA,NA,NA,NA,NA,NA,NA,NA,NA,NA,NA,NA,NA,NA,NA,NA,NA,NA
audio-instructions,30,249557,0.0-5.1-7.1,voc_e2,12212,"[{""event"":""fullscreenenter"",""trial"":1,""time"":3286}]",NA,2958.300000011921,static/audio/instructions7.wav,NA,0,NA,NA,NA,NA,NA,NA,NA,NA,NA,NA,NA,NA,NA,NA,NA,NA,NA,NA,NA,NA,NA,NA,NA,NA,NA
audio-instructions,31,260041,0.0-5.1-8.1,voc_e2,12212,"[{""event"":""fullscreenenter"",""trial"":1,""time"":3286}]",NA,1023.0999999642372,static/audio/instructions8.wav,NA,0,NA,NA,NA,NA,NA,NA,NA,NA,NA,NA,NA,NA,NA,NA,NA,NA,NA,NA,NA,NA,NA,NA,NA,NA,NA
fcp-comprehension,32,269182,0.0-5.1-9.1,voc_e2,12212,"[{""event"":""fullscreenenter"",""trial"":1,""time"":3286}]",NA,9139.30000001192,NA,NA,NA,NA,NA,NA,NA,NA,NA,NA,NA,NA,NA,NA,NA,NA,NA,NA,"true,true",0,NA,NA,NA,NA,NA,NA,NA,NA
audio-instructions,33,276035,0.0-6.0-0.0,voc_e2,12212,"[{""event"":""fullscreenenter"",""trial"":1,""time"":3286}]",NA,1306.899999976158,static/audio/instructions9.wav,NA,0,NA,NA,NA,NA,NA,NA,NA,NA,NA,NA,NA,NA,NA,NA,NA,NA,NA,NA,NA,NA,NA,NA,NA,NA,NA
audio-instructions,34,289577,0.0-6.0-1.0,voc_e2,12212,"[{""event"":""fullscreenenter"",""trial"":1,""time"":3286}]",NA,1429.199999988079,static/audio/instructions10.wav,NA,0,NA,NA,NA,NA,NA,NA,NA,NA,NA,NA,NA,NA,NA,NA,NA,NA,NA,NA,NA,NA,NA,NA,NA,NA,NA
fcp-trial,35,295378,0.0-6.0-2.0,voc_e2,12212,"[{""event"":""fullscreenenter"",""trial"":1,""time"":3286}]",NA,NA,NA,NA,NA,0,#EDC948,#46d3c8,10,10,1,38,1,2792.7999999523163,37,1,1483.899999976158,10,1,practice,NA,NA,NA,NA,NA,NA,NA,NA,NA,NA
audio-instructions,36,308730,0.0-6.0-3.0,voc_e2,12212,"[{""event"":""fullscreenenter"",""trial"":1,""time"":3286}]",NA,2341.099999964237,static/audio/instructions11.wav,NA,0,NA,NA,NA,NA,NA,NA,NA,NA,NA,NA,NA,NA,NA,NA,NA,NA,NA,NA,NA,NA,NA,NA,NA,NA,NA
fcp-trial,37,313683,0.0-6.0-4.0,voc_e2,12212,"[{""event"":""fullscreenenter"",""trial"":1,""time"":3286}]",NA,NA,NA,NA,NA,6,#EDC948,#46d3c8,10,10,1,40,0,1495.2999999523163,39,0,1942.699999988079,10,0,practice,NA,NA,NA,NA,NA,NA,NA,NA,NA,NA
audio-instructions,38,333508,0.0-6.0-5.0,voc_e2,12212,"[{""event"":""fullscreenenter"",""trial"":1,""time"":3286}]",NA,1139.300000011921,static/audio/instructions12.wav,NA,0,NA,NA,NA,NA,NA,NA,NA,NA,NA,NA,NA,NA,NA,NA,NA,NA,NA,NA,NA,NA,NA,NA,NA,NA,NA
audio-instructions,39,341627,0.0-6.0-6.0,voc_e2,12212,"[{""event"":""fullscreenenter"",""trial"":1,""time"":3286}]",NA,518.8999999761581,static/audio/instructions13.wav,NA,0,NA,NA,NA,NA,NA,NA,NA,NA,NA,NA,NA,NA,NA,NA,NA,NA,NA,NA,NA,NA,NA,NA,NA,NA,NA
audio-instructions,40,350679,0.0-6.0-7.0,voc_e2,12212,"[{""event"":""fullscreenenter"",""trial"":1,""time"":3286}]",NA,601.4000000357628,static/audio/instructions14.wav,NA,0,NA,NA,NA,NA,NA,NA,NA,NA,NA,NA,NA,NA,NA,NA,NA,NA,NA,NA,NA,NA,NA,NA,NA,NA,NA
audio-instructions,41,358524,0.0-7.0-0.0,voc_e2,12212,"[{""event"":""fullscreenenter"",""trial"":1,""time"":3286}]",NA,925,static/audio/instructions15.wav,NA,0,NA,NA,NA,NA,NA,NA,NA,NA,NA,NA,NA,NA,NA,NA,NA,NA,NA,NA,NA,NA,NA,NA,NA,NA,NA
audio-instructions,42,365802,0.0-7.0-1.0,voc_e2,12212,"[{""event"":""fullscreenenter"",""trial"":1,""time"":3286}]",NA,453.699999988079,static/audio/instructions16.wav,NA,0,NA,NA,NA,NA,NA,NA,NA,NA,NA,NA,NA,NA,NA,NA,NA,NA,NA,NA,NA,NA,NA,NA,NA,NA,NA
audio-instructions,43,374440,0.0-7.0-2.0,voc_e2,12212,"[{""event"":""fullscreenenter"",""trial"":1,""time"":3286}]",NA,960.600000023842,static/audio/instructions17.wav,NA,0,NA,NA,NA,NA,NA,NA,NA,NA,NA,NA,NA,NA,NA,NA,NA,NA,NA,NA,NA,NA,NA,NA,NA,NA,NA
audio-instructions,44,383226,0.0-7.0-3.0,voc_e2,12212,"[{""event"":""fullscreenenter"",""trial"":1,""time"":3286}]",NA,1017.6999999880792,static/audio/instructions18.wav,NA,0,NA,NA,NA,NA,NA,NA,NA,NA,NA,NA,NA,NA,NA,NA,NA,NA,NA,NA,NA,NA,NA,NA,NA,NA,NA
audio-instructions,45,390864,0.0-7.0-4.0,voc_e2,12212,"[{""event"":""fullscreenenter"",""trial"":1,""time"":3286}]",NA,895.3000000119209,static/audio/instructions19.wav,NA,0,NA,NA,NA,NA,NA,NA,NA,NA,NA,NA,NA,NA,NA,NA,NA,NA,NA,NA,NA,NA,NA,NA,NA,NA,NA
fcp-comprehension,46,400609,0.0-7.0-5.0,voc_e2,12212,"[{""event"":""fullscreenenter"",""trial"":1,""time"":3286}]",NA,9743.099999964235,NA,NA,NA,NA,NA,NA,NA,NA,NA,NA,NA,NA,NA,NA,NA,NA,NA,NA,"false,false,false,true",0,NA,NA,NA,NA,NA,NA,NA,NA
audio-instructions,47,412532,0.0-8.0,voc_e2,12212,"[{""event"":""fullscreenenter"",""trial"":1,""time"":3286}]",NA,2703.599999964237,static/audio/ready.wav,NA,0,NA,NA,NA,NA,NA,NA,NA,NA,NA,NA,NA,NA,NA,NA,NA,NA,NA,NA,NA,NA,NA,NA,NA,NA,NA
fcp-trial,48,419537,0.0-9.0-0.0,voc_e2,12212,"[{""event"":""fullscreenenter"",""trial"":1,""time"":3286}]",NA,NA,NA,NA,NA,4,#FA92F8,#1CD855,0,0,0,40,0,3117.699999988079,37,1,2369.2999999523163,0,0,experiment,NA,NA,2,0.5,0.5,5,4,1,1,NA
fcp-trial,49,425935,0.0-10.0-0.0,voc_e2,12212,"[{""event"":""fullscreenenter"",""trial"":1,""time"":3286}]",NA,NA,NA,NA,NA,3,#D8271C,#741CD8,10,0,1,40,0,3809.899999976158,37,1,1070.0999999642372,10,1,experiment,NA,NA,0,0.9,0.1,0,1,2,1,NA
fcp-trial,50,432345,0.0-11.0-0.0,voc_e2,12212,"[{""event"":""fullscreenenter"",""trial"":1,""time"":3286}]",NA,NA,NA,NA,NA,1,#3386FF,#D89F1C,0,0,1,40,0,3647.300000011921,39,0,1236.5,0,0,experiment,NA,NA,1,0.7,0.3,2,3,3,1,NA
fcp-trial,51,437711,0.0-12.0-0.0,voc_e2,12212,"[{""event"":""fullscreenenter"",""trial"":1,""time"":3286}]",NA,NA,NA,NA,NA,5,#D89F1C,#3386FF,10,0,0,40,0,3150.899999976158,37,1,701.5,10,0,experiment,NA,NA,1,0.3,0.7,3,2,4,1,NA
fcp-trial,52,445985,0.0-13.0-0.0,voc_e2,12212,"[{""event"":""fullscreenenter"",""trial"":1,""time"":3286}]",NA,NA,NA,NA,NA,3,#1CD855,#FA92F8,10,0,1,40,0,6132.699999988079,37,1,636.7999999523163,10,1,experiment,NA,NA,2,0.5,0.5,4,5,5,1,NA
fcp-trial,53,450071,0.0-14.0-0.0,voc_e2,12212,"[{""event"":""fullscreenenter"",""trial"":1,""time"":3286}]",NA,NA,NA,NA,NA,2,#741CD8,#D8271C,0,10,0,40,0,1897.300000011921,39,0,682.4000000357628,10,1,experiment,NA,NA,0,0.1,0.9,1,0,6,1,NA
fcp-trial,54,455592,0.0-15.0-0.0,voc_e2,12212,"[{""event"":""fullscreenenter"",""trial"":1,""time"":3286}]",NA,NA,NA,NA,NA,2,#3386FF,#D89F1C,10,0,1,40,0,3529,39,0,486.699999988079,0,0,experiment,NA,NA,1,0.7,0.3,2,3,7,1,NA
fcp-trial,55,460784,0.0-16.0-0.0,voc_e2,12212,"[{""event"":""fullscreenenter"",""trial"":1,""time"":3286}]",NA,NA,NA,NA,NA,0,#1CD855,#FA92F8,10,0,1,38,1,1177.8999999761581,37,1,2508.300000011921,10,1,experiment,NA,NA,2,0.5,0.5,4,5,8,1,NA
fcp-trial,56,464414,0.0-17.0-0.0,voc_e2,12212,"[{""event"":""fullscreenenter"",""trial"":1,""time"":3286}]",NA,NA,NA,NA,NA,6,#FA92F8,#1CD855,10,0,0,40,0,1094.3999999761581,39,0,1031.199999988079,0,1,experiment,NA,NA,2,0.5,0.5,5,4,9,1,NA
fcp-trial,57,470131,0.0-18.0-0.0,voc_e2,12212,"[{""event"":""fullscreenenter"",""trial"":1,""time"":3286}]",NA,NA,NA,NA,NA,1,#741CD8,#D8271C,0,10,0,38,1,2114.5,39,0,2096.399999976158,10,1,experiment,NA,NA,0,0.1,0.9,1,0,10,1,NA
fcp-trial,58,475434,0.0-19.0-0.0,voc_e2,12212,"[{""event"":""fullscreenenter"",""trial"":1,""time"":3286}]",NA,NA,NA,NA,NA,0,#3386FF,#D89F1C,10,0,1,38,1,1419.3999999761581,39,0,2378.900000035763,0,0,experiment,NA,NA,1,0.7,0.3,2,3,11,1,NA
fcp-trial,59,479538,0.0-20.0-0.0,voc_e2,12212,"[{""event"":""fullscreenenter"",""trial"":1,""time"":3286}]",NA,NA,NA,NA,NA,2,#FA92F8,#1CD855,0,0,0,40,0,1939.800000011921,37,1,659.1999999880791,0,0,experiment,NA,NA,2,0.5,0.5,5,4,12,1,NA
fcp-trial,60,483451,0.0-21.0-0.0,voc_e2,12212,"[{""event"":""fullscreenenter"",""trial"":1,""time"":3286}]",NA,NA,NA,NA,NA,6,#D8271C,#741CD8,10,0,1,40,0,1354.4000000357628,39,0,1053.300000011921,0,0,experiment,NA,NA,0,0.9,0.1,0,1,13,1,NA
fcp-trial,61,488494,0.0-22.0-0.0,voc_e2,12212,"[{""event"":""fullscreenenter"",""trial"":1,""time"":3286}]",NA,NA,NA,NA,NA,6,#3386FF,#D89F1C,0,0,1,40,0,2832.100000023842,39,0,704.5,0,0,experiment,NA,NA,1,0.7,0.3,2,3,14,1,NA
fcp-trial,62,492252,0.0-23.0-0.0,voc_e2,12212,"[{""event"":""fullscreenenter"",""trial"":1,""time"":3286}]",NA,NA,NA,NA,NA,5,#FA92F8,#1CD855,0,0,0,40,0,1591.699999988079,39,0,660.7000000476837,0,1,experiment,NA,NA,2,0.5,0.5,5,4,15,1,NA
fcp-trial,63,495332,0.0-24.0-0.0,voc_e2,12212,"[{""event"":""fullscreenenter"",""trial"":1,""time"":3286}]",NA,NA,NA,NA,NA,0,#D8271C,#741CD8,10,0,1,38,1,1004.7999999523163,37,1,570.6999999880791,10,1,experiment,NA,NA,0,0.9,0.1,0,1,16,1,NA
fcp-trial,64,500320,0.0-25.0-0.0,voc_e2,12212,"[{""event"":""fullscreenenter"",""trial"":1,""time"":3286}]",NA,NA,NA,NA,NA,4,#3386FF,#D89F1C,10,0,1,38,1,2823.599999964237,37,1,658.9000000357628,10,1,experiment,NA,NA,1,0.7,0.3,2,3,17,1,NA
fcp-trial,65,504406,0.0-26.0-0.0,voc_e2,12212,"[{""event"":""fullscreenenter"",""trial"":1,""time"":3286}]",NA,NA,NA,NA,NA,3,#D89F1C,#3386FF,0,10,0,40,0,2095.100000023842,39,0,486.5,10,1,experiment,NA,NA,1,0.3,0.7,3,2,18,1,NA
fcp-trial,66,509230,0.0-27.0-0.0,voc_e2,12212,"[{""event"":""fullscreenenter"",""trial"":1,""time"":3286}]",NA,NA,NA,NA,NA,1,#1CD855,#FA92F8,10,10,1,38,1,1442.199999988079,37,1,1878.199999988079,10,1,experiment,NA,NA,2,0.5,0.5,4,5,19,1,NA
fcp-trial,67,513229,0.0-28.0-0.0,voc_e2,12212,"[{""event"":""fullscreenenter"",""trial"":1,""time"":3286}]",NA,NA,NA,NA,NA,5,#741CD8,#D8271C,0,10,0,40,0,1159.5,39,0,1335.199999988079,10,1,experiment,NA,NA,0,0.1,0.9,1,0,20,1,NA
fcp-trial,68,516879,0.0-29.0-0.0,voc_e2,12212,"[{""event"":""fullscreenenter"",""trial"":1,""time"":3286}]",NA,NA,NA,NA,NA,4,#741CD8,#D8271C,0,10,0,40,0,1397.9000000357628,37,1,746.4000000357628,0,0,experiment,NA,NA,0,0.1,0.9,1,0,21,1,NA
fcp-trial,69,521357,0.0-30.0-0.0,voc_e2,12212,"[{""event"":""fullscreenenter"",""trial"":1,""time"":3286}]",NA,NA,NA,NA,NA,6,#D8271C,#741CD8,10,0,1,40,0,2399.600000023842,39,0,574,0,0,experiment,NA,NA,0,0.9,0.1,0,1,22,1,NA
fcp-trial,70,524483,0.0-31.0-0.0,voc_e2,12212,"[{""event"":""fullscreenenter"",""trial"":1,""time"":3286}]",NA,NA,NA,NA,NA,1,#3386FF,#D89F1C,0,0,1,38,1,982.8000000119209,37,1,636.8000000119209,0,1,experiment,NA,NA,1,0.7,0.3,2,3,23,1,NA
fcp-trial,71,527655,0.0-32.0-0.0,voc_e2,12212,"[{""event"":""fullscreenenter"",""trial"":1,""time"":3286}]",NA,NA,NA,NA,NA,0,#3386FF,#D89F1C,10,0,1,38,1,1160.1000000238419,37,1,506.5,10,1,experiment,NA,NA,1,0.7,0.3,2,3,24,1,NA
fcp-trial,72,531219,0.0-33.0-0.0,voc_e2,12212,"[{""event"":""fullscreenenter"",""trial"":1,""time"":3286}]",NA,NA,NA,NA,NA,0,#741CD8,#D8271C,0,10,0,38,1,1439.6000000238419,39,0,618.2000000476837,10,1,experiment,NA,NA,0,0.1,0.9,1,0,25,1,NA
fcp-trial,73,534757,0.0-34.0-0.0,voc_e2,12212,"[{""event"":""fullscreenenter"",""trial"":1,""time"":3286}]",NA,NA,NA,NA,NA,4,#D8271C,#741CD8,10,0,1,38,1,1570.800000011921,37,1,462.199999988079,10,1,experiment,NA,NA,0,0.9,0.1,0,1,26,1,NA
fcp-trial,74,537867,0.0-35.0-0.0,voc_e2,12212,"[{""event"":""fullscreenenter"",""trial"":1,""time"":3286}]",NA,NA,NA,NA,NA,6,#FA92F8,#1CD855,0,0,0,40,0,1029.800000011921,39,0,575.1000000238419,0,1,experiment,NA,NA,2,0.5,0.5,5,4,27,1,NA
fcp-trial,75,542649,0.0-36.0-0.0,voc_e2,12212,"[{""event"":""fullscreenenter"",""trial"":1,""time"":3286}]",NA,NA,NA,NA,NA,2,#D89F1C,#3386FF,0,10,0,38,1,1614.699999988079,39,0,1662.399999976158,10,1,experiment,NA,NA,1,0.3,0.7,3,2,28,1,NA
fcp-trial,76,547191,0.0-37.0-0.0,voc_e2,12212,"[{""event"":""fullscreenenter"",""trial"":1,""time"":3286}]",NA,NA,NA,NA,NA,1,#741CD8,#D8271C,10,10,0,38,1,1461.6000000238419,39,0,1575.9000000357628,10,1,experiment,NA,NA,0,0.1,0.9,1,0,29,1,NA
fcp-trial,77,550231,0.0-38.0-0.0,voc_e2,12212,"[{""event"":""fullscreenenter"",""trial"":1,""time"":3286}]",NA,NA,NA,NA,NA,5,#FA92F8,#1CD855,0,10,0,40,0,1050.300000011921,37,1,485,0,0,experiment,NA,NA,2,0.5,0.5,5,4,30,1,NA
fcp-trial,78,554536,0.0-39.0-0.0,voc_e2,12212,"[{""event"":""fullscreenenter"",""trial"":1,""time"":3286}]",NA,NA,NA,NA,NA,5,#3386FF,#D89F1C,0,0,1,40,0,2358.5,37,1,441.5999999642372,0,1,experiment,NA,NA,1,0.7,0.3,2,3,31,1,NA
fcp-trial,79,558798,0.0-40.0-0.0,voc_e2,12212,"[{""event"":""fullscreenenter"",""trial"":1,""time"":3286}]",NA,NA,NA,NA,NA,5,#741CD8,#D8271C,0,10,0,38,1,2249.2000000476837,39,0,509.300000011921,10,1,experiment,NA,NA,0,0.1,0.9,1,0,32,1,NA
fcp-trial,80,564122,0.0-41.0-0.0,voc_e2,12212,"[{""event"":""fullscreenenter"",""trial"":1,""time"":3286}]",NA,NA,NA,NA,NA,0,#1CD855,#FA92F8,10,0,1,38,1,2984.599999964237,37,1,832.8999999761581,10,1,experiment,NA,NA,2,0.5,0.5,4,5,33,1,NA
fcp-trial,81,567969,0.0-42.0-0.0,voc_e2,12212,"[{""event"":""fullscreenenter"",""trial"":1,""time"":3286}]",NA,NA,NA,NA,NA,2,#741CD8,#D8271C,0,10,0,38,1,2007.300000011921,39,0,334.39999997615814,10,1,experiment,NA,NA,0,0.1,0.9,1,0,34,1,NA
fcp-trial,82,571093,0.0-43.0-0.0,voc_e2,12212,"[{""event"":""fullscreenenter"",""trial"":1,""time"":3286}]",NA,NA,NA,NA,NA,6,#3386FF,#D89F1C,0,0,1,40,0,1157.3999999761581,37,1,463.5999999642372,0,1,experiment,NA,NA,1,0.7,0.3,2,3,35,1,NA
fcp-trial,83,575704,0.0-44.0-0.0,voc_e2,12212,"[{""event"":""fullscreenenter"",""trial"":1,""time"":3286}]",NA,NA,NA,NA,NA,1,#FA92F8,#1CD855,0,0,0,38,1,1550.800000011921,39,0,1551.9000000357628,0,1,experiment,NA,NA,2,0.5,0.5,5,4,36,1,NA
fcp-trial,84,578589,0.0-45.0-0.0,voc_e2,12212,"[{""event"":""fullscreenenter"",""trial"":1,""time"":3286}]",NA,NA,NA,NA,NA,4,#FA92F8,#1CD855,10,0,0,38,1,939.4000000357628,37,1,439.800000011921,10,0,experiment,NA,NA,2,0.5,0.5,5,4,37,1,NA
fcp-trial,85,581868,0.0-46.0-0.0,voc_e2,12212,"[{""event"":""fullscreenenter"",""trial"":1,""time"":3286}]",NA,NA,NA,NA,NA,3,#D8271C,#741CD8,10,0,1,38,1,1442.199999988079,37,1,331.60000002384186,10,1,experiment,NA,NA,0,0.9,0.1,0,1,38,1,NA
fcp-trial,86,585237,0.0-47.0-0.0,voc_e2,12212,"[{""event"":""fullscreenenter"",""trial"":1,""time"":3286}]",NA,NA,NA,NA,NA,3,#D89F1C,#3386FF,0,10,0,38,1,1487.800000011921,39,0,378.39999997615814,10,1,experiment,NA,NA,1,0.3,0.7,3,2,39,1,NA
fcp-trial,87,588950,0.0-48.0-0.0,voc_e2,12212,"[{""event"":""fullscreenenter"",""trial"":1,""time"":3286}]",NA,NA,NA,NA,NA,2,#1CD855,#FA92F8,0,0,1,38,1,1853.800000011921,37,1,354.5,0,1,experiment,NA,NA,2,0.5,0.5,4,5,40,1,NA
fcp-trial,88,593429,0.0-49.0-0.0,voc_e2,12212,"[{""event"":""fullscreenenter"",""trial"":1,""time"":3286}]",NA,NA,NA,NA,NA,4,#D89F1C,#3386FF,10,0,0,38,1,2204,39,0,769.3000000119209,0,1,experiment,NA,NA,1,0.3,0.7,3,2,41,1,NA
fcp-trial,89,596557,0.0-50.0-0.0,voc_e2,12212,"[{""event"":""fullscreenenter"",""trial"":1,""time"":3286}]",NA,NA,NA,NA,NA,3,#FA92F8,#1CD855,10,0,0,40,0,1178.7000000476837,39,0,444.300000011921,0,1,experiment,NA,NA,2,0.5,0.5,5,4,42,1,NA
fcp-trial,90,599770,0.0-51.0-0.0,voc_e2,12212,"[{""event"":""fullscreenenter"",""trial"":1,""time"":3286}]",NA,NA,NA,NA,NA,2,#FA92F8,#1CD855,0,0,0,38,1,1223,37,1,485.39999997615814,0,0,experiment,NA,NA,2,0.5,0.5,5,4,43,1,NA
fcp-trial,91,603271,0.0-52.0-0.0,voc_e2,12212,"[{""event"":""fullscreenenter"",""trial"":1,""time"":3286}]",NA,NA,NA,NA,NA,3,#D8271C,#741CD8,0,0,1,40,0,1551.5999999642372,39,0,444.2999999523163,0,0,experiment,NA,NA,0,0.9,0.1,0,1,44,1,NA
fcp-trial,92,606442,0.0-53.0-0.0,voc_e2,12212,"[{""event"":""fullscreenenter"",""trial"":1,""time"":3286}]",NA,NA,NA,NA,NA,3,#D89F1C,#3386FF,0,10,0,38,1,939.5,39,0,727,10,1,experiment,NA,NA,1,0.3,0.7,3,2,45,1,NA
fcp-trial,93,610286,0.0-54.0-0.0,voc_e2,12212,"[{""event"":""fullscreenenter"",""trial"":1,""time"":3286}]",NA,NA,NA,NA,NA,1,#D89F1C,#3386FF,0,0,0,38,1,830.8000000119209,39,0,1509.300000011921,0,1,experiment,NA,NA,1,0.3,0.7,3,2,46,2,NA
fcp-trial,94,614452,0.0-55.0-0.0,voc_e2,12212,"[{""event"":""fullscreenenter"",""trial"":1,""time"":3286}]",NA,NA,NA,NA,NA,0,#FA92F8,#1CD855,10,0,0,38,1,1089.1000000238419,37,1,1571.300000011921,10,0,experiment,NA,NA,2,0.5,0.5,5,4,47,2,NA
fcp-trial,95,617775,0.0-56.0-0.0,voc_e2,12212,"[{""event"":""fullscreenenter"",""trial"":1,""time"":3286}]",NA,NA,NA,NA,NA,6,#741CD8,#D8271C,0,10,0,40,0,1268.699999988079,37,1,549.3999999761581,0,0,experiment,NA,NA,0,0.1,0.9,1,0,48,2,NA
fcp-trial,96,621555,0.0-57.0-0.0,voc_e2,12212,"[{""event"":""fullscreenenter"",""trial"":1,""time"":3286}]",NA,NA,NA,NA,NA,1,#1CD855,#FA92F8,10,10,1,38,1,962.1999999880791,39,0,1313.699999988079,10,0,experiment,NA,NA,2,0.5,0.5,4,5,49,2,NA
fcp-trial,97,625464,0.0-58.0-0.0,voc_e2,12212,"[{""event"":""fullscreenenter"",""trial"":1,""time"":3286}]",NA,NA,NA,NA,NA,0,#D89F1C,#3386FF,10,0,0,38,1,1765,39,0,639.5,0,1,experiment,NA,NA,1,0.3,0.7,3,2,50,2,NA
fcp-trial,98,628196,0.0-59.0-0.0,voc_e2,12212,"[{""event"":""fullscreenenter"",""trial"":1,""time"":3286}]",NA,NA,NA,NA,NA,4,#FA92F8,#1CD855,10,0,0,38,1,830.8000000119209,37,1,395.5999999642372,10,0,experiment,NA,NA,2,0.5,0.5,5,4,51,2,NA
fcp-trial,99,631412,0.0-60.0-0.0,voc_e2,12212,"[{""event"":""fullscreenenter"",""trial"":1,""time"":3286}]",NA,NA,NA,NA,NA,5,#1CD855,#FA92F8,0,0,1,38,1,1180,39,0,529.5,0,0,experiment,NA,NA,2,0.5,0.5,4,5,52,2,NA
fcp-trial,100,636362,0.0-61.0-0.0,voc_e2,12212,"[{""event"":""fullscreenenter"",""trial"":1,""time"":3286}]",NA,NA,NA,NA,NA,4,#741CD8,#D8271C,0,10,0,40,0,2982.800000011921,37,1,462.39999997615814,0,0,experiment,NA,NA,0,0.1,0.9,1,0,53,2,NA
fcp-trial,101,639515,0.0-62.0-0.0,voc_e2,12212,"[{""event"":""fullscreenenter"",""trial"":1,""time"":3286}]",NA,NA,NA,NA,NA,4,#D89F1C,#3386FF,0,0,0,40,0,1093.1000000238419,39,0,552.9000000357628,0,1,experiment,NA,NA,1,0.3,0.7,3,2,54,2,NA
fcp-trial,102,644010,0.0-63.0-0.0,voc_e2,12212,"[{""event"":""fullscreenenter"",""trial"":1,""time"":3286}]",NA,NA,NA,NA,NA,0,#741CD8,#D8271C,0,10,0,38,1,1828.5999999642372,39,0,1162.4000000357628,10,1,experiment,NA,NA,0,0.1,0.9,1,0,55,2,NA
fcp-trial,103,647199,0.0-64.0-0.0,voc_e2,12212,"[{""event"":""fullscreenenter"",""trial"":1,""time"":3286}]",NA,NA,NA,NA,NA,6,#1CD855,#FA92F8,10,0,1,40,0,1242.800000011921,37,1,440.0999999642372,10,1,experiment,NA,NA,2,0.5,0.5,4,5,56,2,NA
fcp-trial,104,650739,0.0-65.0-0.0,voc_e2,12212,"[{""event"":""fullscreenenter"",""trial"":1,""time"":3286}]",NA,NA,NA,NA,NA,1,#D8271C,#741CD8,10,0,1,38,1,1637.8999999761581,37,1,397.60000002384186,10,1,experiment,NA,NA,0,0.9,0.1,0,1,57,2,NA
fcp-trial,105,654019,0.0-66.0-0.0,voc_e2,12212,"[{""event"":""fullscreenenter"",""trial"":1,""time"":3286}]",NA,NA,NA,NA,NA,5,#741CD8,#D8271C,10,10,0,40,0,1332.300000011921,37,1,442.10000002384186,10,0,experiment,NA,NA,0,0.1,0.9,1,0,58,2,NA
fcp-trial,106,657018,0.0-67.0-0.0,voc_e2,12212,"[{""event"":""fullscreenenter"",""trial"":1,""time"":3286}]",NA,NA,NA,NA,NA,6,#3386FF,#D89F1C,10,0,1,40,0,1006.9000000357628,39,0,487.2000000476837,0,0,experiment,NA,NA,1,0.7,0.3,2,3,59,2,NA
fcp-trial,107,660167,0.0-68.0-0.0,voc_e2,12212,"[{""event"":""fullscreenenter"",""trial"":1,""time"":3286}]",NA,NA,NA,NA,NA,2,#741CD8,#D8271C,0,10,0,38,1,1286.9000000357628,39,0,357.39999997615814,10,1,experiment,NA,NA,0,0.1,0.9,1,0,60,2,NA
fcp-trial,108,666378,0.0-69.0-0.0,voc_e2,12212,"[{""event"":""fullscreenenter"",""trial"":1,""time"":3286}]",NA,NA,NA,NA,NA,3,#FA92F8,#1CD855,0,10,0,38,1,2634.600000023842,37,1,2071,0,0,experiment,NA,NA,2,0.5,0.5,5,4,61,2,NA
fcp-trial,109,669463,0.0-70.0-0.0,voc_e2,12212,"[{""event"":""fullscreenenter"",""trial"":1,""time"":3286}]",NA,NA,NA,NA,NA,5,#D89F1C,#3386FF,0,10,0,40,0,1179.800000011921,39,0,400.60000002384186,10,1,experiment,NA,NA,1,0.3,0.7,3,2,62,2,NA
fcp-trial,110,673673,0.0-71.0-0.0,voc_e2,12212,"[{""event"":""fullscreenenter"",""trial"":1,""time"":3286}]",NA,NA,NA,NA,NA,2,#3386FF,#D89F1C,0,10,1,38,1,2243.100000023842,37,1,462.7000000476837,0,1,experiment,NA,NA,1,0.7,0.3,2,3,63,2,NA
fcp-trial,111,676563,0.0-72.0-0.0,voc_e2,12212,"[{""event"":""fullscreenenter"",""trial"":1,""time"":3286}]",NA,NA,NA,NA,NA,6,#1CD855,#FA92F8,0,10,1,40,0,985.3000000119209,39,0,400.0999999642372,10,0,experiment,NA,NA,2,0.5,0.5,4,5,64,2,NA
fcp-trial,112,679754,0.0-73.0-0.0,voc_e2,12212,"[{""event"":""fullscreenenter"",""trial"":1,""time"":3286}]",NA,NA,NA,NA,NA,0,#3386FF,#D89F1C,0,0,1,38,1,1307.7000000476837,37,1,377,0,1,experiment,NA,NA,1,0.7,0.3,2,3,65,2,NA
fcp-trial,113,683467,0.0-74.0-0.0,voc_e2,12212,"[{""event"":""fullscreenenter"",""trial"":1,""time"":3286}]",NA,NA,NA,NA,NA,5,#FA92F8,#1CD855,10,0,0,40,0,1657.8999999761581,37,1,550.4000000357628,10,0,experiment,NA,NA,2,0.5,0.5,5,4,66,2,NA
fcp-trial,114,686548,0.0-75.0-0.0,voc_e2,12212,"[{""event"":""fullscreenenter"",""trial"":1,""time"":3286}]",NA,NA,NA,NA,NA,3,#3386FF,#D89F1C,10,0,1,38,1,1179.3999999761581,37,1,396.300000011921,10,1,experiment,NA,NA,1,0.7,0.3,2,3,67,2,NA
fcp-trial,115,690372,0.0-76.0-0.0,voc_e2,12212,"[{""event"":""fullscreenenter"",""trial"":1,""time"":3286}]",NA,NA,NA,NA,NA,4,#D8271C,#741CD8,0,0,1,38,1,964,37,1,1353,0,1,experiment,NA,NA,0,0.9,0.1,0,1,68,2,NA
fcp-trial,116,693892,0.0-77.0-0.0,voc_e2,12212,"[{""event"":""fullscreenenter"",""trial"":1,""time"":3286}]",NA,NA,NA,NA,NA,3,#1CD855,#FA92F8,0,10,1,38,1,1462.800000011921,39,0,553.1000000238419,10,0,experiment,NA,NA,2,0.5,0.5,4,5,69,2,NA
fcp-trial,117,697019,0.0-78.0-0.0,voc_e2,12212,"[{""event"":""fullscreenenter"",""trial"":1,""time"":3286}]",NA,NA,NA,NA,NA,2,#741CD8,#D8271C,10,10,0,38,1,741.1000000238419,39,0,879.7999999523163,10,1,experiment,NA,NA,0,0.1,0.9,1,0,70,2,NA
fcp-trial,118,699776,0.0-79.0-0.0,voc_e2,12212,"[{""event"":""fullscreenenter"",""trial"":1,""time"":3286}]",NA,NA,NA,NA,NA,4,#D89F1C,#3386FF,0,10,0,38,1,894.5999999642372,39,0,357.80000001192093,10,1,experiment,NA,NA,1,0.3,0.7,3,2,71,2,NA
fcp-trial,119,703246,0.0-80.0-0.0,voc_e2,12212,"[{""event"":""fullscreenenter"",""trial"":1,""time"":3286}]",NA,NA,NA,NA,NA,1,#FA92F8,#1CD855,10,10,0,38,1,1328.800000011921,37,1,636.7000000476837,10,0,experiment,NA,NA,2,0.5,0.5,5,4,72,2,NA
fcp-trial,120,707136,0.0-81.0-0.0,voc_e2,12212,"[{""event"":""fullscreenenter"",""trial"":1,""time"":3286}]",NA,NA,NA,NA,NA,2,#D89F1C,#3386FF,10,10,0,38,1,1246.5999999642372,39,0,1138.800000011921,10,1,experiment,NA,NA,1,0.3,0.7,3,2,73,2,NA
fcp-trial,121,709870,0.0-82.0-0.0,voc_e2,12212,"[{""event"":""fullscreenenter"",""trial"":1,""time"":3286}]",NA,NA,NA,NA,NA,4,#1CD855,#FA92F8,0,10,1,38,1,504.19999998807907,37,1,724.5,0,1,experiment,NA,NA,2,0.5,0.5,4,5,74,2,NA
fcp-trial,122,713432,0.0-83.0-0.0,voc_e2,12212,"[{""event"":""fullscreenenter"",""trial"":1,""time"":3286}]",NA,NA,NA,NA,NA,6,#D8271C,#741CD8,10,0,1,38,1,1680.2000000476837,37,1,376.199999988079,10,1,experiment,NA,NA,0,0.9,0.1,0,1,75,2,NA
fcp-trial,123,716496,0.0-84.0-0.0,voc_e2,12212,"[{""event"":""fullscreenenter"",""trial"":1,""time"":3286}]",NA,NA,NA,NA,NA,5,#3386FF,#D89F1C,0,10,1,40,0,1138.3999999761581,39,0,422.10000002384186,10,0,experiment,NA,NA,1,0.7,0.3,2,3,76,2,NA
fcp-trial,124,719822,0.0-85.0-0.0,voc_e2,12212,"[{""event"":""fullscreenenter"",""trial"":1,""time"":3286}]",NA,NA,NA,NA,NA,1,#741CD8,#D8271C,0,10,0,38,1,767,39,0,1054.5,10,1,experiment,NA,NA,0,0.1,0.9,1,0,77,2,NA
fcp-trial,125,722600,0.0-86.0-0.0,voc_e2,12212,"[{""event"":""fullscreenenter"",""trial"":1,""time"":3286}]",NA,NA,NA,NA,NA,0,#741CD8,#D8271C,0,10,0,38,1,741.8999999761581,39,0,531.2000000476837,10,1,experiment,NA,NA,0,0.1,0.9,1,0,78,2,NA
fcp-trial,126,725833,0.0-87.0-0.0,voc_e2,12212,"[{""event"":""fullscreenenter"",""trial"":1,""time"":3286}]",NA,NA,NA,NA,NA,0,#FA92F8,#1CD855,0,10,0,38,1,916.7000000476837,37,1,810.9000000357628,0,0,experiment,NA,NA,2,0.5,0.5,5,4,79,2,NA
fcp-trial,127,728961,0.0-88.0-0.0,voc_e2,12212,"[{""event"":""fullscreenenter"",""trial"":1,""time"":3286}]",NA,NA,NA,NA,NA,1,#3386FF,#D89F1C,0,10,1,38,1,919,37,1,701.8000000119209,0,1,experiment,NA,NA,1,0.7,0.3,2,3,80,2,NA
fcp-trial,128,731570,0.0-89.0-0.0,voc_e2,12212,"[{""event"":""fullscreenenter"",""trial"":1,""time"":3286}]",NA,NA,NA,NA,NA,5,#741CD8,#D8271C,0,10,0,38,1,704.0999999642372,39,0,398.7000000476837,10,1,experiment,NA,NA,0,0.1,0.9,1,0,81,2,NA
fcp-trial,129,734588,0.0-90.0-0.0,voc_e2,12212,"[{""event"":""fullscreenenter"",""trial"":1,""time"":3286}]",NA,NA,NA,NA,NA,3,#741CD8,#D8271C,0,10,0,38,1,1068.8999999761581,39,0,444.199999988079,10,1,experiment,NA,NA,0,0.1,0.9,1,0,82,2,NA
fcp-trial,130,737626,0.0-91.0-0.0,voc_e2,12212,"[{""event"":""fullscreenenter"",""trial"":1,""time"":3286}]",NA,NA,NA,NA,NA,6,#D89F1C,#3386FF,0,10,0,40,0,1070.6000000238419,37,1,461.699999988079,0,0,experiment,NA,NA,1,0.3,0.7,3,2,83,2,NA
fcp-trial,131,740625,0.0-92.0-0.0,voc_e2,12212,"[{""event"":""fullscreenenter"",""trial"":1,""time"":3286}]",NA,NA,NA,NA,NA,2,#FA92F8,#1CD855,0,0,0,38,1,1008.7999999523163,37,1,484.5,0,0,experiment,NA,NA,2,0.5,0.5,5,4,84,2,NA
fcp-trial,132,743317,0.0-93.0-0.0,voc_e2,12212,"[{""event"":""fullscreenenter"",""trial"":1,""time"":3286}]",NA,NA,NA,NA,NA,4,#D8271C,#741CD8,10,0,1,38,1,832.3999999761581,37,1,354.69999998807907,10,1,experiment,NA,NA,0,0.9,0.1,0,1,85,2,NA
fcp-trial,133,746078,0.0-94.0-0.0,voc_e2,12212,"[{""event"":""fullscreenenter"",""trial"":1,""time"":3286}]",NA,NA,NA,NA,NA,5,#741CD8,#D8271C,0,10,0,38,1,833.1000000238419,39,0,423.39999997615814,10,1,experiment,NA,NA,0,0.1,0.9,1,0,86,2,NA
fcp-trial,134,748636,0.0-95.0-0.0,voc_e2,12212,"[{""event"":""fullscreenenter"",""trial"":1,""time"":3286}]",NA,NA,NA,NA,NA,1,#3386FF,#D89F1C,10,10,1,38,1,697.8999999761581,37,1,353.80000001192093,10,1,experiment,NA,NA,1,0.7,0.3,2,3,87,2,NA
fcp-trial,135,751112,0.0-96.0-0.0,voc_e2,12212,"[{""event"":""fullscreenenter"",""trial"":1,""time"":3286}]",NA,NA,NA,NA,NA,5,#3386FF,#D89F1C,0,0,1,38,1,573.5,37,1,396,0,1,experiment,NA,NA,1,0.7,0.3,2,3,88,2,NA
fcp-trial,136,754000,0.0-97.0-0.0,voc_e2,12212,"[{""event"":""fullscreenenter"",""trial"":1,""time"":3286}]",NA,NA,NA,NA,NA,0,#FA92F8,#1CD855,10,0,0,38,1,941.8999999761581,37,1,441.60000002384186,10,0,experiment,NA,NA,2,0.5,0.5,5,4,89,2,NA
fcp-trial,137,756762,0.0-98.0-0.0,voc_e2,12212,"[{""event"":""fullscreenenter"",""trial"":1,""time"":3286}]",NA,NA,NA,NA,NA,5,#1CD855,#FA92F8,0,10,1,40,0,876.6999999880791,39,0,379.5999999642372,10,0,experiment,NA,NA,2,0.5,0.5,4,5,90,2,NA
fcp-trial,138,759584,0.0-99.0-0.0,voc_e2,12212,"[{""event"":""fullscreenenter"",""trial"":1,""time"":3286}]",NA,NA,NA,NA,NA,6,#741CD8,#D8271C,0,10,0,40,0,959.3000000119209,39,0,357.60000002384186,10,1,experiment,NA,NA,0,0.1,0.9,1,0,91,3,NA
fcp-trial,139,763800,0.0-100.0-0.0,voc_e2,12212,"[{""event"":""fullscreenenter"",""trial"":1,""time"":3286}]",NA,NA,NA,NA,NA,2,#D89F1C,#3386FF,0,10,0,38,1,1069.800000011921,39,0,1640.399999976158,10,1,experiment,NA,NA,1,0.3,0.7,3,2,92,3,NA
fcp-trial,140,766730,0.0-101.0-0.0,voc_e2,12212,"[{""event"":""fullscreenenter"",""trial"":1,""time"":3286}]",NA,NA,NA,NA,NA,1,#FA92F8,#1CD855,10,10,0,38,1,1090.5999999642372,37,1,333.89999997615814,10,0,experiment,NA,NA,2,0.5,0.5,5,4,93,3,NA
fcp-trial,141,769551,0.0-102.0-0.0,voc_e2,12212,"[{""event"":""fullscreenenter"",""trial"":1,""time"":3286}]",NA,NA,NA,NA,NA,3,#3386FF,#D89F1C,10,10,1,38,1,962.1000000238419,37,1,353.69999998807907,10,1,experiment,NA,NA,1,0.7,0.3,2,3,94,3,NA
fcp-trial,142,772115,0.0-103.0-0.0,voc_e2,12212,"[{""event"":""fullscreenenter"",""trial"":1,""time"":3286}]",NA,NA,NA,NA,NA,4,#D89F1C,#3386FF,10,10,0,38,1,680.8999999761581,39,0,378.5999999642372,10,1,experiment,NA,NA,1,0.3,0.7,3,2,95,3,NA
fcp-trial,143,774718,0.0-104.0-0.0,voc_e2,12212,"[{""event"":""fullscreenenter"",""trial"":1,""time"":3286}]",NA,NA,NA,NA,NA,0,#D8271C,#741CD8,10,0,1,38,1,678.8000000119209,37,1,420.199999988079,10,1,experiment,NA,NA,0,0.9,0.1,0,1,96,3,NA
fcp-trial,144,778149,0.0-105.0-0.0,voc_e2,12212,"[{""event"":""fullscreenenter"",""trial"":1,""time"":3286}]",NA,NA,NA,NA,NA,6,#FA92F8,#1CD855,0,0,0,38,1,746.8999999761581,37,1,1180.199999988079,0,0,experiment,NA,NA,2,0.5,0.5,5,4,97,3,NA
fcp-trial,145,780799,0.0-106.0-0.0,voc_e2,12212,"[{""event"":""fullscreenenter"",""trial"":1,""time"":3286}]",NA,NA,NA,NA,NA,3,#D8271C,#741CD8,10,0,1,38,1,877.3000000119209,37,1,267.7000000476837,10,1,experiment,NA,NA,0,0.9,0.1,0,1,98,3,NA
fcp-trial,146,783926,0.0-107.0-0.0,voc_e2,12212,"[{""event"":""fullscreenenter"",""trial"":1,""time"":3286}]",NA,NA,NA,NA,NA,6,#3386FF,#D89F1C,0,0,1,40,0,1202.300000011921,37,1,419.0999999642372,0,1,experiment,NA,NA,1,0.7,0.3,2,3,99,3,NA
fcp-trial,147,786926,0.0-108.0-0.0,voc_e2,12212,"[{""event"":""fullscreenenter"",""trial"":1,""time"":3286}]",NA,NA,NA,NA,NA,2,#1CD855,#FA92F8,0,10,1,38,1,1028.6000000238419,39,0,465.699999988079,10,0,experiment,NA,NA,2,0.5,0.5,4,5,100,3,NA
fcp-trial,148,789531,0.0-109.0-0.0,voc_e2,12212,"[{""event"":""fullscreenenter"",""trial"":1,""time"":3286}]",NA,NA,NA,NA,NA,4,#1CD855,#FA92F8,10,0,1,38,1,677.5,39,0,422.800000011921,0,0,experiment,NA,NA,2,0.5,0.5,4,5,101,3,NA
fcp-trial,149,792572,0.0-110.0-0.0,voc_e2,12212,"[{""event"":""fullscreenenter"",""trial"":1,""time"":3286}]",NA,NA,NA,NA,NA,3,#1CD855,#FA92F8,10,0,1,38,1,1069.1000000238419,39,0,467.60000002384186,0,0,experiment,NA,NA,2,0.5,0.5,4,5,102,3,NA
fcp-trial,150,795414,0.0-111.0-0.0,voc_e2,12212,"[{""event"":""fullscreenenter"",""trial"":1,""time"":3286}]",NA,NA,NA,NA,NA,2,#741CD8,#D8271C,0,10,0,38,1,697.3999999761581,39,0,639.1999999880791,10,1,experiment,NA,NA,0,0.1,0.9,1,0,103,3,NA
fcp-trial,151,798889,0.0-112.0-0.0,voc_e2,12212,"[{""event"":""fullscreenenter"",""trial"":1,""time"":3286}]",NA,NA,NA,NA,NA,0,#D89F1C,#3386FF,0,0,0,38,1,1090.300000011921,39,0,878.4000000357628,0,1,experiment,NA,NA,1,0.3,0.7,3,2,104,3,NA
fcp-trial,152,801645,0.0-113.0-0.0,voc_e2,12212,"[{""event"":""fullscreenenter"",""trial"":1,""time"":3286}]",NA,NA,NA,NA,NA,1,#D8271C,#741CD8,0,0,1,38,1,983.3999999761581,37,1,267.10000002384186,0,1,experiment,NA,NA,0,0.9,0.1,0,1,105,3,NA
audio-instructions,153,856436,0.0-114.0,voc_e2,12212,"[{""event"":""fullscreenenter"",""trial"":1,""time"":3286}]",NA,50343.80000001192,static/audio/pause.wav,NA,0,NA,NA,NA,NA,NA,NA,NA,NA,NA,NA,NA,NA,NA,NA,NA,NA,NA,NA,NA,NA,NA,NA,NA,NA,NA
fcp-trial,154,861367,0.0-115.0-0.0,voc_e2,12212,"[{""event"":""fullscreenenter"",""trial"":1,""time"":3286}]",NA,NA,NA,NA,NA,6,#1CD855,#FA92F8,10,10,1,40,0,1762,39,0,1661.5,10,0,experiment,NA,NA,2,0.5,0.5,4,5,106,3,NA
fcp-trial,155,865431,0.0-116.0-0.0,voc_e2,12212,"[{""event"":""fullscreenenter"",""trial"":1,""time"":3286}]",NA,NA,NA,NA,NA,4,#FA92F8,#1CD855,10,10,0,40,0,2048.899999976158,39,0,509.5,10,1,experiment,NA,NA,2,0.5,0.5,5,4,107,3,NA
fcp-trial,156,869666,0.0-117.0-0.0,voc_e2,12212,"[{""event"":""fullscreenenter"",""trial"":1,""time"":3286}]",NA,NA,NA,NA,NA,4,#741CD8,#D8271C,10,10,0,38,1,2242.600000023842,39,0,487.699999988079,10,1,experiment,NA,NA,0,0.1,0.9,1,0,108,3,NA
fcp-trial,157,872418,0.0-118.0-0.0,voc_e2,12212,"[{""event"":""fullscreenenter"",""trial"":1,""time"":3286}]",NA,NA,NA,NA,NA,3,#D8271C,#741CD8,10,0,1,38,1,871.3999999761581,37,1,376.699999988079,10,1,experiment,NA,NA,0,0.9,0.1,0,1,109,3,NA
fcp-trial,158,875570,0.0-119.0-0.0,voc_e2,12212,"[{""event"":""fullscreenenter"",""trial"":1,""time"":3286}]",NA,NA,NA,NA,NA,4,#3386FF,#D89F1C,0,0,1,40,0,1202.5,39,0,444,0,0,experiment,NA,NA,1,0.7,0.3,2,3,110,3,NA
fcp-trial,159,878325,0.0-120.0-0.0,voc_e2,12212,"[{""event"":""fullscreenenter"",""trial"":1,""time"":3286}]",NA,NA,NA,NA,NA,0,#FA92F8,#1CD855,0,10,0,38,1,787.6000000238419,37,1,460.4000000357628,0,0,experiment,NA,NA,2,0.5,0.5,5,4,111,3,NA
fcp-trial,160,883212,0.0-121.0-0.0,voc_e2,12212,"[{""event"":""fullscreenenter"",""trial"":1,""time"":3286}]",NA,NA,NA,NA,NA,6,#D8271C,#741CD8,10,0,1,40,0,2920.300000011921,37,1,461.60000002384186,10,1,experiment,NA,NA,0,0.9,0.1,0,1,112,3,NA
fcp-trial,161,885928,0.0-122.0-0.0,voc_e2,12212,"[{""event"":""fullscreenenter"",""trial"":1,""time"":3286}]",NA,NA,NA,NA,NA,0,#D8271C,#741CD8,10,10,1,38,1,704.5,37,1,506.0999999642372,10,1,experiment,NA,NA,0,0.9,0.1,0,1,113,3,NA
fcp-trial,162,888686,0.0-123.0-0.0,voc_e2,12212,"[{""event"":""fullscreenenter"",""trial"":1,""time"":3286}]",NA,NA,NA,NA,NA,6,#D89F1C,#3386FF,10,10,0,40,0,789.6000000238419,37,1,462.60000002384186,10,0,experiment,NA,NA,1,0.3,0.7,3,2,114,3,NA
fcp-trial,163,891512,0.0-124.0-0.0,voc_e2,12212,"[{""event"":""fullscreenenter"",""trial"":1,""time"":3286}]",NA,NA,NA,NA,NA,2,#1CD855,#FA92F8,0,10,1,38,1,616.3000000119209,39,0,704.8999999761581,10,0,experiment,NA,NA,2,0.5,0.5,4,5,115,3,NA
fcp-trial,164,894596,0.0-125.0-0.0,voc_e2,12212,"[{""event"":""fullscreenenter"",""trial"":1,""time"":3286}]",NA,NA,NA,NA,NA,5,#FA92F8,#1CD855,10,0,0,40,0,1048.2000000476837,39,0,531,0,1,experiment,NA,NA,2,0.5,0.5,5,4,116,3,NA
fcp-trial,165,897220,0.0-126.0-0.0,voc_e2,12212,"[{""event"":""fullscreenenter"",""trial"":1,""time"":3286}]",NA,NA,NA,NA,NA,1,#FA92F8,#1CD855,0,10,0,38,1,677.8000000119209,37,1,441.39999997615814,0,0,experiment,NA,NA,2,0.5,0.5,5,4,117,3,NA
fcp-trial,166,899802,0.0-127.0-0.0,voc_e2,12212,"[{""event"":""fullscreenenter"",""trial"":1,""time"":3286}]",NA,NA,NA,NA,NA,2,#D8271C,#741CD8,10,0,1,38,1,680,37,1,397.5,10,1,experiment,NA,NA,0,0.9,0.1,0,1,118,3,NA
fcp-trial,167,903866,0.0-128.0-0.0,voc_e2,12212,"[{""event"":""fullscreenenter"",""trial"":1,""time"":3286}]",NA,NA,NA,NA,NA,2,#D89F1C,#3386FF,0,10,0,38,1,942.5,37,1,1615.199999988079,0,0,experiment,NA,NA,1,0.3,0.7,3,2,119,3,NA
fcp-trial,168,906324,0.0-129.0-0.0,voc_e2,12212,"[{""event"":""fullscreenenter"",""trial"":1,""time"":3286}]",NA,NA,NA,NA,NA,0,#D89F1C,#3386FF,0,10,0,38,1,528.5,39,0,423.800000011921,10,1,experiment,NA,NA,1,0.3,0.7,3,2,120,3,NA
fcp-trial,169,908601,0.0-130.0-0.0,voc_e2,12212,"[{""event"":""fullscreenenter"",""trial"":1,""time"":3286}]",NA,NA,NA,NA,NA,1,#D89F1C,#3386FF,0,10,0,38,1,437.4000000357628,39,0,335.69999998807907,10,1,experiment,NA,NA,1,0.3,0.7,3,2,121,3,NA
fcp-trial,170,911224,0.0-131.0-0.0,voc_e2,12212,"[{""event"":""fullscreenenter"",""trial"":1,""time"":3286}]",NA,NA,NA,NA,NA,3,#FA92F8,#1CD855,0,10,0,38,1,612.1000000238419,37,1,505.9000000357628,0,0,experiment,NA,NA,2,0.5,0.5,5,4,122,3,NA
fcp-trial,171,914853,0.0-132.0-0.0,voc_e2,12212,"[{""event"":""fullscreenenter"",""trial"":1,""time"":3286}]",NA,NA,NA,NA,NA,1,#D8271C,#741CD8,10,0,1,38,1,574.0999999642372,37,1,1549.199999988079,10,1,experiment,NA,NA,0,0.9,0.1,0,1,123,3,NA
fcp-trial,172,917374,0.0-133.0-0.0,voc_e2,12212,"[{""event"":""fullscreenenter"",""trial"":1,""time"":3286}]",NA,NA,NA,NA,NA,5,#741CD8,#D8271C,10,10,0,38,1,595.1999999880791,39,0,420.5,10,1,experiment,NA,NA,0,0.1,0.9,1,0,124,3,NA
fcp-trial,173,920130,0.0-134.0-0.0,voc_e2,12212,"[{""event"":""fullscreenenter"",""trial"":1,""time"":3286}]",NA,NA,NA,NA,NA,5,#3386FF,#D89F1C,10,10,1,40,0,851.3000000119209,39,0,399.9000000357628,10,0,experiment,NA,NA,1,0.7,0.3,2,3,125,3,NA
fcp-trial,174,923170,0.0-135.0-0.0,voc_e2,12212,"[{""event"":""fullscreenenter"",""trial"":1,""time"":3286}]",NA,NA,NA,NA,NA,3,#D89F1C,#3386FF,10,10,0,38,1,828.8000000119209,39,0,703,10,1,experiment,NA,NA,1,0.3,0.7,3,2,126,3,NA
fcp-trial,175,925558,0.0-136.0-0.0,voc_e2,12212,"[{""event"":""fullscreenenter"",""trial"":1,""time"":3286}]",NA,NA,NA,NA,NA,0,#D89F1C,#3386FF,10,0,0,38,1,548,39,0,334.60000002384186,0,1,experiment,NA,NA,1,0.3,0.7,3,2,127,3,NA
fcp-trial,176,928556,0.0-137.0-0.0,voc_e2,12212,"[{""event"":""fullscreenenter"",""trial"":1,""time"":3286}]",NA,NA,NA,NA,NA,6,#D8271C,#741CD8,0,10,1,40,0,1027,39,0,463.60000002384186,10,0,experiment,NA,NA,0,0.9,0.1,0,1,128,3,NA
fcp-trial,177,932206,0.0-138.0-0.0,voc_e2,12212,"[{""event"":""fullscreenenter"",""trial"":1,""time"":3286}]",NA,NA,NA,NA,NA,4,#D89F1C,#3386FF,0,10,0,38,1,918.5,39,0,1227.5,10,1,experiment,NA,NA,1,0.3,0.7,3,2,129,3,NA
fcp-trial,178,935700,0.0-139.0-0.0,voc_e2,12212,"[{""event"":""fullscreenenter"",""trial"":1,""time"":3286}]",NA,NA,NA,NA,NA,4,#1CD855,#FA92F8,10,0,1,38,1,591.3000000119209,37,1,1398,10,1,experiment,NA,NA,2,0.5,0.5,4,5,130,3,NA
fcp-trial,179,938331,0.0-140.0-0.0,voc_e2,12212,"[{""event"":""fullscreenenter"",""trial"":1,""time"":3286}]",NA,NA,NA,NA,NA,3,#1CD855,#FA92F8,10,0,1,38,1,639.3000000119209,39,0,487.199999988079,0,0,experiment,NA,NA,2,0.5,0.5,4,5,131,3,NA
fcp-trial,180,940958,0.0-141.0-0.0,voc_e2,12212,"[{""event"":""fullscreenenter"",""trial"":1,""time"":3286}]",NA,NA,NA,NA,NA,3,#D89F1C,#3386FF,0,0,0,38,1,613.3999999761581,39,0,508.800000011921,0,1,experiment,NA,NA,1,0.3,0.7,3,2,132,3,NA
fcp-trial,181,943762,0.0-142.0-0.0,voc_e2,12212,"[{""event"":""fullscreenenter"",""trial"":1,""time"":3286}]",NA,NA,NA,NA,NA,5,#741CD8,#D8271C,0,10,0,40,0,961.5,39,0,336.9000000357628,10,1,experiment,NA,NA,0,0.1,0.9,1,0,133,3,NA
fcp-trial,182,946340,0.0-143.0-0.0,voc_e2,12212,"[{""event"":""fullscreenenter"",""trial"":1,""time"":3286}]",NA,NA,NA,NA,NA,1,#FA92F8,#1CD855,0,10,0,38,1,631.9000000357628,37,1,440.5999999642372,0,0,experiment,NA,NA,2,0.5,0.5,5,4,134,3,NA
fcp-trial,183,949010,0.0-144.0-0.0,voc_e2,12212,"[{""event"":""fullscreenenter"",""trial"":1,""time"":3286}]",NA,NA,NA,NA,NA,2,#FA92F8,#1CD855,10,10,0,38,1,615.1999999880791,37,1,549.5,10,0,experiment,NA,NA,2,0.5,0.5,5,4,135,3,NA
fcp-trial,184,952180,0.0-145.0-0.0,voc_e2,12212,"[{""event"":""fullscreenenter"",""trial"":1,""time"":3286}]",NA,NA,NA,NA,NA,1,#3386FF,#D89F1C,10,0,1,38,1,680.8999999761581,37,1,984.5,10,1,experiment,NA,NA,1,0.7,0.3,2,3,136,4,NA
fcp-trial,185,954894,0.0-146.0-0.0,voc_e2,12212,"[{""event"":""fullscreenenter"",""trial"":1,""time"":3286}]",NA,NA,NA,NA,NA,1,#D8271C,#741CD8,10,0,1,38,1,746.1999999880791,37,1,462.800000011921,10,1,experiment,NA,NA,0,0.9,0.1,0,1,137,4,NA
fcp-trial,186,957651,0.0-147.0-0.0,voc_e2,12212,"[{""event"":""fullscreenenter"",""trial"":1,""time"":3286}]",NA,NA,NA,NA,NA,0,#FA92F8,#1CD855,0,0,0,38,1,790.1000000238419,37,1,460.300000011921,0,0,experiment,NA,NA,2,0.5,0.5,5,4,138,4,NA
fcp-trial,187,960082,0.0-148.0-0.0,voc_e2,12212,"[{""event"":""fullscreenenter"",""trial"":1,""time"":3286}]",NA,NA,NA,NA,NA,4,#D8271C,#741CD8,10,0,1,38,1,441.2000000476837,37,1,479.300000011921,10,1,experiment,NA,NA,0,0.9,0.1,0,1,139,4,NA
fcp-trial,188,963298,0.0-149.0-0.0,voc_e2,12212,"[{""event"":""fullscreenenter"",""trial"":1,""time"":3286}]",NA,NA,NA,NA,NA,2,#3386FF,#D89F1C,10,0,1,38,1,854.3999999761581,39,0,856.8000000119209,0,0,experiment,NA,NA,1,0.7,0.3,2,3,140,4,NA
fcp-trial,189,965813,0.0-150.0-0.0,voc_e2,12212,"[{""event"":""fullscreenenter"",""trial"":1,""time"":3286}]",NA,NA,NA,NA,NA,0,#D8271C,#741CD8,0,0,1,38,1,501.4000000357628,37,1,505.9000000357628,0,1,experiment,NA,NA,0,0.9,0.1,0,1,141,4,NA
fcp-trial,190,968833,0.0-151.0-0.0,voc_e2,12212,"[{""event"":""fullscreenenter"",""trial"":1,""time"":3286}]",NA,NA,NA,NA,NA,6,#FA92F8,#1CD855,10,10,0,40,0,1071.7000000476837,39,0,444.89999997615814,10,1,experiment,NA,NA,2,0.5,0.5,5,4,142,4,NA
fcp-trial,191,971480,0.0-152.0-0.0,voc_e2,12212,"[{""event"":""fullscreenenter"",""trial"":1,""time"":3286}]",NA,NA,NA,NA,NA,5,#D89F1C,#3386FF,0,10,0,40,0,742.6999999880791,37,1,398,0,0,experiment,NA,NA,1,0.3,0.7,3,2,143,4,NA
fcp-trial,192,974105,0.0-153.0-0.0,voc_e2,12212,"[{""event"":""fullscreenenter"",""trial"":1,""time"":3286}]",NA,NA,NA,NA,NA,2,#D8271C,#741CD8,10,10,1,38,1,744.8000000119209,37,1,375.2000000476837,10,1,experiment,NA,NA,0,0.9,0.1,0,1,144,4,NA
fcp-trial,193,976973,0.0-154.0-0.0,voc_e2,12212,"[{""event"":""fullscreenenter"",""trial"":1,""time"":3286}]",NA,NA,NA,NA,NA,5,#FA92F8,#1CD855,10,0,0,40,0,1008.1999999880791,37,1,353.39999997615814,10,0,experiment,NA,NA,2,0.5,0.5,5,4,145,4,NA
fcp-trial,194,980644,0.0-155.0-0.0,voc_e2,12212,"[{""event"":""fullscreenenter"",""trial"":1,""time"":3286}]",NA,NA,NA,NA,NA,3,#741CD8,#D8271C,0,10,0,38,1,1831.3999999761581,39,0,334.5,10,1,experiment,NA,NA,0,0.1,0.9,1,0,146,4,NA
fcp-trial,195,983251,0.0-156.0-0.0,voc_e2,12212,"[{""event"":""fullscreenenter"",""trial"":1,""time"":3286}]",NA,NA,NA,NA,NA,6,#D89F1C,#3386FF,0,10,0,40,0,721.8000000119209,39,0,380.5999999642372,10,1,experiment,NA,NA,1,0.3,0.7,3,2,147,4,NA
fcp-trial,196,985917,0.0-157.0-0.0,voc_e2,12212,"[{""event"":""fullscreenenter"",""trial"":1,""time"":3286}]",NA,NA,NA,NA,NA,5,#3386FF,#D89F1C,10,10,1,40,0,720.3000000119209,37,1,441.0999999642372,10,1,experiment,NA,NA,1,0.7,0.3,2,3,148,4,NA
fcp-trial,197,988674,0.0-158.0-0.0,voc_e2,12212,"[{""event"":""fullscreenenter"",""trial"":1,""time"":3286}]",NA,NA,NA,NA,NA,2,#3386FF,#D89F1C,10,0,1,38,1,964.3999999761581,37,1,287.30000001192093,10,1,experiment,NA,NA,1,0.7,0.3,2,3,149,4,NA
fcp-trial,198,991132,0.0-159.0-0.0,voc_e2,12212,"[{""event"":""fullscreenenter"",""trial"":1,""time"":3286}]",NA,NA,NA,NA,NA,6,#741CD8,#D8271C,0,10,0,40,0,594.0999999642372,39,0,358.89999997615814,10,1,experiment,NA,NA,0,0.1,0.9,1,0,150,4,NA
fcp-trial,199,993842,0.0-160.0-0.0,voc_e2,12212,"[{""event"":""fullscreenenter"",""trial"":1,""time"":3286}]",NA,NA,NA,NA,NA,1,#3386FF,#D89F1C,10,0,1,38,1,851.3999999761581,37,1,354.10000002384186,10,1,experiment,NA,NA,1,0.7,0.3,2,3,151,4,NA
fcp-trial,200,996581,0.0-161.0-0.0,voc_e2,12212,"[{""event"":""fullscreenenter"",""trial"":1,""time"":3286}]",NA,NA,NA,NA,NA,3,#1CD855,#FA92F8,10,10,1,38,1,811.5999999642372,37,1,422.2000000476837,10,1,experiment,NA,NA,2,0.5,0.5,4,5,152,4,NA
fcp-trial,201,999381,0.0-162.0-0.0,voc_e2,12212,"[{""event"":""fullscreenenter"",""trial"":1,""time"":3286}]",NA,NA,NA,NA,NA,4,#FA92F8,#1CD855,10,10,0,38,1,810.5,37,1,483.300000011921,10,0,experiment,NA,NA,2,0.5,0.5,5,4,153,4,NA
fcp-trial,202,1002463,0.0-163.0-0.0,voc_e2,12212,"[{""event"":""fullscreenenter"",""trial"":1,""time"":3286}]",NA,NA,NA,NA,NA,2,#D8271C,#741CD8,10,0,1,38,1,809.9000000357628,37,1,767.5,10,1,experiment,NA,NA,0,0.9,0.1,0,1,154,4,NA
fcp-trial,203,1004984,0.0-164.0-0.0,voc_e2,12212,"[{""event"":""fullscreenenter"",""trial"":1,""time"":3286}]",NA,NA,NA,NA,NA,0,#741CD8,#D8271C,0,10,0,38,1,637.7999999523163,39,0,378.699999988079,10,1,experiment,NA,NA,0,0.1,0.9,1,0,155,4,NA
fcp-trial,204,1008152,0.0-165.0-0.0,voc_e2,12212,"[{""event"":""fullscreenenter"",""trial"":1,""time"":3286}]",NA,NA,NA,NA,NA,4,#3386FF,#D89F1C,10,0,1,38,1,1025.699999988079,37,1,637.3000000119209,10,1,experiment,NA,NA,1,0.7,0.3,2,3,156,4,NA
fcp-trial,205,1010734,0.0-166.0-0.0,voc_e2,12212,"[{""event"":""fullscreenenter"",""trial"":1,""time"":3286}]",NA,NA,NA,NA,NA,2,#1CD855,#FA92F8,0,10,1,38,1,658.3000000119209,37,1,418.4000000357628,0,1,experiment,NA,NA,2,0.5,0.5,4,5,157,4,NA
fcp-trial,206,1013892,0.0-167.0-0.0,voc_e2,12212,"[{""event"":""fullscreenenter"",""trial"":1,""time"":3286}]",NA,NA,NA,NA,NA,5,#741CD8,#D8271C,10,10,0,40,0,899.5999999642372,37,1,753.8000000119209,10,0,experiment,NA,NA,0,0.1,0.9,1,0,158,4,NA
fcp-trial,207,1016999,0.0-168.0-0.0,voc_e2,12212,"[{""event"":""fullscreenenter"",""trial"":1,""time"":3286}]",NA,NA,NA,NA,NA,3,#741CD8,#D8271C,10,0,0,38,1,1224.800000011921,39,0,375.60000002384186,0,1,experiment,NA,NA,0,0.1,0.9,1,0,159,4,NA
fcp-trial,208,1019712,0.0-169.0-0.0,voc_e2,12212,"[{""event"":""fullscreenenter"",""trial"":1,""time"":3286}]",NA,NA,NA,NA,NA,6,#FA92F8,#1CD855,0,10,0,40,0,853.8999999761581,37,1,354.30000001192093,0,0,experiment,NA,NA,2,0.5,0.5,5,4,160,4,NA
fcp-trial,209,1022646,0.0-170.0-0.0,voc_e2,12212,"[{""event"":""fullscreenenter"",""trial"":1,""time"":3286}]",NA,NA,NA,NA,NA,0,#D89F1C,#3386FF,10,0,0,38,1,964.1000000238419,39,0,465.2000000476837,0,1,experiment,NA,NA,1,0.3,0.7,3,2,161,4,NA
fcp-trial,210,1025317,0.0-171.0-0.0,voc_e2,12212,"[{""event"":""fullscreenenter"",""trial"":1,""time"":3286}]",NA,NA,NA,NA,NA,5,#1CD855,#FA92F8,10,0,1,40,0,592.1999999880791,39,0,574.1999999880791,0,0,experiment,NA,NA,2,0.5,0.5,4,5,162,4,NA
fcp-trial,211,1028359,0.0-172.0-0.0,voc_e2,12212,"[{""event"":""fullscreenenter"",""trial"":1,""time"":3286}]",NA,NA,NA,NA,NA,6,#3386FF,#D89F1C,10,0,1,40,0,700.2999999523163,39,0,835,0,0,experiment,NA,NA,1,0.7,0.3,2,3,163,4,NA
fcp-trial,212,1030896,0.0-173.0-0.0,voc_e2,12212,"[{""event"":""fullscreenenter"",""trial"":1,""time"":3286}]",NA,NA,NA,NA,NA,1,#D8271C,#741CD8,10,0,1,38,1,633.8000000119209,37,1,397.39999997615814,10,1,experiment,NA,NA,0,0.9,0.1,0,1,164,4,NA
fcp-trial,213,1033894,0.0-174.0-0.0,voc_e2,12212,"[{""event"":""fullscreenenter"",""trial"":1,""time"":3286}]",NA,NA,NA,NA,NA,0,#1CD855,#FA92F8,10,10,1,38,1,527.5,39,0,965.600000023842,10,0,experiment,NA,NA,2,0.5,0.5,4,5,165,4,NA
fcp-trial,214,1036607,0.0-175.0-0.0,voc_e2,12212,"[{""event"":""fullscreenenter"",""trial"":1,""time"":3286}]",NA,NA,NA,NA,NA,1,#FA92F8,#1CD855,0,0,0,38,1,701.1999999880791,37,1,506,0,0,experiment,NA,NA,2,0.5,0.5,5,4,166,4,NA
fcp-trial,215,1039256,0.0-176.0-0.0,voc_e2,12212,"[{""event"":""fullscreenenter"",""trial"":1,""time"":3286}]",NA,NA,NA,NA,NA,3,#3386FF,#D89F1C,0,0,1,38,1,638.3999999761581,37,1,506.4000000357628,0,1,experiment,NA,NA,1,0.7,0.3,2,3,167,4,NA
fcp-trial,216,1041947,0.0-177.0-0.0,voc_e2,12212,"[{""event"":""fullscreenenter"",""trial"":1,""time"":3286}]",NA,NA,NA,NA,NA,4,#D8271C,#741CD8,10,0,1,38,1,854.8999999761581,37,1,332.5,10,1,experiment,NA,NA,0,0.9,0.1,0,1,168,4,NA
fcp-trial,217,1045013,0.0-178.0-0.0,voc_e2,12212,"[{""event"":""fullscreenenter"",""trial"":1,""time"":3286}]",NA,NA,NA,NA,NA,6,#FA92F8,#1CD855,0,0,0,40,0,1115.5999999642372,39,0,443.699999988079,0,1,experiment,NA,NA,2,0.5,0.5,5,4,169,4,NA
fcp-trial,218,1047461,0.0-179.0-0.0,voc_e2,12212,"[{""event"":""fullscreenenter"",""trial"":1,""time"":3286}]",NA,NA,NA,NA,NA,2,#FA92F8,#1CD855,0,10,0,38,1,523.8000000119209,37,1,418.5,0,0,experiment,NA,NA,2,0.5,0.5,5,4,170,4,NA
fcp-trial,219,1049957,0.0-180.0-0.0,voc_e2,12212,"[{""event"":""fullscreenenter"",""trial"":1,""time"":3286}]",NA,NA,NA,NA,NA,3,#D89F1C,#3386FF,0,10,0,38,1,658.3999999761581,37,1,331.89999997615814,0,0,experiment,NA,NA,1,0.3,0.7,3,2,171,4,NA
fcp-trial,220,1052628,0.0-181.0-0.0,voc_e2,12212,"[{""event"":""fullscreenenter"",""trial"":1,""time"":3286}]",NA,NA,NA,NA,NA,4,#D8271C,#741CD8,10,0,1,40,0,811.4000000357628,37,1,354.39999997615814,10,1,experiment,NA,NA,0,0.9,0.1,0,1,172,4,NA
fcp-trial,221,1055601,0.0-182.0-0.0,voc_e2,12212,"[{""event"":""fullscreenenter"",""trial"":1,""time"":3286}]",NA,NA,NA,NA,NA,0,#3386FF,#D89F1C,10,0,1,38,1,722,37,1,745.3999999761581,10,1,experiment,NA,NA,1,0.7,0.3,2,3,173,4,NA
fcp-trial,222,1058383,0.0-183.0-0.0,voc_e2,12212,"[{""event"":""fullscreenenter"",""trial"":1,""time"":3286}]",NA,NA,NA,NA,NA,3,#1CD855,#FA92F8,0,10,1,38,1,680.5,39,0,595.5,10,0,experiment,NA,NA,2,0.5,0.5,4,5,174,4,NA
fcp-trial,223,1061162,0.0-184.0-0.0,voc_e2,12212,"[{""event"":""fullscreenenter"",""trial"":1,""time"":3286}]",NA,NA,NA,NA,NA,2,#D89F1C,#3386FF,10,10,0,38,1,787.2999999523163,39,0,488.2000000476837,10,1,experiment,NA,NA,1,0.3,0.7,3,2,175,4,NA
fcp-trial,224,1063897,0.0-185.0-0.0,voc_e2,12212,"[{""event"":""fullscreenenter"",""trial"":1,""time"":3286}]",NA,NA,NA,NA,NA,2,#D8271C,#741CD8,10,10,1,38,1,786.5,37,1,442.199999988079,10,1,experiment,NA,NA,0,0.9,0.1,0,1,176,4,NA
fcp-trial,225,1066567,0.0-186.0-0.0,voc_e2,12212,"[{""event"":""fullscreenenter"",""trial"":1,""time"":3286}]",NA,NA,NA,NA,NA,4,#1CD855,#FA92F8,0,10,1,38,1,613,39,0,552.6000000238419,10,0,experiment,NA,NA,2,0.5,0.5,4,5,177,4,NA
fcp-trial,226,1069433,0.0-187.0-0.0,voc_e2,12212,"[{""event"":""fullscreenenter"",""trial"":1,""time"":3286}]",NA,NA,NA,NA,NA,6,#3386FF,#D89F1C,0,10,1,40,0,894.5,39,0,466.60000002384186,10,0,experiment,NA,NA,1,0.7,0.3,2,3,178,4,NA
fcp-trial,227,1072077,0.0-188.0-0.0,voc_e2,12212,"[{""event"":""fullscreenenter"",""trial"":1,""time"":3286}]",NA,NA,NA,NA,NA,3,#D8271C,#741CD8,10,0,1,38,1,656.3000000119209,37,1,483.800000011921,10,1,experiment,NA,NA,0,0.9,0.1,0,1,179,4,NA
fcp-trial,228,1074769,0.0-189.0-0.0,voc_e2,12212,"[{""event"":""fullscreenenter"",""trial"":1,""time"":3286}]",NA,NA,NA,NA,NA,6,#D8271C,#741CD8,10,0,1,40,0,768.2000000476837,37,1,418.7000000476837,10,1,experiment,NA,NA,0,0.9,0.1,0,1,180,4,NA
fcp-trial,229,1077268,0.0-190.0-0.0,voc_e2,12212,"[{""event"":""fullscreenenter"",""trial"":1,""time"":3286}]",NA,NA,NA,NA,NA,5,#741CD8,#D8271C,0,10,0,40,0,594.1000000238419,39,0,400.7000000476837,10,1,experiment,NA,NA,0,0.1,0.9,1,0,181,5,NA
fcp-trial,230,1079851,0.0-191.0-0.0,voc_e2,12212,"[{""event"":""fullscreenenter"",""trial"":1,""time"":3286}]",NA,NA,NA,NA,NA,5,#1CD855,#FA92F8,10,0,1,40,0,591,39,0,486.7000000476837,0,0,experiment,NA,NA,2,0.5,0.5,4,5,182,5,NA
fcp-trial,231,1082761,0.0-192.0-0.0,voc_e2,12212,"[{""event"":""fullscreenenter"",""trial"":1,""time"":3286}]",NA,NA,NA,NA,NA,1,#D89F1C,#3386FF,0,0,0,38,1,765.1999999880791,39,0,638.1999999880791,0,1,experiment,NA,NA,1,0.3,0.7,3,2,183,5,NA
fcp-trial,232,1085429,0.0-193.0-0.0,voc_e2,12212,"[{""event"":""fullscreenenter"",""trial"":1,""time"":3286}]",NA,NA,NA,NA,NA,1,#FA92F8,#1CD855,10,10,0,38,1,656.4000000357628,37,1,505.5,10,0,experiment,NA,NA,2,0.5,0.5,5,4,184,5,NA
fcp-trial,233,1088469,0.0-194.0-0.0,voc_e2,12212,"[{""event"":""fullscreenenter"",""trial"":1,""time"":3286}]",NA,NA,NA,NA,NA,0,#D8271C,#741CD8,10,0,1,38,1,789.7000000476837,37,1,744.5,10,1,experiment,NA,NA,0,0.9,0.1,0,1,185,5,NA
fcp-trial,234,1091338,0.0-195.0-0.0,voc_e2,12212,"[{""event"":""fullscreenenter"",""trial"":1,""time"":3286}]",NA,NA,NA,NA,NA,1,#741CD8,#D8271C,0,10,0,38,1,832.3999999761581,39,0,531.8000000119209,10,1,experiment,NA,NA,0,0.1,0.9,1,0,186,5,NA
fcp-trial,235,1094205,0.0-196.0-0.0,voc_e2,12212,"[{""event"":""fullscreenenter"",""trial"":1,""time"":3286}]",NA,NA,NA,NA,NA,5,#3386FF,#D89F1C,0,10,1,40,0,875.1999999880791,39,0,487.199999988079,10,0,experiment,NA,NA,1,0.7,0.3,2,3,187,5,NA
fcp-trial,236,1097130,0.0-197.0-0.0,voc_e2,12212,"[{""event"":""fullscreenenter"",""trial"":1,""time"":3286}]",NA,NA,NA,NA,NA,4,#3386FF,#D89F1C,10,0,1,38,1,959.8000000119209,37,1,462,10,1,experiment,NA,NA,1,0.7,0.3,2,3,188,5,NA
fcp-trial,237,1100151,0.0-198.0-0.0,voc_e2,12212,"[{""event"":""fullscreenenter"",""trial"":1,""time"":3286}]",NA,NA,NA,NA,NA,0,#1CD855,#FA92F8,10,0,1,38,1,1005.2000000476837,39,0,509.5,0,0,experiment,NA,NA,2,0.5,0.5,4,5,189,5,NA
fcp-trial,238,1102754,0.0-199.0-0.0,voc_e2,12212,"[{""event"":""fullscreenenter"",""trial"":1,""time"":3286}]",NA,NA,NA,NA,NA,6,#3386FF,#D89F1C,10,0,1,40,0,655.3999999761581,39,0,444.5,0,0,experiment,NA,NA,1,0.7,0.3,2,3,190,5,NA
fcp-trial,239,1105725,0.0-200.0-0.0,voc_e2,12212,"[{""event"":""fullscreenenter"",""trial"":1,""time"":3286}]",NA,NA,NA,NA,NA,0,#D8271C,#741CD8,10,10,1,38,1,548.5,37,1,918.3000000119208,10,1,experiment,NA,NA,0,0.9,0.1,0,1,191,5,NA
fcp-trial,240,1108788,0.0-201.0-0.0,voc_e2,12212,"[{""event"":""fullscreenenter"",""trial"":1,""time"":3286}]",NA,NA,NA,NA,NA,3,#FA92F8,#1CD855,10,10,0,38,1,877,37,1,680.2000000476837,10,0,experiment,NA,NA,2,0.5,0.5,5,4,192,5,NA
fcp-trial,241,1111676,0.0-202.0-0.0,voc_e2,12212,"[{""event"":""fullscreenenter"",""trial"":1,""time"":3286}]",NA,NA,NA,NA,NA,4,#D8271C,#741CD8,10,0,1,38,1,897.8999999761581,37,1,484.89999997615814,10,1,experiment,NA,NA,0,0.9,0.1,0,1,193,5,NA
fcp-trial,242,1114782,0.0-203.0-0.0,voc_e2,12212,"[{""event"":""fullscreenenter"",""trial"":1,""time"":3286}]",NA,NA,NA,NA,NA,5,#741CD8,#D8271C,0,10,0,40,0,787.6000000238419,37,1,811.5,0,0,experiment,NA,NA,0,0.1,0.9,1,0,194,5,NA
fcp-trial,243,1117433,0.0-204.0-0.0,voc_e2,12212,"[{""event"":""fullscreenenter"",""trial"":1,""time"":3286}]",NA,NA,NA,NA,NA,5,#D89F1C,#3386FF,0,10,0,40,0,637.2999999523163,39,0,505,10,1,experiment,NA,NA,1,0.3,0.7,3,2,195,5,NA
fcp-trial,244,1120298,0.0-205.0-0.0,voc_e2,12212,"[{""event"":""fullscreenenter"",""trial"":1,""time"":3286}]",NA,NA,NA,NA,NA,2,#1CD855,#FA92F8,10,0,1,38,1,657.4000000357628,39,0,702.8000000119209,0,0,experiment,NA,NA,2,0.5,0.5,4,5,196,5,NA
fcp-trial,245,1122967,0.0-206.0-0.0,voc_e2,12212,"[{""event"":""fullscreenenter"",""trial"":1,""time"":3286}]",NA,NA,NA,NA,NA,4,#3386FF,#D89F1C,10,10,1,38,1,614.4000000357628,37,1,549.5,10,1,experiment,NA,NA,1,0.7,0.3,2,3,197,5,NA
fcp-trial,246,1126769,0.0-207.0-0.0,voc_e2,12212,"[{""event"":""fullscreenenter"",""trial"":1,""time"":3286}]",NA,NA,NA,NA,NA,2,#D8271C,#741CD8,10,0,1,38,1,767,37,1,1528.600000023842,10,1,experiment,NA,NA,0,0.9,0.1,0,1,198,5,NA
fcp-trial,247,1129593,0.0-208.0-0.0,voc_e2,12212,"[{""event"":""fullscreenenter"",""trial"":1,""time"":3286}]",NA,NA,NA,NA,NA,1,#3386FF,#D89F1C,10,0,1,38,1,703.7000000476837,37,1,615.3999999761581,10,1,experiment,NA,NA,1,0.7,0.3,2,3,199,5,NA
fcp-trial,248,1132265,0.0-209.0-0.0,voc_e2,12212,"[{""event"":""fullscreenenter"",""trial"":1,""time"":3286}]",NA,NA,NA,NA,NA,3,#D89F1C,#3386FF,10,10,0,38,1,595.1999999880791,39,0,573.1999999880791,10,1,experiment,NA,NA,1,0.3,0.7,3,2,200,5,NA
fcp-trial,249,1134959,0.0-210.0-0.0,voc_e2,12212,"[{""event"":""fullscreenenter"",""trial"":1,""time"":3286}]",NA,NA,NA,NA,NA,6,#1CD855,#FA92F8,0,10,1,40,0,809.6000000238419,39,0,379,10,0,experiment,NA,NA,2,0.5,0.5,4,5,201,5,NA
fcp-trial,250,1137647,0.0-211.0-0.0,voc_e2,12212,"[{""event"":""fullscreenenter"",""trial"":1,""time"":3286}]",NA,NA,NA,NA,NA,3,#D8271C,#741CD8,10,0,1,38,1,743.6000000238419,37,1,439,10,1,experiment,NA,NA,0,0.9,0.1,0,1,202,5,NA
fcp-trial,251,1140447,0.0-212.0-0.0,voc_e2,12212,"[{""event"":""fullscreenenter"",""trial"":1,""time"":3286}]",NA,NA,NA,NA,NA,1,#FA92F8,#1CD855,10,10,0,38,1,702.1000000238419,37,1,592.6999999880791,10,0,experiment,NA,NA,2,0.5,0.5,5,4,203,5,NA
fcp-trial,252,1143595,0.0-213.0-0.0,voc_e2,12212,"[{""event"":""fullscreenenter"",""trial"":1,""time"":3286}]",NA,NA,NA,NA,NA,0,#FA92F8,#1CD855,10,10,0,38,1,963.1000000238419,37,1,674.5999999642372,10,0,experiment,NA,NA,2,0.5,0.5,5,4,204,5,NA
fcp-trial,253,1146331,0.0-214.0-0.0,voc_e2,12212,"[{""event"":""fullscreenenter"",""trial"":1,""time"":3286}]",NA,NA,NA,NA,NA,2,#3386FF,#D89F1C,10,0,1,38,1,702.6999999880791,37,1,527.6000000238419,10,1,experiment,NA,NA,1,0.7,0.3,2,3,205,5,NA
fcp-trial,254,1148982,0.0-215.0-0.0,voc_e2,12212,"[{""event"":""fullscreenenter"",""trial"":1,""time"":3286}]",NA,NA,NA,NA,NA,4,#1CD855,#FA92F8,10,10,1,38,1,571.8000000119209,39,0,574.3999999761581,10,0,experiment,NA,NA,2,0.5,0.5,4,5,206,5,NA
fcp-trial,255,1151739,0.0-216.0-0.0,voc_e2,12212,"[{""event"":""fullscreenenter"",""trial"":1,""time"":3286}]",NA,NA,NA,NA,NA,6,#741CD8,#D8271C,0,10,0,40,0,852.3000000119209,39,0,399.800000011921,10,1,experiment,NA,NA,0,0.1,0.9,1,0,207,5,NA
fcp-trial,256,1154341,0.0-217.0-0.0,voc_e2,12212,"[{""event"":""fullscreenenter"",""trial"":1,""time"":3286}]",NA,NA,NA,NA,NA,1,#D8271C,#741CD8,10,0,1,38,1,612.5,37,1,484.800000011921,10,1,experiment,NA,NA,0,0.9,0.1,0,1,208,5,NA
fcp-trial,257,1157495,0.0-218.0-0.0,voc_e2,12212,"[{""event"":""fullscreenenter"",""trial"":1,""time"":3286}]",NA,NA,NA,NA,NA,0,#D89F1C,#3386FF,10,10,0,38,1,1180.8999999761581,39,0,465.60000002384186,10,1,experiment,NA,NA,1,0.3,0.7,3,2,209,5,NA
fcp-trial,258,1160185,0.0-219.0-0.0,voc_e2,12212,"[{""event"":""fullscreenenter"",""trial"":1,""time"":3286}]",NA,NA,NA,NA,NA,5,#1CD855,#FA92F8,10,0,1,38,1,699,37,1,486.4000000357628,10,1,experiment,NA,NA,2,0.5,0.5,4,5,210,5,NA
audio-instructions,259,1171104,0.0-220.0,voc_e2,12212,"[{""event"":""fullscreenenter"",""trial"":1,""time"":3286}]",NA,6470,static/audio/pause.wav,NA,0,NA,NA,NA,NA,NA,NA,NA,NA,NA,NA,NA,NA,NA,NA,NA,NA,NA,NA,NA,NA,NA,NA,NA,NA,NA
fcp-trial,260,1174494,0.0-221.0-0.0,voc_e2,12212,"[{""event"":""fullscreenenter"",""trial"":1,""time"":3286}]",NA,NA,NA,NA,NA,4,#D8271C,#741CD8,10,0,1,40,0,1395.1000000238419,39,0,485.300000011921,0,0,experiment,NA,NA,0,0.9,0.1,0,1,211,5,NA
fcp-trial,261,1177078,0.0-222.0-0.0,voc_e2,12212,"[{""event"":""fullscreenenter"",""trial"":1,""time"":3286}]",NA,NA,NA,NA,NA,3,#1CD855,#FA92F8,0,10,1,38,1,721.1999999880791,39,0,356.10000002384186,10,0,experiment,NA,NA,2,0.5,0.5,4,5,212,5,NA
fcp-trial,262,1179594,0.0-223.0-0.0,voc_e2,12212,"[{""event"":""fullscreenenter"",""trial"":1,""time"":3286}]",NA,NA,NA,NA,NA,2,#3386FF,#D89F1C,10,10,1,38,1,699.6000000238419,37,1,299,10,1,experiment,NA,NA,1,0.7,0.3,2,3,213,5,NA
fcp-trial,263,1182242,0.0-224.0-0.0,voc_e2,12212,"[{""event"":""fullscreenenter"",""trial"":1,""time"":3286}]",NA,NA,NA,NA,NA,5,#3386FF,#D89F1C,10,0,1,40,0,745.5999999642372,39,0,394.60000002384186,0,0,experiment,NA,NA,1,0.7,0.3,2,3,214,5,NA
fcp-trial,264,1185076,0.0-225.0-0.0,voc_e2,12212,"[{""event"":""fullscreenenter"",""trial"":1,""time"":3286}]",NA,NA,NA,NA,NA,2,#D8271C,#741CD8,10,0,1,38,1,593,37,1,728,10,1,experiment,NA,NA,0,0.9,0.1,0,1,215,5,NA
fcp-trial,265,1188390,0.0-226.0-0.0,voc_e2,12212,"[{""event"":""fullscreenenter"",""trial"":1,""time"":3286}]",NA,NA,NA,NA,NA,0,#1CD855,#FA92F8,0,10,1,38,1,766.2999999523163,39,0,1028.199999988079,10,0,experiment,NA,NA,2,0.5,0.5,4,5,216,5,NA
fcp-trial,266,1191474,0.0-227.0-0.0,voc_e2,12212,"[{""event"":""fullscreenenter"",""trial"":1,""time"":3286}]",NA,NA,NA,NA,NA,6,#741CD8,#D8271C,0,10,0,40,0,773,37,1,793.8999999761581,0,0,experiment,NA,NA,0,0.1,0.9,1,0,217,5,NA
fcp-trial,267,1193952,0.0-228.0-0.0,voc_e2,12212,"[{""event"":""fullscreenenter"",""trial"":1,""time"":3286}]",NA,NA,NA,NA,NA,2,#FA92F8,#1CD855,0,10,0,38,1,672.3999999761581,37,1,285,0,0,experiment,NA,NA,2,0.5,0.5,5,4,218,5,NA
fcp-trial,268,1196938,0.0-229.0-0.0,voc_e2,12212,"[{""event"":""fullscreenenter"",""trial"":1,""time"":3286}]",NA,NA,NA,NA,NA,3,#3386FF,#D89F1C,10,0,1,38,1,778.9000000357628,37,1,702.5,10,1,experiment,NA,NA,1,0.7,0.3,2,3,219,5,NA
fcp-trial,269,1199654,0.0-230.0-0.0,voc_e2,12212,"[{""event"":""fullscreenenter"",""trial"":1,""time"":3286}]",NA,NA,NA,NA,NA,5,#741CD8,#D8271C,0,10,0,40,0,831.3999999761581,39,0,378.5,10,1,experiment,NA,NA,0,0.1,0.9,1,0,220,5,NA
fcp-trial,270,1202474,0.0-231.0-0.0,voc_e2,12212,"[{""event"":""fullscreenenter"",""trial"":1,""time"":3286}]",NA,NA,NA,NA,NA,1,#1CD855,#FA92F8,0,0,1,38,1,827.5999999642372,37,1,486.300000011921,0,1,experiment,NA,NA,2,0.5,0.5,4,5,221,5,NA
fcp-trial,271,1205123,0.0-232.0-0.0,voc_e2,12212,"[{""event"":""fullscreenenter"",""trial"":1,""time"":3286}]",NA,NA,NA,NA,NA,1,#3386FF,#D89F1C,0,0,1,38,1,701.5,37,1,443.10000002384186,0,1,experiment,NA,NA,1,0.7,0.3,2,3,222,5,NA
fcp-trial,272,1208488,0.0-233.0-0.0,voc_e2,12212,"[{""event"":""fullscreenenter"",""trial"":1,""time"":3286}]",NA,NA,NA,NA,NA,5,#1CD855,#FA92F8,10,0,1,40,0,1374.3999999761581,37,1,484.7000000476837,10,1,experiment,NA,NA,2,0.5,0.5,4,5,223,5,NA
fcp-trial,273,1211005,0.0-234.0-0.0,voc_e2,12212,"[{""event"":""fullscreenenter"",""trial"":1,""time"":3286}]",NA,NA,NA,NA,NA,0,#D8271C,#741CD8,0,0,1,38,1,678.8000000119209,37,1,333.69999998807907,0,1,experiment,NA,NA,0,0.9,0.1,0,1,224,5,NA
fcp-trial,274,1213935,0.0-235.0-0.0,voc_e2,12212,"[{""event"":""fullscreenenter"",""trial"":1,""time"":3286}]",NA,NA,NA,NA,NA,4,#FA92F8,#1CD855,0,10,0,38,1,940.2999999523163,37,1,483.7000000476837,0,0,experiment,NA,NA,2,0.5,0.5,5,4,225,5,NA
fcp-trial,275,1219083,0.0-236.0-0.0,voc_e2,12212,"[{""event"":""fullscreenenter"",""trial"":1,""time"":3286}]",NA,NA,NA,NA,NA,4,#3386FF,#D89F1C,0,0,1,40,0,3202.900000035763,37,1,440.0999999642372,0,1,experiment,NA,NA,1,0.7,0.3,2,3,226,6,NA
fcp-trial,276,1221819,0.0-237.0-0.0,voc_e2,12212,"[{""event"":""fullscreenenter"",""trial"":1,""time"":3286}]",NA,NA,NA,NA,NA,6,#D89F1C,#3386FF,0,0,0,40,0,680.3000000119209,37,1,549.9000000357628,0,0,experiment,NA,NA,1,0.3,0.7,3,2,227,6,NA
fcp-trial,277,1224813,0.0-238.0-0.0,voc_e2,12212,"[{""event"":""fullscreenenter"",""trial"":1,""time"":3286}]",NA,NA,NA,NA,NA,3,#D8271C,#741CD8,10,0,1,38,1,810.5,37,1,678.8999999761581,10,1,experiment,NA,NA,0,0.9,0.1,0,1,228,6,NA
fcp-trial,278,1227637,0.0-239.0-0.0,voc_e2,12212,"[{""event"":""fullscreenenter"",""trial"":1,""time"":3286}]",NA,NA,NA,NA,NA,6,#FA92F8,#1CD855,0,10,0,40,0,809,39,0,509,10,1,experiment,NA,NA,2,0.5,0.5,5,4,229,6,NA
fcp-trial,279,1230677,0.0-240.0-0.0,voc_e2,12212,"[{""event"":""fullscreenenter"",""trial"":1,""time"":3286}]",NA,NA,NA,NA,NA,0,#D89F1C,#3386FF,10,0,0,38,1,1004.9000000357628,39,0,529.3999999761581,0,1,experiment,NA,NA,1,0.3,0.7,3,2,230,6,NA
fcp-trial,280,1233843,0.0-241.0-0.0,voc_e2,12212,"[{""event"":""fullscreenenter"",""trial"":1,""time"":3286}]",NA,NA,NA,NA,NA,1,#D8271C,#741CD8,10,0,1,38,1,1024.3999999761581,37,1,637.1000000238419,10,1,experiment,NA,NA,0,0.9,0.1,0,1,231,6,NA
fcp-trial,281,1236689,0.0-242.0-0.0,voc_e2,12212,"[{""event"":""fullscreenenter"",""trial"":1,""time"":3286}]",NA,NA,NA,NA,NA,5,#D8271C,#741CD8,10,0,1,40,0,897.3000000119209,39,0,441.699999988079,0,0,experiment,NA,NA,0,0.9,0.1,0,1,232,6,NA
fcp-trial,282,1239813,0.0-243.0-0.0,voc_e2,12212,"[{""event"":""fullscreenenter"",""trial"":1,""time"":3286}]",NA,NA,NA,NA,NA,3,#3386FF,#D89F1C,10,0,1,38,1,785,37,1,832.3999999761581,10,1,experiment,NA,NA,1,0.7,0.3,2,3,233,6,NA
fcp-trial,283,1242590,0.0-244.0-0.0,voc_e2,12212,"[{""event"":""fullscreenenter"",""trial"":1,""time"":3286}]",NA,NA,NA,NA,NA,1,#3386FF,#D89F1C,10,10,1,38,1,593.1999999880791,37,1,676.8000000119209,10,1,experiment,NA,NA,1,0.7,0.3,2,3,234,6,NA
fcp-trial,284,1245240,0.0-245.0-0.0,voc_e2,12212,"[{""event"":""fullscreenenter"",""trial"":1,""time"":3286}]",NA,NA,NA,NA,NA,6,#1CD855,#FA92F8,10,10,1,40,0,701.5,39,0,444.5,10,0,experiment,NA,NA,2,0.5,0.5,4,5,235,6,NA
fcp-trial,285,1248104,0.0-246.0-0.0,voc_e2,12212,"[{""event"":""fullscreenenter"",""trial"":1,""time"":3286}]",NA,NA,NA,NA,NA,0,#D89F1C,#3386FF,0,0,0,38,1,914.5999999642372,39,0,443.10000002384186,0,1,experiment,NA,NA,1,0.3,0.7,3,2,236,6,NA
fcp-trial,286,1251183,0.0-247.0-0.0,voc_e2,12212,"[{""event"":""fullscreenenter"",""trial"":1,""time"":3286}]",NA,NA,NA,NA,NA,6,#D8271C,#741CD8,10,0,1,40,0,1154.5,37,1,419.5,10,1,experiment,NA,NA,0,0.9,0.1,0,1,237,6,NA
fcp-trial,287,1253831,0.0-248.0-0.0,voc_e2,12212,"[{""event"":""fullscreenenter"",""trial"":1,""time"":3286}]",NA,NA,NA,NA,NA,2,#1CD855,#FA92F8,0,10,1,38,1,701.1000000238419,37,1,438.39999997615814,0,1,experiment,NA,NA,2,0.5,0.5,4,5,238,6,NA
fcp-trial,288,1256588,0.0-249.0-0.0,voc_e2,12212,"[{""event"":""fullscreenenter"",""trial"":1,""time"":3286}]",NA,NA,NA,NA,NA,1,#FA92F8,#1CD855,10,0,0,38,1,853.3999999761581,37,1,398.5,10,0,experiment,NA,NA,2,0.5,0.5,5,4,239,6,NA
fcp-trial,289,1259629,0.0-250.0-0.0,voc_e2,12212,"[{""event"":""fullscreenenter"",""trial"":1,""time"":3286}]",NA,NA,NA,NA,NA,4,#D8271C,#741CD8,0,0,1,40,0,1048.7000000476837,39,0,487.4000000357628,0,0,experiment,NA,NA,0,0.9,0.1,0,1,240,6,NA
fcp-trial,290,1262233,0.0-251.0-0.0,voc_e2,12212,"[{""event"":""fullscreenenter"",""trial"":1,""time"":3286}]",NA,NA,NA,NA,NA,5,#3386FF,#D89F1C,10,0,1,40,0,698.8000000119209,39,0,400.199999988079,0,0,experiment,NA,NA,1,0.7,0.3,2,3,241,6,NA
fcp-trial,291,1264726,0.0-252.0-0.0,voc_e2,12212,"[{""event"":""fullscreenenter"",""trial"":1,""time"":3286}]",NA,NA,NA,NA,NA,0,#FA92F8,#1CD855,10,0,0,38,1,525.1000000238419,37,1,462.9000000357628,10,0,experiment,NA,NA,2,0.5,0.5,5,4,242,6,NA
fcp-trial,292,1267442,0.0-253.0-0.0,voc_e2,12212,"[{""event"":""fullscreenenter"",""trial"":1,""time"":3286}]",NA,NA,NA,NA,NA,2,#741CD8,#D8271C,0,10,0,38,1,746,39,0,464.5,10,1,experiment,NA,NA,0,0.1,0.9,1,0,243,6,NA
fcp-trial,293,1269895,0.0-254.0-0.0,voc_e2,12212,"[{""event"":""fullscreenenter"",""trial"":1,""time"":3286}]",NA,NA,NA,NA,NA,3,#741CD8,#D8271C,0,10,0,38,1,527.6999999880791,39,0,419.800000011921,10,1,experiment,NA,NA,0,0.1,0.9,1,0,244,6,NA
fcp-trial,294,1273720,0.0-255.0-0.0,voc_e2,12212,"[{""event"":""fullscreenenter"",""trial"":1,""time"":3286}]",NA,NA,NA,NA,NA,2,#D89F1C,#3386FF,0,0,0,38,1,722.4000000357628,39,0,1598.0999999642372,0,1,experiment,NA,NA,1,0.3,0.7,3,2,245,6,NA
fcp-trial,295,1276954,0.0-256.0-0.0,voc_e2,12212,"[{""event"":""fullscreenenter"",""trial"":1,""time"":3286}]",NA,NA,NA,NA,NA,4,#1CD855,#FA92F8,0,0,1,38,1,1285.5,39,0,443.2999999523163,0,0,experiment,NA,NA,2,0.5,0.5,4,5,246,6,NA
fcp-trial,296,1279928,0.0-257.0-0.0,voc_e2,12212,"[{""event"":""fullscreenenter"",""trial"":1,""time"":3286}]",NA,NA,NA,NA,NA,5,#1CD855,#FA92F8,0,0,1,40,0,1134.699999988079,39,0,335.19999998807907,0,0,experiment,NA,NA,2,0.5,0.5,4,5,247,6,NA
fcp-trial,297,1282465,0.0-258.0-0.0,voc_e2,12212,"[{""event"":""fullscreenenter"",""trial"":1,""time"":3286}]",NA,NA,NA,NA,NA,0,#D8271C,#741CD8,10,10,1,38,1,741.7999999523163,37,1,288.5999999642372,10,1,experiment,NA,NA,0,0.9,0.1,0,1,248,6,NA
fcp-trial,298,1285527,0.0-259.0-0.0,voc_e2,12212,"[{""event"":""fullscreenenter"",""trial"":1,""time"":3286}]",NA,NA,NA,NA,NA,4,#D89F1C,#3386FF,10,10,0,38,1,1199.800000011921,39,0,356.19999998807907,10,1,experiment,NA,NA,1,0.3,0.7,3,2,249,6,NA
fcp-trial,299,1288284,0.0-260.0-0.0,voc_e2,12212,"[{""event"":""fullscreenenter"",""trial"":1,""time"":3286}]",NA,NA,NA,NA,NA,6,#3386FF,#D89F1C,10,0,1,40,0,786.5,39,0,465.300000011921,0,0,experiment,NA,NA,1,0.7,0.3,2,3,250,6,NA
fcp-trial,300,1291172,0.0-261.0-0.0,voc_e2,12212,"[{""event"":""fullscreenenter"",""trial"":1,""time"":3286}]",NA,NA,NA,NA,NA,1,#741CD8,#D8271C,0,10,0,38,1,720.5,39,0,662.2999999523163,10,1,experiment,NA,NA,0,0.1,0.9,1,0,251,6,NA
fcp-trial,301,1294798,0.0-262.0-0.0,voc_e2,12212,"[{""event"":""fullscreenenter"",""trial"":1,""time"":3286}]",NA,NA,NA,NA,NA,3,#1CD855,#FA92F8,0,0,1,38,1,1091.5,37,1,1029.300000011921,0,1,experiment,NA,NA,2,0.5,0.5,4,5,252,6,NA
fcp-trial,302,1297427,0.0-263.0-0.0,voc_e2,12212,"[{""event"":""fullscreenenter"",""trial"":1,""time"":3286}]",NA,NA,NA,NA,NA,6,#D89F1C,#3386FF,0,10,0,40,0,723.5,39,0,399.699999988079,10,1,experiment,NA,NA,1,0.3,0.7,3,2,253,6,NA
fcp-trial,303,1300031,0.0-264.0-0.0,voc_e2,12212,"[{""event"":""fullscreenenter"",""trial"":1,""time"":3286}]",NA,NA,NA,NA,NA,1,#D8271C,#741CD8,10,0,1,38,1,634.7000000476837,37,1,463.39999997615814,10,1,experiment,NA,NA,0,0.9,0.1,0,1,254,6,NA
fcp-trial,304,1302899,0.0-265.0-0.0,voc_e2,12212,"[{""event"":""fullscreenenter"",""trial"":1,""time"":3286}]",NA,NA,NA,NA,NA,5,#FA92F8,#1CD855,10,0,0,40,0,963.1999999880791,39,0,400,0,1,experiment,NA,NA,2,0.5,0.5,5,4,255,6,NA
fcp-trial,305,1305419,0.0-266.0-0.0,voc_e2,12212,"[{""event"":""fullscreenenter"",""trial"":1,""time"":3286}]",NA,NA,NA,NA,NA,0,#741CD8,#D8271C,0,10,0,38,1,548.6999999880791,39,0,466,10,1,experiment,NA,NA,0,0.1,0.9,1,0,256,6,NA
fcp-trial,306,1308198,0.0-267.0-0.0,voc_e2,12212,"[{""event"":""fullscreenenter"",""trial"":1,""time"":3286}]",NA,NA,NA,NA,NA,1,#1CD855,#FA92F8,10,10,1,38,1,655.6999999880791,39,0,616.6999999880791,10,0,experiment,NA,NA,2,0.5,0.5,4,5,257,6,NA
fcp-trial,307,1311390,0.0-268.0-0.0,voc_e2,12212,"[{""event"":""fullscreenenter"",""trial"":1,""time"":3286}]",NA,NA,NA,NA,NA,0,#3386FF,#D89F1C,10,10,1,38,1,1225.2000000476837,37,1,462.7999999523163,10,1,experiment,NA,NA,1,0.7,0.3,2,3,258,6,NA
fcp-trial,308,1314823,0.0-269.0-0.0,voc_e2,12212,"[{""event"":""fullscreenenter"",""trial"":1,""time"":3286}]",NA,NA,NA,NA,NA,2,#FA92F8,#1CD855,10,0,0,38,1,768.2000000476837,37,1,1158.899999976158,10,0,experiment,NA,NA,2,0.5,0.5,5,4,259,6,NA
fcp-trial,309,1317714,0.0-270.0-0.0,voc_e2,12212,"[{""event"":""fullscreenenter"",""trial"":1,""time"":3286}]",NA,NA,NA,NA,NA,4,#741CD8,#D8271C,0,10,0,38,1,921.1000000238419,39,0,464.89999997615814,10,1,experiment,NA,NA,0,0.1,0.9,1,0,260,6,NA
fcp-trial,310,1321280,0.0-271.0-0.0,voc_e2,12212,"[{""event"":""fullscreenenter"",""trial"":1,""time"":3286}]",NA,NA,NA,NA,NA,1,#D89F1C,#3386FF,0,10,0,38,1,899,39,0,1161.7000000476835,10,1,experiment,NA,NA,1,0.3,0.7,3,2,261,6,NA
fcp-trial,311,1324165,0.0-272.0-0.0,voc_e2,12212,"[{""event"":""fullscreenenter"",""trial"":1,""time"":3286}]",NA,NA,NA,NA,NA,3,#FA92F8,#1CD855,0,10,0,38,1,788.4000000357628,37,1,591.6999999880791,0,0,experiment,NA,NA,2,0.5,0.5,5,4,262,6,NA
fcp-trial,312,1326944,0.0-273.0-0.0,voc_e2,12212,"[{""event"":""fullscreenenter"",""trial"":1,""time"":3286}]",NA,NA,NA,NA,NA,6,#741CD8,#D8271C,0,10,0,40,0,746.5,37,1,528.4000000357628,0,0,experiment,NA,NA,0,0.1,0.9,1,0,263,6,NA
fcp-trial,313,1329617,0.0-274.0-0.0,voc_e2,12212,"[{""event"":""fullscreenenter"",""trial"":1,""time"":3286}]",NA,NA,NA,NA,NA,2,#741CD8,#D8271C,0,10,0,38,1,702.3000000119209,39,0,465.9000000357628,10,1,experiment,NA,NA,0,0.1,0.9,1,0,264,6,NA
fcp-trial,314,1332439,0.0-275.0-0.0,voc_e2,12212,"[{""event"":""fullscreenenter"",""trial"":1,""time"":3286}]",NA,NA,NA,NA,NA,5,#3386FF,#D89F1C,10,0,1,40,0,938.5,37,1,376.89999997615814,10,1,experiment,NA,NA,1,0.7,0.3,2,3,265,6,NA
fcp-trial,315,1335565,0.0-276.0-0.0,voc_e2,12212,"[{""event"":""fullscreenenter"",""trial"":1,""time"":3286}]",NA,NA,NA,NA,NA,3,#D89F1C,#3386FF,0,10,0,38,1,1351.5999999642372,39,0,269.80000001192093,10,1,experiment,NA,NA,1,0.3,0.7,3,2,266,6,NA
fcp-trial,316,1339366,0.0-277.0-0.0,voc_e2,12212,"[{""event"":""fullscreenenter"",""trial"":1,""time"":3286}]",NA,NA,NA,NA,NA,6,#1CD855,#FA92F8,10,0,1,40,0,1719.8999999761581,39,0,573.6999999880791,0,0,experiment,NA,NA,2,0.5,0.5,4,5,267,6,NA
fcp-trial,317,1342272,0.0-278.0-0.0,voc_e2,12212,"[{""event"":""fullscreenenter"",""trial"":1,""time"":3286}]",NA,NA,NA,NA,NA,5,#D8271C,#741CD8,10,0,1,40,0,871.8999999761581,39,0,530.4000000357628,0,0,experiment,NA,NA,0,0.9,0.1,0,1,268,6,NA
fcp-trial,318,1344773,0.0-279.0-0.0,voc_e2,12212,"[{""event"":""fullscreenenter"",""trial"":1,""time"":3286}]",NA,NA,NA,NA,NA,3,#741CD8,#D8271C,0,10,0,38,1,592.3999999761581,39,0,399,10,1,experiment,NA,NA,0,0.1,0.9,1,0,269,6,NA
fcp-trial,319,1348437,0.0-280.0-0.0,voc_e2,12212,"[{""event"":""fullscreenenter"",""trial"":1,""time"":3286}]",NA,NA,NA,NA,NA,4,#FA92F8,#1CD855,10,10,0,38,1,1740.699999988079,37,1,419.0999999642372,10,0,experiment,NA,NA,2,0.5,0.5,5,4,270,6,NA
fcp-trial,320,1351265,0.0-281.0-0.0,voc_e2,12212,"[{""event"":""fullscreenenter"",""trial"":1,""time"":3286}]",NA,NA,NA,NA,NA,4,#D89F1C,#3386FF,10,10,0,38,1,659.5,39,0,661.7999999523163,10,1,experiment,NA,NA,1,0.3,0.7,3,2,271,7,NA
fcp-trial,321,1354673,0.0-282.0-0.0,voc_e2,12212,"[{""event"":""fullscreenenter"",""trial"":1,""time"":3286}]",NA,NA,NA,NA,NA,0,#1CD855,#FA92F8,0,0,1,38,1,1068.199999988079,39,0,834.6999999880791,0,0,experiment,NA,NA,2,0.5,0.5,4,5,272,7,NA
fcp-trial,322,1357384,0.0-283.0-0.0,voc_e2,12212,"[{""event"":""fullscreenenter"",""trial"":1,""time"":3286}]",NA,NA,NA,NA,NA,2,#3386FF,#D89F1C,10,0,1,38,1,591.3000000119209,37,1,614,10,1,experiment,NA,NA,1,0.7,0.3,2,3,273,7,NA
fcp-trial,323,1360499,0.0-284.0-0.0,voc_e2,12212,"[{""event"":""fullscreenenter"",""trial"":1,""time"":3286}]",NA,NA,NA,NA,NA,5,#1CD855,#FA92F8,0,10,1,38,1,571.8000000119209,39,0,1038.699999988079,10,0,experiment,NA,NA,2,0.5,0.5,4,5,274,7,NA
fcp-trial,324,1363471,0.0-285.0-0.0,voc_e2,12212,"[{""event"":""fullscreenenter"",""trial"":1,""time"":3286}]",NA,NA,NA,NA,NA,0,#FA92F8,#1CD855,10,0,0,38,1,873.9000000357628,37,1,591.8000000119209,10,0,experiment,NA,NA,2,0.5,0.5,5,4,275,7,NA
fcp-trial,325,1366686,0.0-286.0-0.0,voc_e2,12212,"[{""event"":""fullscreenenter"",""trial"":1,""time"":3286}]",NA,NA,NA,NA,NA,1,#D89F1C,#3386FF,0,10,0,38,1,984.5,39,0,724.4000000357628,10,1,experiment,NA,NA,1,0.3,0.7,3,2,276,7,NA
fcp-trial,326,1369833,0.0-287.0-0.0,voc_e2,12212,"[{""event"":""fullscreenenter"",""trial"":1,""time"":3286}]",NA,NA,NA,NA,NA,6,#3386FF,#D89F1C,10,0,1,40,0,1154.199999988079,39,0,488.5,0,0,experiment,NA,NA,1,0.7,0.3,2,3,277,7,NA
fcp-trial,327,1372412,0.0-288.0-0.0,voc_e2,12212,"[{""event"":""fullscreenenter"",""trial"":1,""time"":3286}]",NA,NA,NA,NA,NA,4,#D8271C,#741CD8,10,0,1,38,1,654.9000000357628,37,1,418.699999988079,10,1,experiment,NA,NA,0,0.9,0.1,0,1,278,7,NA
fcp-trial,328,1375235,0.0-289.0-0.0,voc_e2,12212,"[{""event"":""fullscreenenter"",""trial"":1,""time"":3286}]",NA,NA,NA,NA,NA,3,#741CD8,#D8271C,0,10,0,38,1,831.6000000238419,39,0,486.699999988079,10,1,experiment,NA,NA,0,0.1,0.9,1,0,279,7,NA
fcp-trial,329,1378558,0.0-290.0-0.0,voc_e2,12212,"[{""event"":""fullscreenenter"",""trial"":1,""time"":3286}]",NA,NA,NA,NA,NA,3,#FA92F8,#1CD855,0,0,0,38,1,677.4000000357628,39,0,1141.100000023842,0,1,experiment,NA,NA,2,0.5,0.5,5,4,280,7,NA
fcp-trial,330,1381401,0.0-291.0-0.0,voc_e2,12212,"[{""event"":""fullscreenenter"",""trial"":1,""time"":3286}]",NA,NA,NA,NA,NA,1,#D8271C,#741CD8,10,0,1,38,1,810.1999999880791,37,1,526.8999999761581,10,1,experiment,NA,NA,0,0.9,0.1,0,1,281,7,NA
fcp-trial,331,1384333,0.0-292.0-0.0,voc_e2,12212,"[{""event"":""fullscreenenter"",""trial"":1,""time"":3286}]",NA,NA,NA,NA,NA,5,#D89F1C,#3386FF,0,0,0,40,0,1008.3999999761581,37,1,418.60000002384186,0,0,experiment,NA,NA,1,0.3,0.7,3,2,282,7,NA
fcp-trial,332,1387267,0.0-293.0-0.0,voc_e2,12212,"[{""event"":""fullscreenenter"",""trial"":1,""time"":3286}]",NA,NA,NA,NA,NA,6,#1CD855,#FA92F8,0,10,1,40,0,963.6999999880791,39,0,466.39999997615814,10,0,experiment,NA,NA,2,0.5,0.5,4,5,283,7,NA
fcp-trial,333,1390460,0.0-294.0-0.0,voc_e2,12212,"[{""event"":""fullscreenenter"",""trial"":1,""time"":3286}]",NA,NA,NA,NA,NA,4,#D89F1C,#3386FF,0,10,0,38,1,851.5,39,0,835.8999999761581,10,1,experiment,NA,NA,1,0.3,0.7,3,2,284,7,NA
fcp-trial,334,1393129,0.0-295.0-0.0,voc_e2,12212,"[{""event"":""fullscreenenter"",""trial"":1,""time"":3286}]",NA,NA,NA,NA,NA,0,#3386FF,#D89F1C,10,10,1,38,1,766.1000000238419,37,1,397.5,10,1,experiment,NA,NA,1,0.7,0.3,2,3,285,7,NA
fcp-trial,335,1395995,0.0-296.0-0.0,voc_e2,12212,"[{""event"":""fullscreenenter"",""trial"":1,""time"":3286}]",NA,NA,NA,NA,NA,2,#D8271C,#741CD8,10,0,1,38,1,833.3000000119209,37,1,527.8000000119209,10,1,experiment,NA,NA,0,0.9,0.1,0,1,286,7,NA
fcp-trial,336,1399126,0.0-297.0-0.0,voc_e2,12212,"[{""event"":""fullscreenenter"",""trial"":1,""time"":3286}]",NA,NA,NA,NA,NA,4,#1CD855,#FA92F8,0,0,1,38,1,1226,39,0,401.300000011921,0,0,experiment,NA,NA,2,0.5,0.5,4,5,287,7,NA
fcp-trial,337,1401914,0.0-298.0-0.0,voc_e2,12212,"[{""event"":""fullscreenenter"",""trial"":1,""time"":3286}]",NA,NA,NA,NA,NA,2,#D89F1C,#3386FF,0,10,0,38,1,809.8000000119209,39,0,466.199999988079,10,1,experiment,NA,NA,1,0.3,0.7,3,2,288,7,NA
fcp-trial,338,1404622,0.0-299.0-0.0,voc_e2,12212,"[{""event"":""fullscreenenter"",""trial"":1,""time"":3286}]",NA,NA,NA,NA,NA,2,#1CD855,#FA92F8,0,0,1,38,1,778.1999999880791,39,0,423.10000002384186,0,0,experiment,NA,NA,2,0.5,0.5,4,5,289,7,NA
fcp-trial,339,1407941,0.0-300.0-0.0,voc_e2,12212,"[{""event"":""fullscreenenter"",""trial"":1,""time"":3286}]",NA,NA,NA,NA,NA,0,#D8271C,#741CD8,10,0,1,38,1,657,37,1,1158.199999988079,10,1,experiment,NA,NA,0,0.9,0.1,0,1,290,7,NA
fcp-trial,340,1410876,0.0-301.0-0.0,voc_e2,12212,"[{""event"":""fullscreenenter"",""trial"":1,""time"":3286}]",NA,NA,NA,NA,NA,5,#741CD8,#D8271C,0,10,0,40,0,1029.5,39,0,398.800000011921,10,1,experiment,NA,NA,0,0.1,0.9,1,0,291,7,NA
fcp-trial,341,1413831,0.0-302.0-0.0,voc_e2,12212,"[{""event"":""fullscreenenter"",""trial"":1,""time"":3286}]",NA,NA,NA,NA,NA,3,#D89F1C,#3386FF,0,10,0,38,1,876.1999999880791,39,0,572.6999999880791,10,1,experiment,NA,NA,1,0.3,0.7,3,2,292,7,NA
fcp-trial,342,1416786,0.0-303.0-0.0,voc_e2,12212,"[{""event"":""fullscreenenter"",""trial"":1,""time"":3286}]",NA,NA,NA,NA,NA,1,#1CD855,#FA92F8,10,10,1,38,1,918.8999999761581,39,0,531.2999999523163,10,0,experiment,NA,NA,2,0.5,0.5,4,5,293,7,NA
fcp-trial,343,1419565,0.0-304.0-0.0,voc_e2,12212,"[{""event"":""fullscreenenter"",""trial"":1,""time"":3286}]",NA,NA,NA,NA,NA,6,#741CD8,#D8271C,0,10,0,40,0,829.3999999761581,39,0,444.5999999642372,10,1,experiment,NA,NA,0,0.1,0.9,1,0,294,7,NA
fcp-trial,344,1423166,0.0-305.0-0.0,voc_e2,12212,"[{""event"":""fullscreenenter"",""trial"":1,""time"":3286}]",NA,NA,NA,NA,NA,2,#3386FF,#D89F1C,0,0,1,38,1,785.9000000357628,37,1,1311.0999999642372,0,1,experiment,NA,NA,1,0.7,0.3,2,3,295,7,NA
fcp-trial,345,1426447,0.0-306.0-0.0,voc_e2,12212,"[{""event"":""fullscreenenter"",""trial"":1,""time"":3286}]",NA,NA,NA,NA,NA,4,#FA92F8,#1CD855,10,0,0,38,1,1312.7999999523163,37,1,463.10000002384186,10,0,experiment,NA,NA,2,0.5,0.5,5,4,296,7,NA
fcp-trial,346,1429094,0.0-307.0-0.0,voc_e2,12212,"[{""event"":""fullscreenenter"",""trial"":1,""time"":3286}]",NA,NA,NA,NA,NA,2,#D8271C,#741CD8,10,0,1,38,1,788.8000000119209,37,1,354.89999997615814,10,1,experiment,NA,NA,0,0.9,0.1,0,1,297,7,NA
fcp-trial,347,1432095,0.0-308.0-0.0,voc_e2,12212,"[{""event"":""fullscreenenter"",""trial"":1,""time"":3286}]",NA,NA,NA,NA,NA,0,#D89F1C,#3386FF,0,10,0,38,1,920.3000000119209,39,0,574.9000000357628,10,1,experiment,NA,NA,1,0.3,0.7,3,2,298,7,NA
fcp-trial,348,1435940,0.0-309.0-0.0,voc_e2,12212,"[{""event"":""fullscreenenter"",""trial"":1,""time"":3286}]",NA,NA,NA,NA,NA,1,#1CD855,#FA92F8,0,0,1,38,1,742.9000000357628,39,0,1597.5999999642372,0,0,experiment,NA,NA,2,0.5,0.5,4,5,299,7,NA
fcp-trial,349,1438892,0.0-310.0-0.0,voc_e2,12212,"[{""event"":""fullscreenenter"",""trial"":1,""time"":3286}]",NA,NA,NA,NA,NA,6,#D8271C,#741CD8,10,0,1,40,0,1005,37,1,442.2000000476837,10,1,experiment,NA,NA,0,0.9,0.1,0,1,300,7,NA
fcp-trial,350,1441977,0.0-311.0-0.0,voc_e2,12212,"[{""event"":""fullscreenenter"",""trial"":1,""time"":3286}]",NA,NA,NA,NA,NA,0,#1CD855,#FA92F8,0,0,1,38,1,874.1000000238419,39,0,704.3999999761581,0,0,experiment,NA,NA,2,0.5,0.5,4,5,301,7,NA
fcp-trial,351,1444928,0.0-312.0-0.0,voc_e2,12212,"[{""event"":""fullscreenenter"",""trial"":1,""time"":3286}]",NA,NA,NA,NA,NA,4,#741CD8,#D8271C,0,10,0,38,1,1025.3999999761581,39,0,421.199999988079,10,1,experiment,NA,NA,0,0.1,0.9,1,0,302,7,NA
fcp-trial,352,1449231,0.0-313.0-0.0,voc_e2,12212,"[{""event"":""fullscreenenter"",""trial"":1,""time"":3286}]",NA,NA,NA,NA,NA,4,#D89F1C,#3386FF,10,10,0,38,1,1069.699999988079,39,0,1727.5999999642372,10,1,experiment,NA,NA,1,0.3,0.7,3,2,303,7,NA
fcp-trial,353,1452226,0.0-314.0-0.0,voc_e2,12212,"[{""event"":""fullscreenenter"",""trial"":1,""time"":3286}]",NA,NA,NA,NA,NA,3,#1CD855,#FA92F8,10,0,1,38,1,914.2999999523163,39,0,572.2000000476837,0,0,experiment,NA,NA,2,0.5,0.5,4,5,304,7,NA
fcp-trial,354,1455197,0.0-315.0-0.0,voc_e2,12212,"[{""event"":""fullscreenenter"",""trial"":1,""time"":3286}]",NA,NA,NA,NA,NA,6,#3386FF,#D89F1C,10,0,1,38,1,786.1999999880791,37,1,679.6999999880791,10,1,experiment,NA,NA,1,0.7,0.3,2,3,305,7,NA
fcp-trial,355,1458414,0.0-316.0-0.0,voc_e2,12212,"[{""event"":""fullscreenenter"",""trial"":1,""time"":3286}]",NA,NA,NA,NA,NA,2,#FA92F8,#1CD855,10,10,0,38,1,854.3000000119209,39,0,857.3000000119209,10,1,experiment,NA,NA,2,0.5,0.5,5,4,306,7,NA
fcp-trial,356,1461342,0.0-317.0-0.0,voc_e2,12212,"[{""event"":""fullscreenenter"",""trial"":1,""time"":3286}]",NA,NA,NA,NA,NA,0,#D8271C,#741CD8,10,0,1,38,1,917.4000000357628,37,1,506.5999999642372,10,1,experiment,NA,NA,0,0.9,0.1,0,1,307,7,NA
fcp-trial,357,1464297,0.0-318.0-0.0,voc_e2,12212,"[{""event"":""fullscreenenter"",""trial"":1,""time"":3286}]",NA,NA,NA,NA,NA,3,#D89F1C,#3386FF,10,10,0,38,1,702.1000000238419,39,0,748.1000000238419,10,1,experiment,NA,NA,1,0.3,0.7,3,2,308,7,NA
fcp-trial,358,1466986,0.0-319.0-0.0,voc_e2,12212,"[{""event"":""fullscreenenter"",""trial"":1,""time"":3286}]",NA,NA,NA,NA,NA,3,#D8271C,#741CD8,10,0,1,38,1,699.5,37,1,483.199999988079,10,1,experiment,NA,NA,0,0.9,0.1,0,1,309,7,NA
fcp-trial,359,1470113,0.0-320.0-0.0,voc_e2,12212,"[{""event"":""fullscreenenter"",""trial"":1,""time"":3286}]",NA,NA,NA,NA,NA,5,#FA92F8,#1CD855,10,10,0,40,0,1180.800000011921,37,1,440.9000000357628,10,0,experiment,NA,NA,2,0.5,0.5,5,4,310,7,NA
fcp-trial,360,1472696,0.0-321.0-0.0,voc_e2,12212,"[{""event"":""fullscreenenter"",""trial"":1,""time"":3286}]",NA,NA,NA,NA,NA,1,#D8271C,#741CD8,10,0,1,38,1,701.5,37,1,376,10,1,experiment,NA,NA,0,0.9,0.1,0,1,311,7,NA
fcp-trial,361,1475517,0.0-322.0-0.0,voc_e2,12212,"[{""event"":""fullscreenenter"",""trial"":1,""time"":3286}]",NA,NA,NA,NA,NA,1,#3386FF,#D89F1C,0,0,1,38,1,897.2000000476837,37,1,418.9000000357628,0,1,experiment,NA,NA,1,0.7,0.3,2,3,312,7,NA
fcp-trial,362,1478125,0.0-323.0-0.0,voc_e2,12212,"[{""event"":""fullscreenenter"",""trial"":1,""time"":3286}]",NA,NA,NA,NA,NA,5,#D89F1C,#3386FF,10,10,0,38,1,636.8000000119209,39,0,466.4000000357628,10,1,experiment,NA,NA,1,0.3,0.7,3,2,313,7,NA
fcp-trial,363,1481187,0.0-324.0-0.0,voc_e2,12212,"[{""event"":""fullscreenenter"",""trial"":1,""time"":3286}]",NA,NA,NA,NA,NA,6,#1CD855,#FA92F8,0,0,1,40,0,1200,39,0,356.10000002384186,0,0,experiment,NA,NA,2,0.5,0.5,4,5,314,7,NA
fcp-trial,364,1483704,0.0-325.0-0.0,voc_e2,12212,"[{""event"":""fullscreenenter"",""trial"":1,""time"":3286}]",NA,NA,NA,NA,NA,5,#D8271C,#741CD8,10,0,1,40,0,547.5,39,0,464.800000011921,0,0,experiment,NA,NA,0,0.9,0.1,0,1,315,7,NA
audio-instructions,365,1491655,0.0-326.0,voc_e2,12212,"[{""event"":""fullscreenenter"",""trial"":1,""time"":3286}]",NA,2317.399999976158,static/audio/finished.wav,NA,0,NA,NA,NA,NA,NA,NA,NA,NA,NA,NA,NA,NA,NA,NA,NA,NA,NA,NA,NA,NA,NA,NA,NA,NA,NA
audio-instructions,366,1503974,0.0-327.0-0.0,voc_e2,12212,"[{""event"":""fullscreenenter"",""trial"":1,""time"":3286}]",NA,1487.300000011921,static/audio/explicit1.wav,NA,0,NA,NA,NA,NA,NA,NA,NA,NA,NA,NA,NA,NA,NA,NA,NA,NA,NA,NA,NA,NA,NA,NA,NA,NA,NA
audio-instructions,367,1512196,0.0-327.0-1.0,voc_e2,12212,"[{""event"":""fullscreenenter"",""trial"":1,""time"":3286}]",NA,628.9000000357628,static/audio/explicit2.wav,NA,0,NA,NA,NA,NA,NA,NA,NA,NA,NA,NA,NA,NA,NA,NA,NA,NA,NA,NA,NA,NA,NA,NA,NA,NA,NA
image-slider-response,368,1521370,0.0-328.0,voc_e2,12212,"[{""event"":""fullscreenenter"",""trial"":1,""time"":3286}]",NA,9172.900000035765,static/img/machines/machine6.png,NA,NA,NA,NA,NA,NA,NA,NA,NA,NA,NA,NA,NA,NA,NA,NA,explicit,NA,NA,NA,NA,NA,NA,NA,NA,NA,4
image-slider-response,369,1527196,0.0-329.0,voc_e2,12212,"[{""event"":""fullscreenenter"",""trial"":1,""time"":3286}]",NA,5825.100000023842,static/img/machines/machine1.png,NA,NA,NA,NA,NA,NA,NA,NA,NA,NA,NA,NA,NA,NA,NA,NA,explicit,NA,NA,NA,NA,NA,NA,NA,NA,NA,9
image-slider-response,370,1531260,0.0-330.0,voc_e2,12212,"[{""event"":""fullscreenenter"",""trial"":1,""time"":3286}]",NA,4062.800000011921,static/img/machines/machine5.png,NA,NA,NA,NA,NA,NA,NA,NA,NA,NA,NA,NA,NA,NA,NA,NA,explicit,NA,NA,NA,NA,NA,NA,NA,NA,NA,7
image-slider-response,371,1543162,0.0-331.0,voc_e2,12212,"[{""event"":""fullscreenenter"",""trial"":1,""time"":3286}]",NA,11900.69999998808,static/img/machines/machine3.png,NA,NA,NA,NA,NA,NA,NA,NA,NA,NA,NA,NA,NA,NA,NA,NA,explicit,NA,NA,NA,NA,NA,NA,NA,NA,NA,7
image-slider-response,372,1545364,0.0-332.0,voc_e2,12212,"[{""event"":""fullscreenenter"",""trial"":1,""time"":3286}]",NA,2200.800000011921,static/img/machines/machine2.png,NA,NA,NA,NA,NA,NA,NA,NA,NA,NA,NA,NA,NA,NA,NA,NA,explicit,NA,NA,NA,NA,NA,NA,NA,NA,NA,3
image-slider-response,373,1550024,0.0-333.0,voc_e2,12212,"[{""event"":""fullscreenenter"",""trial"":1,""time"":3286}]",NA,4658.900000035763,static/img/machines/machine4.png,NA,NA,NA,NA,NA,NA,NA,NA,NA,NA,NA,NA,NA,NA,NA,NA,explicit,NA,NA,NA,NA,NA,NA,NA,NA,NA,3
