trial_type,trial_index,time_elapsed,internal_node_id,task_version,subject_id,interactions,success,rt,stimulus,key_press,button_pressed,offer,arcade_color_L,arcade_color_R,arcade_outcome_L,arcade_outcome_R,correct,stage_1_key,stage_1_choice,stage_1_rt,stage_2_key,stage_2_choice,stage_2_rt,stage_3_outcome,accuracy,phase,responses,num_errors,context,reward_prob_L,reward_prob_R,arcade_id_L,arcade_id_R,trial,block,response
pavlovia,0,17,0.0-0.0,voc_e2,12258,[],NA,NA,NA,NA,NA,NA,NA,NA,NA,NA,NA,NA,NA,NA,NA,NA,NA,NA,NA,NA,NA,NA,NA,NA,NA,NA,NA,NA,NA,NA
fullscreen,1,2260,0.0-1.0,voc_e2,12258,"[{""event"":""fullscreenenter"",""trial"":1,""time"":1312}]",TRUE,NA,NA,NA,NA,NA,NA,NA,NA,NA,NA,NA,NA,NA,NA,NA,NA,NA,NA,NA,NA,NA,NA,NA,NA,NA,NA,NA,NA,NA
audio-keyboard-response,2,3822,0.0-2.0,voc_e2,12258,"[{""event"":""fullscreenenter"",""trial"":1,""time"":1312}]",NA,1371,static/audio/beep_loop.wav,174,NA,NA,NA,NA,NA,NA,NA,NA,NA,NA,NA,NA,NA,NA,NA,NA,NA,NA,NA,NA,NA,NA,NA,NA,NA,NA
audio-test,3,5055,0.0-3.0,voc_e2,12258,"[{""event"":""fullscreenenter"",""trial"":1,""time"":1312}]",NA,NA,static/audio/turtle.wav,NA,3,NA,NA,NA,NA,NA,NA,NA,NA,NA,NA,NA,NA,NA,NA,NA,NA,NA,NA,NA,NA,NA,NA,NA,NA,NA
audio-test,4,6954,0.0-4.0,voc_e2,12258,"[{""event"":""fullscreenenter"",""trial"":1,""time"":1312}]",NA,NA,static/audio/shark.wav,NA,2,NA,NA,NA,NA,NA,NA,NA,NA,NA,NA,NA,NA,NA,NA,NA,NA,NA,NA,NA,NA,NA,NA,NA,NA,NA
audio-instructions,5,14003,0.0-5.0-0.0,voc_e2,12258,"[{""event"":""fullscreenenter"",""trial"":1,""time"":1312}]",NA,1253.100000023842,static/audio/instructions1.wav,NA,0,NA,NA,NA,NA,NA,NA,NA,NA,NA,NA,NA,NA,NA,NA,NA,NA,NA,NA,NA,NA,NA,NA,NA,NA,NA
audio-instructions,6,22660,0.0-5.0-1.0,voc_e2,12258,"[{""event"":""fullscreenenter"",""trial"":1,""time"":1312}]",NA,1920.300000011921,static/audio/instructions2.wav,NA,0,NA,NA,NA,NA,NA,NA,NA,NA,NA,NA,NA,NA,NA,NA,NA,NA,NA,NA,NA,NA,NA,NA,NA,NA,NA
audio-instructions,7,30910,0.0-5.0-2.0,voc_e2,12258,"[{""event"":""fullscreenenter"",""trial"":1,""time"":1312}]",NA,2440.199999988079,static/audio/instructions3.wav,NA,0,NA,NA,NA,NA,NA,NA,NA,NA,NA,NA,NA,NA,NA,NA,NA,NA,NA,NA,NA,NA,NA,NA,NA,NA,NA
audio-instructions,8,44172,0.0-5.0-3.0,voc_e2,12258,"[{""event"":""fullscreenenter"",""trial"":1,""time"":1312}]",NA,31.399999976158146,static/audio/instructions4.wav,NA,0,NA,NA,NA,NA,NA,NA,NA,NA,NA,NA,NA,NA,NA,NA,NA,NA,NA,NA,NA,NA,NA,NA,NA,NA,NA
audio-instructions,9,53617,0.0-5.0-4.0,voc_e2,12258,"[{""event"":""fullscreenenter"",""trial"":1,""time"":1312}]",NA,56.30000001192093,static/audio/instructions5.wav,NA,0,NA,NA,NA,NA,NA,NA,NA,NA,NA,NA,NA,NA,NA,NA,NA,NA,NA,NA,NA,NA,NA,NA,NA,NA,NA
fcp-practice,10,56189,0.0-5.0-5.0-0.0,voc_e2,12258,"[{""event"":""fullscreenenter"",""trial"":1,""time"":1312}]",NA,NA,NA,NA,NA,NA,#EDC948,#46d3c8,10,0,1,null,null,null,37,1,1047.9000000357628,10,1,practice,NA,NA,NA,NA,NA,NA,NA,NA,NA,NA
fcp-practice,11,57756,0.0-5.0-5.0-1.0,voc_e2,12258,"[{""event"":""fullscreenenter"",""trial"":1,""time"":1312}]",NA,NA,NA,NA,NA,NA,#EDC948,#46d3c8,10,0,1,null,null,null,37,1,45.5,10,1,practice,NA,NA,NA,NA,NA,NA,NA,NA,NA,NA
fcp-practice,12,59424,0.0-5.0-5.0-2.0,voc_e2,12258,"[{""event"":""fullscreenenter"",""trial"":1,""time"":1312}]",NA,NA,NA,NA,NA,NA,#EDC948,#46d3c8,0,10,1,null,null,null,37,1,148.30000001192093,0,1,practice,NA,NA,NA,NA,NA,NA,NA,NA,NA,NA
fcp-practice,13,60959,0.0-5.0-5.0-3.0,voc_e2,12258,"[{""event"":""fullscreenenter"",""trial"":1,""time"":1312}]",NA,NA,NA,NA,NA,NA,#EDC948,#46d3c8,10,0,1,null,null,null,37,1,20.80000001192093,10,1,practice,NA,NA,NA,NA,NA,NA,NA,NA,NA,NA
fcp-practice,14,62627,0.0-5.0-5.0-4.0,voc_e2,12258,"[{""event"":""fullscreenenter"",""trial"":1,""time"":1312}]",NA,NA,NA,NA,NA,NA,#EDC948,#46d3c8,10,0,1,null,null,null,37,1,145.30000001192093,10,1,practice,NA,NA,NA,NA,NA,NA,NA,NA,NA,NA
audio-instructions,15,80760,0.0-5.0-6.0,voc_e2,12258,"[{""event"":""fullscreenenter"",""trial"":1,""time"":1312}]",NA,130,static/audio/instructions6.wav,NA,0,NA,NA,NA,NA,NA,NA,NA,NA,NA,NA,NA,NA,NA,NA,NA,NA,NA,NA,NA,NA,NA,NA,NA,NA,NA
audio-instructions,16,101103,0.0-5.0-7.0,voc_e2,12258,"[{""event"":""fullscreenenter"",""trial"":1,""time"":1312}]",NA,1142.199999988079,static/audio/instructions7.wav,NA,0,NA,NA,NA,NA,NA,NA,NA,NA,NA,NA,NA,NA,NA,NA,NA,NA,NA,NA,NA,NA,NA,NA,NA,NA,NA
audio-instructions,17,111089,0.0-5.0-8.0,voc_e2,12258,"[{""event"":""fullscreenenter"",""trial"":1,""time"":1312}]",NA,507.699999988079,static/audio/instructions8.wav,NA,0,NA,NA,NA,NA,NA,NA,NA,NA,NA,NA,NA,NA,NA,NA,NA,NA,NA,NA,NA,NA,NA,NA,NA,NA,NA
fcp-comprehension,18,117867,0.0-5.0-9.0,voc_e2,12258,"[{""event"":""fullscreenenter"",""trial"":1,""time"":1312}]",NA,6775.099999964237,NA,NA,NA,NA,NA,NA,NA,NA,NA,NA,NA,NA,NA,NA,NA,NA,NA,NA,"true,true",0,NA,NA,NA,NA,NA,NA,NA,NA
audio-instructions,19,124022,0.0-6.0-0.0,voc_e2,12258,"[{""event"":""fullscreenenter"",""trial"":1,""time"":1312}]",NA,601,static/audio/instructions9.wav,NA,0,NA,NA,NA,NA,NA,NA,NA,NA,NA,NA,NA,NA,NA,NA,NA,NA,NA,NA,NA,NA,NA,NA,NA,NA,NA
audio-instructions,20,137261,0.0-6.0-1.0,voc_e2,12258,"[{""event"":""fullscreenenter"",""trial"":1,""time"":1312}]",NA,1120.399999976158,static/audio/instructions10.wav,NA,0,NA,NA,NA,NA,NA,NA,NA,NA,NA,NA,NA,NA,NA,NA,NA,NA,NA,NA,NA,NA,NA,NA,NA,NA,NA
fcp-trial,21,141464,0.0-6.0-2.0,voc_e2,12258,"[{""event"":""fullscreenenter"",""trial"":1,""time"":1312}]",NA,NA,NA,NA,NA,0,#EDC948,#46d3c8,10,10,1,38,1,1189.4000000357628,37,1,1472.9000000357628,10,1,practice,NA,NA,NA,NA,NA,NA,NA,NA,NA,NA
audio-instructions,22,153637,0.0-6.0-3.0,voc_e2,12258,"[{""event"":""fullscreenenter"",""trial"":1,""time"":1312}]",NA,1166.0999999642372,static/audio/instructions11.wav,NA,0,NA,NA,NA,NA,NA,NA,NA,NA,NA,NA,NA,NA,NA,NA,NA,NA,NA,NA,NA,NA,NA,NA,NA,NA,NA
fcp-trial,23,159844,0.0-6.0-4.0,voc_e2,12258,"[{""event"":""fullscreenenter"",""trial"":1,""time"":1312}]",NA,NA,NA,NA,NA,6,#EDC948,#46d3c8,10,10,1,40,0,1576.5999999642372,39,0,3118.099999964237,10,0,practice,NA,NA,NA,NA,NA,NA,NA,NA,NA,NA
audio-instructions,24,178572,0.0-6.0-5.0,voc_e2,12258,"[{""event"":""fullscreenenter"",""trial"":1,""time"":1312}]",NA,40.40000003576279,static/audio/instructions12.wav,NA,0,NA,NA,NA,NA,NA,NA,NA,NA,NA,NA,NA,NA,NA,NA,NA,NA,NA,NA,NA,NA,NA,NA,NA,NA,NA
audio-instructions,25,186414,0.0-6.0-6.0,voc_e2,12258,"[{""event"":""fullscreenenter"",""trial"":1,""time"":1312}]",NA,243.0999999642372,static/audio/instructions13.wav,NA,0,NA,NA,NA,NA,NA,NA,NA,NA,NA,NA,NA,NA,NA,NA,NA,NA,NA,NA,NA,NA,NA,NA,NA,NA,NA
audio-instructions,26,194943,0.0-6.0-7.0,voc_e2,12258,"[{""event"":""fullscreenenter"",""trial"":1,""time"":1312}]",NA,81.89999997615814,static/audio/instructions14.wav,NA,0,NA,NA,NA,NA,NA,NA,NA,NA,NA,NA,NA,NA,NA,NA,NA,NA,NA,NA,NA,NA,NA,NA,NA,NA,NA
audio-instructions,27,202497,0.0-7.0-0.0,voc_e2,12258,"[{""event"":""fullscreenenter"",""trial"":1,""time"":1312}]",NA,635.2999999523163,static/audio/instructions15.wav,NA,0,NA,NA,NA,NA,NA,NA,NA,NA,NA,NA,NA,NA,NA,NA,NA,NA,NA,NA,NA,NA,NA,NA,NA,NA,NA
audio-instructions,28,209991,0.0-7.0-1.0,voc_e2,12258,"[{""event"":""fullscreenenter"",""trial"":1,""time"":1312}]",NA,669.5,static/audio/instructions16.wav,NA,0,NA,NA,NA,NA,NA,NA,NA,NA,NA,NA,NA,NA,NA,NA,NA,NA,NA,NA,NA,NA,NA,NA,NA,NA,NA
audio-instructions,29,217803,0.0-7.0-2.0,voc_e2,12258,"[{""event"":""fullscreenenter"",""trial"":1,""time"":1312}]",NA,131.10000002384186,static/audio/instructions17.wav,NA,0,NA,NA,NA,NA,NA,NA,NA,NA,NA,NA,NA,NA,NA,NA,NA,NA,NA,NA,NA,NA,NA,NA,NA,NA,NA
audio-instructions,30,225747,0.0-7.0-3.0,voc_e2,12258,"[{""event"":""fullscreenenter"",""trial"":1,""time"":1312}]",NA,175.69999998807907,static/audio/instructions18.wav,NA,0,NA,NA,NA,NA,NA,NA,NA,NA,NA,NA,NA,NA,NA,NA,NA,NA,NA,NA,NA,NA,NA,NA,NA,NA,NA
audio-instructions,31,232922,0.0-7.0-4.0,voc_e2,12258,"[{""event"":""fullscreenenter"",""trial"":1,""time"":1312}]",NA,430.0999999642372,static/audio/instructions19.wav,NA,0,NA,NA,NA,NA,NA,NA,NA,NA,NA,NA,NA,NA,NA,NA,NA,NA,NA,NA,NA,NA,NA,NA,NA,NA,NA
fcp-comprehension,32,239425,0.0-7.0-5.0,voc_e2,12258,"[{""event"":""fullscreenenter"",""trial"":1,""time"":1312}]",NA,6500.600000023842,NA,NA,NA,NA,NA,NA,NA,NA,NA,NA,NA,NA,NA,NA,NA,NA,NA,NA,"false,false,false,true",0,NA,NA,NA,NA,NA,NA,NA,NA
audio-instructions,33,249119,0.0-8.0,voc_e2,12258,"[{""event"":""fullscreenenter"",""trial"":1,""time"":1312}]",NA,477.2999999523163,static/audio/ready.wav,NA,0,NA,NA,NA,NA,NA,NA,NA,NA,NA,NA,NA,NA,NA,NA,NA,NA,NA,NA,NA,NA,NA,NA,NA,NA,NA
fcp-trial,34,254970,0.0-9.0-0.0,voc_e2,12258,"[{""event"":""fullscreenenter"",""trial"":1,""time"":1312}]",NA,NA,NA,NA,NA,0,#1CD855,#FA92F8,0,0,1,38,1,3197.599999964237,39,0,1139.699999988079,0,0,experiment,NA,NA,0,0.9,0.1,0,1,1,1,NA
fcp-trial,35,261810,0.0-10.0-0.0,voc_e2,12258,"[{""event"":""fullscreenenter"",""trial"":1,""time"":1312}]",NA,NA,NA,NA,NA,2,#741CD8,#D8271C,10,10,0,40,0,2714.600000023842,39,0,2607.900000035763,10,1,experiment,NA,NA,1,0.3,0.7,3,2,2,1,NA
fcp-trial,36,266001,0.0-11.0-0.0,voc_e2,12258,"[{""event"":""fullscreenenter"",""trial"":1,""time"":1312}]",NA,NA,NA,NA,NA,3,#1CD855,#FA92F8,10,0,1,40,0,1923.699999988079,39,0,747.3999999761581,0,0,experiment,NA,NA,0,0.9,0.1,0,1,3,1,NA
fcp-trial,37,269270,0.0-12.0-0.0,voc_e2,12258,"[{""event"":""fullscreenenter"",""trial"":1,""time"":1312}]",NA,NA,NA,NA,NA,5,#1CD855,#FA92F8,10,0,1,38,1,1363.800000011921,37,1,398.4000000357628,10,1,experiment,NA,NA,0,0.9,0.1,0,1,4,1,NA
fcp-trial,38,271880,0.0-13.0-0.0,voc_e2,12258,"[{""event"":""fullscreenenter"",""trial"":1,""time"":1312}]",NA,NA,NA,NA,NA,1,#D89F1C,#3386FF,10,0,1,38,1,574.6000000238419,37,1,526.6000000238419,10,1,experiment,NA,NA,2,0.5,0.5,4,5,5,1,NA
fcp-trial,39,276389,0.0-14.0-0.0,voc_e2,12258,"[{""event"":""fullscreenenter"",""trial"":1,""time"":1312}]",NA,NA,NA,NA,NA,4,#741CD8,#D8271C,10,10,0,40,0,2114.300000011921,37,1,887.1000000238419,10,0,experiment,NA,NA,1,0.3,0.7,3,2,6,1,NA
fcp-trial,40,281027,0.0-15.0-0.0,voc_e2,12258,"[{""event"":""fullscreenenter"",""trial"":1,""time"":1312}]",NA,NA,NA,NA,NA,3,#D8271C,#741CD8,10,10,1,38,1,1180.8999999761581,39,0,1937.199999988079,10,0,experiment,NA,NA,1,0.7,0.3,2,3,7,1,NA
fcp-trial,41,283667,0.0-16.0-0.0,voc_e2,12258,"[{""event"":""fullscreenenter"",""trial"":1,""time"":1312}]",NA,NA,NA,NA,NA,1,#D8271C,#741CD8,0,0,1,38,1,730.4000000357628,37,1,393,0,1,experiment,NA,NA,1,0.7,0.3,2,3,8,1,NA
fcp-trial,42,286759,0.0-17.0-0.0,voc_e2,12258,"[{""event"":""fullscreenenter"",""trial"":1,""time"":1312}]",NA,NA,NA,NA,NA,1,#FA92F8,#1CD855,0,10,0,38,1,977.2999999523163,39,0,597.3000000119209,10,1,experiment,NA,NA,0,0.1,0.9,1,0,9,1,NA
fcp-trial,43,290234,0.0-18.0-0.0,voc_e2,12258,"[{""event"":""fullscreenenter"",""trial"":1,""time"":1312}]",NA,NA,NA,NA,NA,2,#3386FF,#D89F1C,10,10,0,38,1,1154.699999988079,39,0,808.3999999761581,10,1,experiment,NA,NA,2,0.5,0.5,5,4,10,1,NA
fcp-trial,44,293004,0.0-19.0-0.0,voc_e2,12258,"[{""event"":""fullscreenenter"",""trial"":1,""time"":1312}]",NA,NA,NA,NA,NA,4,#D89F1C,#3386FF,0,10,1,40,0,564.2999999523163,37,1,678.9000000357628,0,1,experiment,NA,NA,2,0.5,0.5,4,5,11,1,NA
fcp-trial,45,295720,0.0-20.0-0.0,voc_e2,12258,"[{""event"":""fullscreenenter"",""trial"":1,""time"":1312}]",NA,NA,NA,NA,NA,5,#741CD8,#D8271C,0,0,0,38,1,860,37,1,347,0,0,experiment,NA,NA,1,0.3,0.7,3,2,12,1,NA
fcp-trial,46,298651,0.0-21.0-0.0,voc_e2,12258,"[{""event"":""fullscreenenter"",""trial"":1,""time"":1312}]",NA,NA,NA,NA,NA,4,#FA92F8,#1CD855,0,0,0,38,1,803.6999999880791,37,1,618,0,0,experiment,NA,NA,0,0.1,0.9,1,0,13,1,NA
fcp-trial,47,302065,0.0-22.0-0.0,voc_e2,12258,"[{""event"":""fullscreenenter"",""trial"":1,""time"":1312}]",NA,NA,NA,NA,NA,5,#D89F1C,#3386FF,10,10,1,40,0,1172.5,37,1,725.9000000357628,10,1,experiment,NA,NA,2,0.5,0.5,4,5,14,1,NA
fcp-trial,48,305001,0.0-23.0-0.0,voc_e2,12258,"[{""event"":""fullscreenenter"",""trial"":1,""time"":1312}]",NA,NA,NA,NA,NA,6,#FA92F8,#1CD855,0,10,0,38,1,838.8999999761581,39,0,587.8999999761581,10,1,experiment,NA,NA,0,0.1,0.9,1,0,15,1,NA
fcp-trial,49,308819,0.0-24.0-0.0,voc_e2,12258,"[{""event"":""fullscreenenter"",""trial"":1,""time"":1312}]",NA,NA,NA,NA,NA,0,#3386FF,#D89F1C,0,10,0,38,1,1523.800000011921,39,0,787.3000000119209,10,1,experiment,NA,NA,2,0.5,0.5,5,4,16,1,NA
fcp-trial,50,311649,0.0-25.0-0.0,voc_e2,12258,"[{""event"":""fullscreenenter"",""trial"":1,""time"":1312}]",NA,NA,NA,NA,NA,6,#D8271C,#741CD8,10,10,1,40,0,844.6999999880791,39,0,477.800000011921,10,0,experiment,NA,NA,1,0.7,0.3,2,3,17,1,NA
fcp-trial,51,315017,0.0-26.0-0.0,voc_e2,12258,"[{""event"":""fullscreenenter"",""trial"":1,""time"":1312}]",NA,NA,NA,NA,NA,0,#D8271C,#741CD8,10,10,1,38,1,1341.199999988079,37,1,516.6999999880791,10,1,experiment,NA,NA,1,0.7,0.3,2,3,18,1,NA
fcp-trial,52,318565,0.0-27.0-0.0,voc_e2,12258,"[{""event"":""fullscreenenter"",""trial"":1,""time"":1312}]",NA,NA,NA,NA,NA,6,#3386FF,#D89F1C,10,0,0,38,1,866.1999999880791,39,0,1157.800000011921,0,1,experiment,NA,NA,2,0.5,0.5,5,4,19,1,NA
fcp-trial,53,321350,0.0-28.0-0.0,voc_e2,12258,"[{""event"":""fullscreenenter"",""trial"":1,""time"":1312}]",NA,NA,NA,NA,NA,2,#1CD855,#FA92F8,10,0,1,38,1,629.2000000476837,37,1,647.5,10,1,experiment,NA,NA,0,0.9,0.1,0,1,20,1,NA
fcp-trial,54,324084,0.0-29.0-0.0,voc_e2,12258,"[{""event"":""fullscreenenter"",""trial"":1,""time"":1312}]",NA,NA,NA,NA,NA,3,#3386FF,#D89F1C,10,10,0,38,1,784.3000000119209,37,1,438,10,0,experiment,NA,NA,2,0.5,0.5,5,4,21,1,NA
fcp-trial,55,327528,0.0-30.0-0.0,voc_e2,12258,"[{""event"":""fullscreenenter"",""trial"":1,""time"":1312}]",NA,NA,NA,NA,NA,1,#D89F1C,#3386FF,10,0,1,38,1,1120.3999999761581,39,0,819.5999999642372,0,0,experiment,NA,NA,2,0.5,0.5,4,5,22,1,NA
fcp-trial,56,330708,0.0-31.0-0.0,voc_e2,12258,"[{""event"":""fullscreenenter"",""trial"":1,""time"":1312}]",NA,NA,NA,NA,NA,6,#3386FF,#D89F1C,10,0,0,38,1,1045.8999999761581,37,1,626.7999999523163,10,0,experiment,NA,NA,2,0.5,0.5,5,4,23,1,NA
fcp-trial,57,333511,0.0-32.0-0.0,voc_e2,12258,"[{""event"":""fullscreenenter"",""trial"":1,""time"":1312}]",NA,NA,NA,NA,NA,2,#D8271C,#741CD8,0,10,1,40,0,805.8999999761581,37,1,486.60000002384186,0,1,experiment,NA,NA,1,0.7,0.3,2,3,24,1,NA
fcp-trial,58,336530,0.0-33.0-0.0,voc_e2,12258,"[{""event"":""fullscreenenter"",""trial"":1,""time"":1312}]",NA,NA,NA,NA,NA,0,#3386FF,#D89F1C,10,10,0,38,1,962.8000000119209,37,1,546.5999999642372,10,0,experiment,NA,NA,2,0.5,0.5,5,4,25,1,NA
fcp-trial,59,340033,0.0-34.0-0.0,voc_e2,12258,"[{""event"":""fullscreenenter"",""trial"":1,""time"":1312}]",NA,NA,NA,NA,NA,0,#FA92F8,#1CD855,0,10,0,38,1,907.6999999880791,39,0,1076.5,10,1,experiment,NA,NA,0,0.1,0.9,1,0,26,1,NA
fcp-trial,60,342959,0.0-35.0-0.0,voc_e2,12258,"[{""event"":""fullscreenenter"",""trial"":1,""time"":1312}]",NA,NA,NA,NA,NA,2,#FA92F8,#1CD855,0,10,0,40,0,864.1000000238419,37,1,546.1999999880791,0,0,experiment,NA,NA,0,0.1,0.9,1,0,27,1,NA
fcp-trial,61,345864,0.0-36.0-0.0,voc_e2,12258,"[{""event"":""fullscreenenter"",""trial"":1,""time"":1312}]",NA,NA,NA,NA,NA,4,#1CD855,#FA92F8,10,0,1,40,0,914.8999999761581,39,0,468.5999999642372,0,0,experiment,NA,NA,0,0.9,0.1,0,1,28,1,NA
fcp-trial,62,350433,0.0-37.0-0.0,voc_e2,12258,"[{""event"":""fullscreenenter"",""trial"":1,""time"":1312}]",NA,NA,NA,NA,NA,0,#D8271C,#741CD8,10,0,1,38,1,920.4000000357628,37,1,2137.099999964237,10,1,experiment,NA,NA,1,0.7,0.3,2,3,29,1,NA
fcp-trial,63,353152,0.0-38.0-0.0,voc_e2,12258,"[{""event"":""fullscreenenter"",""trial"":1,""time"":1312}]",NA,NA,NA,NA,NA,5,#3386FF,#D89F1C,0,10,0,40,0,701.6000000238419,39,0,492.800000011921,10,1,experiment,NA,NA,2,0.5,0.5,5,4,30,1,NA
fcp-trial,64,357038,0.0-39.0-0.0,voc_e2,12258,"[{""event"":""fullscreenenter"",""trial"":1,""time"":1312}]",NA,NA,NA,NA,NA,3,#741CD8,#D8271C,0,10,0,38,1,1571.9000000357628,39,0,808.1999999880791,10,1,experiment,NA,NA,1,0.3,0.7,3,2,31,1,NA
fcp-trial,65,360343,0.0-40.0-0.0,voc_e2,12258,"[{""event"":""fullscreenenter"",""trial"":1,""time"":1312}]",NA,NA,NA,NA,NA,1,#1CD855,#FA92F8,10,0,1,38,1,1345.2999999523163,37,1,445,10,1,experiment,NA,NA,0,0.9,0.1,0,1,32,1,NA
fcp-trial,66,363940,0.0-41.0-0.0,voc_e2,12258,"[{""event"":""fullscreenenter"",""trial"":1,""time"":1312}]",NA,NA,NA,NA,NA,5,#FA92F8,#1CD855,0,0,0,40,0,1380.800000011921,37,1,707.3000000119209,0,0,experiment,NA,NA,0,0.1,0.9,1,0,33,1,NA
fcp-trial,67,367810,0.0-42.0-0.0,voc_e2,12258,"[{""event"":""fullscreenenter"",""trial"":1,""time"":1312}]",NA,NA,NA,NA,NA,3,#1CD855,#FA92F8,10,10,1,38,1,1923.699999988079,37,1,437.199999988079,10,1,experiment,NA,NA,0,0.9,0.1,0,1,34,1,NA
fcp-trial,68,371641,0.0-43.0-0.0,voc_e2,12258,"[{""event"":""fullscreenenter"",""trial"":1,""time"":1312}]",NA,NA,NA,NA,NA,3,#D89F1C,#3386FF,0,10,1,40,0,1683.8999999761581,39,0,633.5,10,0,experiment,NA,NA,2,0.5,0.5,4,5,35,1,NA
fcp-trial,69,374299,0.0-44.0-0.0,voc_e2,12258,"[{""event"":""fullscreenenter"",""trial"":1,""time"":1312}]",NA,NA,NA,NA,NA,1,#741CD8,#D8271C,10,10,0,38,1,744.1000000238419,39,0,408.10000002384186,10,1,experiment,NA,NA,1,0.3,0.7,3,2,36,1,NA
fcp-trial,70,381019,0.0-45.0-0.0,voc_e2,12258,"[{""event"":""fullscreenenter"",""trial"":1,""time"":1312}]",NA,NA,NA,NA,NA,4,#741CD8,#D8271C,0,10,0,40,0,4605.399999976158,37,1,605.5,0,0,experiment,NA,NA,1,0.3,0.7,3,2,37,1,NA
fcp-trial,71,383767,0.0-46.0-0.0,voc_e2,12258,"[{""event"":""fullscreenenter"",""trial"":1,""time"":1312}]",NA,NA,NA,NA,NA,6,#741CD8,#D8271C,0,10,0,38,1,954.8999999761581,39,0,286.0999999642372,10,1,experiment,NA,NA,1,0.3,0.7,3,2,38,1,NA
fcp-trial,72,387398,0.0-47.0-0.0,voc_e2,12258,"[{""event"":""fullscreenenter"",""trial"":1,""time"":1312}]",NA,NA,NA,NA,NA,6,#FA92F8,#1CD855,0,10,0,40,0,1477.6000000238419,37,1,647.1000000238419,0,0,experiment,NA,NA,0,0.1,0.9,1,0,39,1,NA
fcp-trial,73,390319,0.0-48.0-0.0,voc_e2,12258,"[{""event"":""fullscreenenter"",""trial"":1,""time"":1312}]",NA,NA,NA,NA,NA,2,#D89F1C,#3386FF,10,0,1,38,1,956.2999999523163,39,0,458.5,0,0,experiment,NA,NA,2,0.5,0.5,4,5,40,1,NA
fcp-trial,74,393947,0.0-49.0-0.0,voc_e2,12258,"[{""event"":""fullscreenenter"",""trial"":1,""time"":1312}]",NA,NA,NA,NA,NA,4,#3386FF,#D89F1C,10,10,0,40,0,1625.800000011921,37,1,486.9000000357628,10,0,experiment,NA,NA,2,0.5,0.5,5,4,41,1,NA
fcp-trial,75,397428,0.0-50.0-0.0,voc_e2,12258,"[{""event"":""fullscreenenter"",""trial"":1,""time"":1312}]",NA,NA,NA,NA,NA,5,#741CD8,#D8271C,10,10,0,38,1,1276.7999999523163,39,0,696.1000000238419,10,1,experiment,NA,NA,1,0.3,0.7,3,2,42,1,NA
fcp-trial,76,400198,0.0-51.0-0.0,voc_e2,12258,"[{""event"":""fullscreenenter"",""trial"":1,""time"":1312}]",NA,NA,NA,NA,NA,4,#3386FF,#D89F1C,10,0,0,40,0,805.8999999761581,37,1,456.0999999642372,10,0,experiment,NA,NA,2,0.5,0.5,5,4,43,1,NA
fcp-trial,77,403828,0.0-52.0-0.0,voc_e2,12258,"[{""event"":""fullscreenenter"",""trial"":1,""time"":1312}]",NA,NA,NA,NA,NA,1,#741CD8,#D8271C,0,10,0,38,1,1606.199999988079,39,0,516,10,1,experiment,NA,NA,1,0.3,0.7,3,2,44,1,NA
fcp-trial,78,406764,0.0-53.0-0.0,voc_e2,12258,"[{""event"":""fullscreenenter"",""trial"":1,""time"":1312}]",NA,NA,NA,NA,NA,6,#FA92F8,#1CD855,0,10,0,40,0,906.2999999523163,37,1,519.1000000238419,0,0,experiment,NA,NA,0,0.1,0.9,1,0,45,1,NA
fcp-trial,79,409691,0.0-54.0-0.0,voc_e2,12258,"[{""event"":""fullscreenenter"",""trial"":1,""time"":1312}]",NA,NA,NA,NA,NA,2,#3386FF,#D89F1C,10,10,0,38,1,840.8000000119209,37,1,571.6999999880791,10,0,experiment,NA,NA,2,0.5,0.5,5,4,46,2,NA
fcp-trial,80,412944,0.0-55.0-0.0,voc_e2,12258,"[{""event"":""fullscreenenter"",""trial"":1,""time"":1312}]",NA,NA,NA,NA,NA,3,#D8271C,#741CD8,0,0,1,38,1,1323.800000011921,37,1,416.300000011921,0,1,experiment,NA,NA,1,0.7,0.3,2,3,47,2,NA
fcp-trial,81,416010,0.0-56.0-0.0,voc_e2,12258,"[{""event"":""fullscreenenter"",""trial"":1,""time"":1312}]",NA,NA,NA,NA,NA,6,#3386FF,#D89F1C,0,0,0,40,0,1071.1000000238419,37,1,481.199999988079,0,0,experiment,NA,NA,2,0.5,0.5,5,4,48,2,NA
fcp-trial,82,419428,0.0-57.0-0.0,voc_e2,12258,"[{""event"":""fullscreenenter"",""trial"":1,""time"":1312}]",NA,NA,NA,NA,NA,1,#FA92F8,#1CD855,10,10,0,38,1,1324.7999999523163,39,0,588,10,1,experiment,NA,NA,0,0.1,0.9,1,0,49,2,NA
fcp-trial,83,422808,0.0-58.0-0.0,voc_e2,12258,"[{""event"":""fullscreenenter"",""trial"":1,""time"":1312}]",NA,NA,NA,NA,NA,0,#3386FF,#D89F1C,10,0,0,38,1,1357,37,1,518.0999999642372,10,0,experiment,NA,NA,2,0.5,0.5,5,4,50,2,NA
fcp-trial,84,426294,0.0-59.0-0.0,voc_e2,12258,"[{""event"":""fullscreenenter"",""trial"":1,""time"":1312}]",NA,NA,NA,NA,NA,5,#FA92F8,#1CD855,0,10,0,40,0,1386.1000000238419,37,1,583,0,0,experiment,NA,NA,0,0.1,0.9,1,0,51,2,NA
fcp-trial,85,429031,0.0-60.0-0.0,voc_e2,12258,"[{""event"":""fullscreenenter"",""trial"":1,""time"":1312}]",NA,NA,NA,NA,NA,4,#741CD8,#D8271C,10,0,0,38,1,815,39,0,406.39999997615814,0,1,experiment,NA,NA,1,0.3,0.7,3,2,52,2,NA
fcp-trial,86,432972,0.0-61.0-0.0,voc_e2,12258,"[{""event"":""fullscreenenter"",""trial"":1,""time"":1312}]",NA,NA,NA,NA,NA,5,#D8271C,#741CD8,0,0,1,40,0,1813.3999999761581,39,0,619.3999999761581,0,0,experiment,NA,NA,1,0.7,0.3,2,3,53,2,NA
fcp-trial,87,436310,0.0-62.0-0.0,voc_e2,12258,"[{""event"":""fullscreenenter"",""trial"":1,""time"":1312}]",NA,NA,NA,NA,NA,1,#3386FF,#D89F1C,0,0,0,38,1,1052.300000011921,37,1,772.3000000119209,0,0,experiment,NA,NA,2,0.5,0.5,5,4,54,2,NA
fcp-trial,88,439254,0.0-63.0-0.0,voc_e2,12258,"[{""event"":""fullscreenenter"",""trial"":1,""time"":1312}]",NA,NA,NA,NA,NA,5,#3386FF,#D89F1C,10,0,0,40,0,925.5999999642372,37,1,503.4000000357628,10,0,experiment,NA,NA,2,0.5,0.5,5,4,55,2,NA
fcp-trial,89,442808,0.0-64.0-0.0,voc_e2,12258,"[{""event"":""fullscreenenter"",""trial"":1,""time"":1312}]",NA,NA,NA,NA,NA,2,#1CD855,#FA92F8,10,0,1,38,1,1581.300000011921,37,1,461.39999997615814,10,1,experiment,NA,NA,0,0.9,0.1,0,1,56,2,NA
fcp-trial,90,445958,0.0-65.0-0.0,voc_e2,12258,"[{""event"":""fullscreenenter"",""trial"":1,""time"":1312}]",NA,NA,NA,NA,NA,4,#FA92F8,#1CD855,10,10,0,40,0,1186.5,39,0,458.0999999642372,10,1,experiment,NA,NA,0,0.1,0.9,1,0,57,2,NA
fcp-trial,91,449118,0.0-66.0-0.0,voc_e2,12258,"[{""event"":""fullscreenenter"",""trial"":1,""time"":1312}]",NA,NA,NA,NA,NA,2,#741CD8,#D8271C,0,10,0,38,1,1235.9000000357628,39,0,415.5999999642372,10,1,experiment,NA,NA,1,0.3,0.7,3,2,58,2,NA
fcp-trial,92,452648,0.0-67.0-0.0,voc_e2,12258,"[{""event"":""fullscreenenter"",""trial"":1,""time"":1312}]",NA,NA,NA,NA,NA,3,#3386FF,#D89F1C,10,10,0,38,1,1176.699999988079,37,1,847.0999999642372,10,0,experiment,NA,NA,2,0.5,0.5,5,4,59,2,NA
fcp-trial,93,455678,0.0-68.0-0.0,voc_e2,12258,"[{""event"":""fullscreenenter"",""trial"":1,""time"":1312}]",NA,NA,NA,NA,NA,0,#FA92F8,#1CD855,10,10,0,38,1,1177.199999988079,39,0,347.19999998807907,10,1,experiment,NA,NA,0,0.1,0.9,1,0,60,2,NA
fcp-trial,94,459662,0.0-69.0-0.0,voc_e2,12258,"[{""event"":""fullscreenenter"",""trial"":1,""time"":1312}]",NA,NA,NA,NA,NA,0,#D8271C,#741CD8,10,0,1,38,1,2047.5,37,1,426.199999988079,10,1,experiment,NA,NA,1,0.7,0.3,2,3,61,2,NA
fcp-trial,95,463263,0.0-70.0-0.0,voc_e2,12258,"[{""event"":""fullscreenenter"",""trial"":1,""time"":1312}]",NA,NA,NA,NA,NA,3,#1CD855,#FA92F8,0,0,1,40,0,1563.300000011921,39,0,524.3000000119209,0,0,experiment,NA,NA,0,0.9,0.1,0,1,62,2,NA
fcp-trial,96,467218,0.0-71.0-0.0,voc_e2,12258,"[{""event"":""fullscreenenter"",""trial"":1,""time"":1312}]",NA,NA,NA,NA,NA,6,#741CD8,#D8271C,0,10,0,40,0,1754.1000000238419,37,1,682.3999999761581,0,0,experiment,NA,NA,1,0.3,0.7,3,2,63,2,NA
fcp-trial,97,471655,0.0-72.0-0.0,voc_e2,12258,"[{""event"":""fullscreenenter"",""trial"":1,""time"":1312}]",NA,NA,NA,NA,NA,4,#1CD855,#FA92F8,10,0,1,40,0,2429.600000023842,37,1,497.10000002384186,10,1,experiment,NA,NA,0,0.9,0.1,0,1,64,2,NA
fcp-trial,98,474987,0.0-73.0-0.0,voc_e2,12258,"[{""event"":""fullscreenenter"",""trial"":1,""time"":1312}]",NA,NA,NA,NA,NA,0,#3386FF,#D89F1C,10,0,0,38,1,1351.9000000357628,37,1,467.199999988079,10,0,experiment,NA,NA,2,0.5,0.5,5,4,65,2,NA
fcp-trial,99,479516,0.0-74.0-0.0,voc_e2,12258,"[{""event"":""fullscreenenter"",""trial"":1,""time"":1312}]",NA,NA,NA,NA,NA,3,#741CD8,#D8271C,10,10,0,40,0,2440.400000035763,37,1,576.6999999880791,10,0,experiment,NA,NA,1,0.3,0.7,3,2,66,2,NA
fcp-trial,100,482555,0.0-75.0-0.0,voc_e2,12258,"[{""event"":""fullscreenenter"",""trial"":1,""time"":1312}]",NA,NA,NA,NA,NA,0,#1CD855,#FA92F8,0,0,1,38,1,1120.5,37,1,407.5,0,1,experiment,NA,NA,0,0.9,0.1,0,1,67,2,NA
fcp-trial,101,485667,0.0-76.0-0.0,voc_e2,12258,"[{""event"":""fullscreenenter"",""trial"":1,""time"":1312}]",NA,NA,NA,NA,NA,2,#1CD855,#FA92F8,10,0,1,38,1,1213.5999999642372,37,1,383.10000002384186,10,1,experiment,NA,NA,0,0.9,0.1,0,1,68,2,NA
fcp-trial,102,488605,0.0-77.0-0.0,voc_e2,12258,"[{""event"":""fullscreenenter"",""trial"":1,""time"":1312}]",NA,NA,NA,NA,NA,0,#741CD8,#D8271C,0,10,0,38,1,1079.6000000238419,39,0,348.4000000357628,10,1,experiment,NA,NA,1,0.3,0.7,3,2,69,2,NA
fcp-trial,103,492410,0.0-78.0-0.0,voc_e2,12258,"[{""event"":""fullscreenenter"",""trial"":1,""time"":1312}]",NA,NA,NA,NA,NA,6,#D89F1C,#3386FF,0,0,1,40,0,1806.5,39,0,485.800000011921,0,0,experiment,NA,NA,2,0.5,0.5,4,5,70,2,NA
fcp-trial,104,495994,0.0-79.0-0.0,voc_e2,12258,"[{""event"":""fullscreenenter"",""trial"":1,""time"":1312}]",NA,NA,NA,NA,NA,5,#3386FF,#D89F1C,10,10,0,40,0,1256.6000000238419,37,1,812.2000000476837,10,0,experiment,NA,NA,2,0.5,0.5,5,4,71,2,NA
fcp-trial,105,498737,0.0-80.0-0.0,voc_e2,12258,"[{""event"":""fullscreenenter"",""trial"":1,""time"":1312}]",NA,NA,NA,NA,NA,5,#FA92F8,#1CD855,0,10,0,38,1,784,39,0,445.39999997615814,10,1,experiment,NA,NA,0,0.1,0.9,1,0,72,2,NA
fcp-trial,106,502371,0.0-81.0-0.0,voc_e2,12258,"[{""event"":""fullscreenenter"",""trial"":1,""time"":1312}]",NA,NA,NA,NA,NA,4,#D8271C,#741CD8,10,0,1,40,0,1049.800000011921,39,0,1075.9000000357628,0,0,experiment,NA,NA,1,0.7,0.3,2,3,73,2,NA
fcp-trial,107,505184,0.0-82.0-0.0,voc_e2,12258,"[{""event"":""fullscreenenter"",""trial"":1,""time"":1312}]",NA,NA,NA,NA,NA,1,#FA92F8,#1CD855,0,10,0,38,1,956.2999999523163,39,0,347,10,1,experiment,NA,NA,0,0.1,0.9,1,0,74,2,NA
fcp-trial,108,507943,0.0-83.0-0.0,voc_e2,12258,"[{""event"":""fullscreenenter"",""trial"":1,""time"":1312}]",NA,NA,NA,NA,NA,2,#3386FF,#D89F1C,10,0,0,38,1,989,37,1,256.19999998807907,10,0,experiment,NA,NA,2,0.5,0.5,5,4,75,2,NA
fcp-trial,109,511187,0.0-84.0-0.0,voc_e2,12258,"[{""event"":""fullscreenenter"",""trial"":1,""time"":1312}]",NA,NA,NA,NA,NA,1,#D8271C,#741CD8,0,0,1,38,1,1464.300000011921,37,1,268.5,0,1,experiment,NA,NA,1,0.7,0.3,2,3,76,2,NA
fcp-trial,110,514407,0.0-85.0-0.0,voc_e2,12258,"[{""event"":""fullscreenenter"",""trial"":1,""time"":1312}]",NA,NA,NA,NA,NA,3,#FA92F8,#1CD855,0,0,0,38,1,1385.4000000357628,39,0,313.39999997615814,0,1,experiment,NA,NA,0,0.1,0.9,1,0,77,2,NA
fcp-trial,111,517776,0.0-86.0-0.0,voc_e2,12258,"[{""event"":""fullscreenenter"",""trial"":1,""time"":1312}]",NA,NA,NA,NA,NA,2,#741CD8,#D8271C,0,0,0,38,1,1340.4000000357628,39,0,517.3000000119209,0,1,experiment,NA,NA,1,0.3,0.7,3,2,78,2,NA
fcp-trial,112,521160,0.0-87.0-0.0,voc_e2,12258,"[{""event"":""fullscreenenter"",""trial"":1,""time"":1312}]",NA,NA,NA,NA,NA,1,#3386FF,#D89F1C,10,10,0,38,1,1089.5999999642372,37,1,783.2000000476837,10,0,experiment,NA,NA,2,0.5,0.5,5,4,79,2,NA
fcp-trial,113,524593,0.0-88.0-0.0,voc_e2,12258,"[{""event"":""fullscreenenter"",""trial"":1,""time"":1312}]",NA,NA,NA,NA,NA,3,#3386FF,#D89F1C,0,0,0,40,0,1451.300000011921,39,0,457.199999988079,0,1,experiment,NA,NA,2,0.5,0.5,5,4,80,2,NA
fcp-trial,114,527653,0.0-89.0-0.0,voc_e2,12258,"[{""event"":""fullscreenenter"",""trial"":1,""time"":1312}]",NA,NA,NA,NA,NA,6,#D8271C,#741CD8,10,0,1,40,0,982.8999999761581,37,1,568.1999999880791,10,1,experiment,NA,NA,1,0.7,0.3,2,3,81,2,NA
fcp-trial,115,530912,0.0-90.0-0.0,voc_e2,12258,"[{""event"":""fullscreenenter"",""trial"":1,""time"":1312}]",NA,NA,NA,NA,NA,6,#FA92F8,#1CD855,0,10,0,40,0,1233.3999999761581,39,0,517.3000000119209,10,1,experiment,NA,NA,0,0.1,0.9,1,0,82,2,NA
fcp-trial,116,533935,0.0-91.0-0.0,voc_e2,12258,"[{""event"":""fullscreenenter"",""trial"":1,""time"":1312}]",NA,NA,NA,NA,NA,5,#741CD8,#D8271C,0,10,0,40,0,1013.9000000357628,39,0,494.0999999642372,10,1,experiment,NA,NA,1,0.3,0.7,3,2,83,2,NA
fcp-trial,117,537071,0.0-92.0-0.0,voc_e2,12258,"[{""event"":""fullscreenenter"",""trial"":1,""time"":1312}]",NA,NA,NA,NA,NA,4,#D89F1C,#3386FF,0,0,1,40,0,1095.6000000238419,39,0,523.3000000119209,0,0,experiment,NA,NA,2,0.5,0.5,4,5,84,2,NA
fcp-trial,118,540154,0.0-93.0-0.0,voc_e2,12258,"[{""event"":""fullscreenenter"",""trial"":1,""time"":1312}]",NA,NA,NA,NA,NA,0,#3386FF,#D89F1C,0,10,0,38,1,1110.6000000238419,37,1,457.300000011921,0,0,experiment,NA,NA,2,0.5,0.5,5,4,85,2,NA
fcp-trial,119,543025,0.0-94.0-0.0,voc_e2,12258,"[{""event"":""fullscreenenter"",""trial"":1,""time"":1312}]",NA,NA,NA,NA,NA,1,#FA92F8,#1CD855,0,10,0,38,1,1001.8999999761581,39,0,358.69999998807907,10,1,experiment,NA,NA,0,0.1,0.9,1,0,86,2,NA
fcp-trial,120,545879,0.0-95.0-0.0,voc_e2,12258,"[{""event"":""fullscreenenter"",""trial"":1,""time"":1312}]",NA,NA,NA,NA,NA,4,#FA92F8,#1CD855,0,0,0,40,0,871.3000000119209,39,0,473.39999997615814,0,1,experiment,NA,NA,0,0.1,0.9,1,0,87,2,NA
fcp-trial,121,548809,0.0-96.0-0.0,voc_e2,12258,"[{""event"":""fullscreenenter"",""trial"":1,""time"":1312}]",NA,NA,NA,NA,NA,4,#3386FF,#D89F1C,10,10,0,40,0,887.5,39,0,537.5,10,1,experiment,NA,NA,2,0.5,0.5,5,4,88,2,NA
fcp-trial,122,551865,0.0-97.0-0.0,voc_e2,12258,"[{""event"":""fullscreenenter"",""trial"":1,""time"":1312}]",NA,NA,NA,NA,NA,1,#741CD8,#D8271C,0,10,0,38,1,896.9000000357628,39,0,635.0999999642372,10,1,experiment,NA,NA,1,0.3,0.7,3,2,89,2,NA
fcp-trial,123,555795,0.0-98.0-0.0,voc_e2,12258,"[{""event"":""fullscreenenter"",""trial"":1,""time"":1312}]",NA,NA,NA,NA,NA,0,#D8271C,#741CD8,0,0,1,38,1,970.5999999642372,37,1,1442.899999976158,0,1,experiment,NA,NA,1,0.7,0.3,2,3,90,2,NA
fcp-trial,124,558819,0.0-99.0-0.0,voc_e2,12258,"[{""event"":""fullscreenenter"",""trial"":1,""time"":1312}]",NA,NA,NA,NA,NA,6,#1CD855,#FA92F8,10,0,1,40,0,1000.8999999761581,37,1,517.1999999880791,10,1,experiment,NA,NA,0,0.9,0.1,0,1,91,3,NA
fcp-trial,125,562279,0.0-100.0-0.0,voc_e2,12258,"[{""event"":""fullscreenenter"",""trial"":1,""time"":1312}]",NA,NA,NA,NA,NA,3,#3386FF,#D89F1C,10,0,0,40,0,1462.6000000238419,39,0,487.199999988079,0,1,experiment,NA,NA,2,0.5,0.5,5,4,92,3,NA
fcp-trial,126,565054,0.0-101.0-0.0,voc_e2,12258,"[{""event"":""fullscreenenter"",""trial"":1,""time"":1312}]",NA,NA,NA,NA,NA,6,#D8271C,#741CD8,10,0,1,40,0,676.1999999880791,39,0,575.3999999761581,0,0,experiment,NA,NA,1,0.7,0.3,2,3,93,3,NA
fcp-trial,127,568350,0.0-102.0-0.0,voc_e2,12258,"[{""event"":""fullscreenenter"",""trial"":1,""time"":1312}]",NA,NA,NA,NA,NA,3,#D8271C,#741CD8,10,0,1,38,1,1275.699999988079,37,1,508.39999997615814,10,1,experiment,NA,NA,1,0.7,0.3,2,3,94,3,NA
fcp-trial,128,572194,0.0-103.0-0.0,voc_e2,12258,"[{""event"":""fullscreenenter"",""trial"":1,""time"":1312}]",NA,NA,NA,NA,NA,2,#FA92F8,#1CD855,0,10,0,38,1,1585.7999999523163,39,0,748.9000000357628,10,1,experiment,NA,NA,0,0.1,0.9,1,0,95,3,NA
fcp-trial,129,575363,0.0-104.0-0.0,voc_e2,12258,"[{""event"":""fullscreenenter"",""trial"":1,""time"":1312}]",NA,NA,NA,NA,NA,2,#3386FF,#D89F1C,0,0,0,38,1,1217.300000011921,37,1,435.9000000357628,0,0,experiment,NA,NA,2,0.5,0.5,5,4,96,3,NA
fcp-trial,130,578270,0.0-105.0-0.0,voc_e2,12258,"[{""event"":""fullscreenenter"",""trial"":1,""time"":1312}]",NA,NA,NA,NA,NA,5,#D89F1C,#3386FF,10,10,1,40,0,887.8000000119209,39,0,506.800000011921,10,0,experiment,NA,NA,2,0.5,0.5,4,5,97,3,NA
fcp-trial,131,581451,0.0-106.0-0.0,voc_e2,12258,"[{""event"":""fullscreenenter"",""trial"":1,""time"":1312}]",NA,NA,NA,NA,NA,5,#1CD855,#FA92F8,10,10,1,40,0,1146.5,39,0,524.5,10,0,experiment,NA,NA,0,0.9,0.1,0,1,98,3,NA
fcp-trial,132,584512,0.0-107.0-0.0,voc_e2,12258,"[{""event"":""fullscreenenter"",""trial"":1,""time"":1312}]",NA,NA,NA,NA,NA,4,#741CD8,#D8271C,10,10,0,40,0,1065.5,39,0,488.699999988079,10,1,experiment,NA,NA,1,0.3,0.7,3,2,99,3,NA
fcp-trial,133,587815,0.0-108.0-0.0,voc_e2,12258,"[{""event"":""fullscreenenter"",""trial"":1,""time"":1312}]",NA,NA,NA,NA,NA,3,#FA92F8,#1CD855,0,10,0,40,0,1244.1000000238419,37,1,545.8000000119209,0,0,experiment,NA,NA,0,0.1,0.9,1,0,100,3,NA
fcp-trial,134,590649,0.0-109.0-0.0,voc_e2,12258,"[{""event"":""fullscreenenter"",""trial"":1,""time"":1312}]",NA,NA,NA,NA,NA,5,#D8271C,#741CD8,0,0,1,40,0,700.8000000119209,37,1,629.1999999880791,0,1,experiment,NA,NA,1,0.7,0.3,2,3,101,3,NA
fcp-trial,135,593536,0.0-110.0-0.0,voc_e2,12258,"[{""event"":""fullscreenenter"",""trial"":1,""time"":1312}]",NA,NA,NA,NA,NA,1,#3386FF,#D89F1C,0,0,0,38,1,927.1000000238419,37,1,447.5,0,0,experiment,NA,NA,2,0.5,0.5,5,4,102,3,NA
fcp-trial,136,596203,0.0-111.0-0.0,voc_e2,12258,"[{""event"":""fullscreenenter"",""trial"":1,""time"":1312}]",NA,NA,NA,NA,NA,6,#3386FF,#D89F1C,10,10,0,40,0,620.6000000238419,37,1,538.5,10,0,experiment,NA,NA,2,0.5,0.5,5,4,103,3,NA
fcp-trial,137,599830,0.0-112.0-0.0,voc_e2,12258,"[{""event"":""fullscreenenter"",""trial"":1,""time"":1312}]",NA,NA,NA,NA,NA,2,#741CD8,#D8271C,0,10,0,38,1,1729.199999988079,39,0,385.60000002384186,10,1,experiment,NA,NA,1,0.3,0.7,3,2,104,3,NA
fcp-trial,138,603942,0.0-113.0-0.0,voc_e2,12258,"[{""event"":""fullscreenenter"",""trial"":1,""time"":1312}]",NA,NA,NA,NA,NA,0,#1CD855,#FA92F8,10,0,1,38,1,1806.9000000357628,37,1,796,10,1,experiment,NA,NA,0,0.9,0.1,0,1,105,3,NA
audio-instructions,139,609141,0.0-114.0,voc_e2,12258,"[{""event"":""fullscreenenter"",""trial"":1,""time"":1312}]",NA,337.0999999642372,static/audio/pause.wav,NA,0,NA,NA,NA,NA,NA,NA,NA,NA,NA,NA,NA,NA,NA,NA,NA,NA,NA,NA,NA,NA,NA,NA,NA,NA,NA
fcp-trial,140,612857,0.0-115.0-0.0,voc_e2,12258,"[{""event"":""fullscreenenter"",""trial"":1,""time"":1312}]",NA,NA,NA,NA,NA,3,#3386FF,#D89F1C,0,10,0,40,0,1761.300000011921,37,1,426.7999999523163,0,0,experiment,NA,NA,2,0.5,0.5,5,4,106,3,NA
fcp-trial,141,617560,0.0-116.0-0.0,voc_e2,12258,"[{""event"":""fullscreenenter"",""trial"":1,""time"":1312}]",NA,NA,NA,NA,NA,6,#FA92F8,#1CD855,0,10,0,40,0,2551,39,0,637.4000000357628,10,1,experiment,NA,NA,0,0.1,0.9,1,0,107,3,NA
fcp-trial,142,621412,0.0-117.0-0.0,voc_e2,12258,"[{""event"":""fullscreenenter"",""trial"":1,""time"":1312}]",NA,NA,NA,NA,NA,0,#D89F1C,#3386FF,10,0,1,38,1,1355.9000000357628,39,0,977.4000000357628,0,0,experiment,NA,NA,2,0.5,0.5,4,5,108,3,NA
fcp-trial,143,624272,0.0-118.0-0.0,voc_e2,12258,"[{""event"":""fullscreenenter"",""trial"":1,""time"":1312}]",NA,NA,NA,NA,NA,5,#741CD8,#D8271C,10,10,0,40,0,850.0999999642372,39,0,488.199999988079,10,1,experiment,NA,NA,1,0.3,0.7,3,2,109,3,NA
fcp-trial,144,628101,0.0-119.0-0.0,voc_e2,12258,"[{""event"":""fullscreenenter"",""trial"":1,""time"":1312}]",NA,NA,NA,NA,NA,5,#D89F1C,#3386FF,10,0,1,40,0,904.6999999880791,37,1,1406.800000011921,10,1,experiment,NA,NA,2,0.5,0.5,4,5,110,3,NA
fcp-trial,145,631336,0.0-120.0-0.0,voc_e2,12258,"[{""event"":""fullscreenenter"",""trial"":1,""time"":1312}]",NA,NA,NA,NA,NA,1,#1CD855,#FA92F8,10,0,1,38,1,1066.6000000238419,37,1,658.6000000238419,10,1,experiment,NA,NA,0,0.9,0.1,0,1,111,3,NA
fcp-trial,146,634171,0.0-121.0-0.0,voc_e2,12258,"[{""event"":""fullscreenenter"",""trial"":1,""time"":1312}]",NA,NA,NA,NA,NA,6,#3386FF,#D89F1C,0,10,0,40,0,790.3000000119209,37,1,526,0,0,experiment,NA,NA,2,0.5,0.5,5,4,112,3,NA
fcp-trial,147,637002,0.0-122.0-0.0,voc_e2,12258,"[{""event"":""fullscreenenter"",""trial"":1,""time"":1312}]",NA,NA,NA,NA,NA,5,#1CD855,#FA92F8,10,0,1,40,0,845,37,1,476.5,10,1,experiment,NA,NA,0,0.9,0.1,0,1,113,3,NA
fcp-trial,148,640257,0.0-123.0-0.0,voc_e2,12258,"[{""event"":""fullscreenenter"",""trial"":1,""time"":1312}]",NA,NA,NA,NA,NA,1,#D8271C,#741CD8,0,10,1,38,1,884.8000000119209,37,1,857.7999999523163,0,1,experiment,NA,NA,1,0.7,0.3,2,3,114,3,NA
fcp-trial,149,643297,0.0-124.0-0.0,voc_e2,12258,"[{""event"":""fullscreenenter"",""trial"":1,""time"":1312}]",NA,NA,NA,NA,NA,4,#3386FF,#D89F1C,0,10,0,40,0,934.3999999761581,37,1,587.5,0,0,experiment,NA,NA,2,0.5,0.5,5,4,115,3,NA
fcp-trial,150,646404,0.0-125.0-0.0,voc_e2,12258,"[{""event"":""fullscreenenter"",""trial"":1,""time"":1312}]",NA,NA,NA,NA,NA,4,#D8271C,#741CD8,10,0,1,40,0,1109.800000011921,39,0,486.699999988079,0,0,experiment,NA,NA,1,0.7,0.3,2,3,116,3,NA
fcp-trial,151,649515,0.0-126.0-0.0,voc_e2,12258,"[{""event"":""fullscreenenter"",""trial"":1,""time"":1312}]",NA,NA,NA,NA,NA,4,#FA92F8,#1CD855,0,10,0,38,1,861.8999999761581,39,0,733.8999999761581,10,1,experiment,NA,NA,0,0.1,0.9,1,0,117,3,NA
fcp-trial,152,653090,0.0-127.0-0.0,voc_e2,12258,"[{""event"":""fullscreenenter"",""trial"":1,""time"":1312}]",NA,NA,NA,NA,NA,2,#D8271C,#741CD8,0,0,1,38,1,1681.8999999761581,37,1,381.199999988079,0,1,experiment,NA,NA,1,0.7,0.3,2,3,118,3,NA
fcp-trial,153,655903,0.0-128.0-0.0,voc_e2,12258,"[{""event"":""fullscreenenter"",""trial"":1,""time"":1312}]",NA,NA,NA,NA,NA,0,#FA92F8,#1CD855,0,10,0,38,1,776.8000000119209,39,0,522,10,1,experiment,NA,NA,0,0.1,0.9,1,0,119,3,NA
fcp-trial,154,658780,0.0-129.0-0.0,voc_e2,12258,"[{""event"":""fullscreenenter"",""trial"":1,""time"":1312}]",NA,NA,NA,NA,NA,1,#D89F1C,#3386FF,0,0,1,38,1,829.5,39,0,537.5,0,0,experiment,NA,NA,2,0.5,0.5,4,5,120,3,NA
fcp-trial,155,661724,0.0-130.0-0.0,voc_e2,12258,"[{""event"":""fullscreenenter"",""trial"":1,""time"":1312}]",NA,NA,NA,NA,NA,0,#741CD8,#D8271C,0,0,0,38,1,947.1999999880791,39,0,486.10000002384186,0,1,experiment,NA,NA,1,0.3,0.7,3,2,121,3,NA
fcp-trial,156,664642,0.0-131.0-0.0,voc_e2,12258,"[{""event"":""fullscreenenter"",""trial"":1,""time"":1312}]",NA,NA,NA,NA,NA,2,#1CD855,#FA92F8,10,10,1,38,1,1052.300000011921,37,1,356,10,1,experiment,NA,NA,0,0.9,0.1,0,1,122,3,NA
fcp-trial,157,667547,0.0-132.0-0.0,voc_e2,12258,"[{""event"":""fullscreenenter"",""trial"":1,""time"":1312}]",NA,NA,NA,NA,NA,2,#3386FF,#D89F1C,0,10,0,38,1,780.4000000357628,37,1,608.8999999761581,0,0,experiment,NA,NA,2,0.5,0.5,5,4,123,3,NA
fcp-trial,158,670814,0.0-133.0-0.0,voc_e2,12258,"[{""event"":""fullscreenenter"",""trial"":1,""time"":1312}]",NA,NA,NA,NA,NA,3,#FA92F8,#1CD855,0,10,0,38,1,870.1000000238419,39,0,888.2999999523163,10,1,experiment,NA,NA,0,0.1,0.9,1,0,124,3,NA
fcp-trial,159,673443,0.0-134.0-0.0,voc_e2,12258,"[{""event"":""fullscreenenter"",""trial"":1,""time"":1312}]",NA,NA,NA,NA,NA,6,#741CD8,#D8271C,0,10,0,38,1,738.8000000119209,37,1,379,0,0,experiment,NA,NA,1,0.3,0.7,3,2,125,3,NA
fcp-trial,160,676219,0.0-135.0-0.0,voc_e2,12258,"[{""event"":""fullscreenenter"",""trial"":1,""time"":1312}]",NA,NA,NA,NA,NA,3,#741CD8,#D8271C,0,10,0,38,1,744,39,0,524.1000000238419,10,1,experiment,NA,NA,1,0.3,0.7,3,2,126,3,NA
fcp-trial,161,679144,0.0-136.0-0.0,voc_e2,12258,"[{""event"":""fullscreenenter"",""trial"":1,""time"":1312}]",NA,NA,NA,NA,NA,0,#1CD855,#FA92F8,0,0,1,38,1,607.9000000357628,37,1,804.3000000119209,0,1,experiment,NA,NA,0,0.9,0.1,0,1,127,3,NA
fcp-trial,162,681665,0.0-137.0-0.0,voc_e2,12258,"[{""event"":""fullscreenenter"",""trial"":1,""time"":1312}]",NA,NA,NA,NA,NA,2,#741CD8,#D8271C,0,0,0,38,1,523.5,39,0,486.89999997615814,0,1,experiment,NA,NA,1,0.3,0.7,3,2,128,3,NA
fcp-trial,163,684692,0.0-138.0-0.0,voc_e2,12258,"[{""event"":""fullscreenenter"",""trial"":1,""time"":1312}]",NA,NA,NA,NA,NA,5,#D8271C,#741CD8,10,0,1,40,0,1033.0999999642372,37,1,484.60000002384186,10,1,experiment,NA,NA,1,0.7,0.3,2,3,129,3,NA
fcp-trial,164,687771,0.0-139.0-0.0,voc_e2,12258,"[{""event"":""fullscreenenter"",""trial"":1,""time"":1312}]",NA,NA,NA,NA,NA,2,#D89F1C,#3386FF,10,10,1,38,1,1065.800000011921,37,1,501.10000002384186,10,1,experiment,NA,NA,2,0.5,0.5,4,5,130,3,NA
fcp-trial,165,690402,0.0-140.0-0.0,voc_e2,12258,"[{""event"":""fullscreenenter"",""trial"":1,""time"":1312}]",NA,NA,NA,NA,NA,5,#FA92F8,#1CD855,0,10,0,40,0,655.8000000119209,37,1,467.10000002384186,0,0,experiment,NA,NA,0,0.1,0.9,1,0,131,3,NA
fcp-trial,166,692963,0.0-141.0-0.0,voc_e2,12258,"[{""event"":""fullscreenenter"",""trial"":1,""time"":1312}]",NA,NA,NA,NA,NA,6,#D8271C,#741CD8,10,0,1,40,0,655.3000000119209,39,0,394.9000000357628,0,0,experiment,NA,NA,1,0.7,0.3,2,3,132,3,NA
fcp-trial,167,695967,0.0-142.0-0.0,voc_e2,12258,"[{""event"":""fullscreenenter"",""trial"":1,""time"":1312}]",NA,NA,NA,NA,NA,1,#3386FF,#D89F1C,0,10,0,38,1,869.6999999880791,37,1,612.6000000238419,0,0,experiment,NA,NA,2,0.5,0.5,5,4,133,3,NA
fcp-trial,168,699259,0.0-143.0-0.0,voc_e2,12258,"[{""event"":""fullscreenenter"",""trial"":1,""time"":1312}]",NA,NA,NA,NA,NA,3,#1CD855,#FA92F8,10,10,1,38,1,1380.5,37,1,399,10,1,experiment,NA,NA,0,0.9,0.1,0,1,134,3,NA
fcp-trial,169,702228,0.0-144.0-0.0,voc_e2,12258,"[{""event"":""fullscreenenter"",""trial"":1,""time"":1312}]",NA,NA,NA,NA,NA,1,#D8271C,#741CD8,10,0,1,38,1,1069.1000000238419,37,1,386.199999988079,10,1,experiment,NA,NA,1,0.7,0.3,2,3,135,3,NA
fcp-trial,170,704871,0.0-145.0-0.0,voc_e2,12258,"[{""event"":""fullscreenenter"",""trial"":1,""time"":1312}]",NA,NA,NA,NA,NA,0,#741CD8,#D8271C,0,0,0,38,1,619.8000000119209,37,1,516.5,0,0,experiment,NA,NA,1,0.3,0.7,3,2,136,4,NA
fcp-trial,171,707631,0.0-146.0-0.0,voc_e2,12258,"[{""event"":""fullscreenenter"",""trial"":1,""time"":1312}]",NA,NA,NA,NA,NA,5,#D89F1C,#3386FF,0,0,1,38,1,662.6999999880791,39,0,586.1999999880791,0,0,experiment,NA,NA,2,0.5,0.5,4,5,137,4,NA
fcp-trial,172,710699,0.0-147.0-0.0,voc_e2,12258,"[{""event"":""fullscreenenter"",""trial"":1,""time"":1312}]",NA,NA,NA,NA,NA,4,#741CD8,#D8271C,10,0,0,38,1,1196.6000000238419,39,0,356.5,0,1,experiment,NA,NA,1,0.3,0.7,3,2,138,4,NA
fcp-trial,173,713766,0.0-148.0-0.0,voc_e2,12258,"[{""event"":""fullscreenenter"",""trial"":1,""time"":1312}]",NA,NA,NA,NA,NA,1,#FA92F8,#1CD855,0,10,0,38,1,948.5,39,0,590.4000000357628,10,1,experiment,NA,NA,0,0.1,0.9,1,0,139,4,NA
fcp-trial,174,717581,0.0-149.0-0.0,voc_e2,12258,"[{""event"":""fullscreenenter"",""trial"":1,""time"":1312}]",NA,NA,NA,NA,NA,4,#D89F1C,#3386FF,10,10,1,38,1,1922.0999999642372,39,0,385.4000000357628,10,0,experiment,NA,NA,2,0.5,0.5,4,5,140,4,NA
fcp-trial,175,720446,0.0-150.0-0.0,voc_e2,12258,"[{""event"":""fullscreenenter"",""trial"":1,""time"":1312}]",NA,NA,NA,NA,NA,6,#FA92F8,#1CD855,0,10,0,40,0,865.1000000238419,37,1,483.5999999642372,0,0,experiment,NA,NA,0,0.1,0.9,1,0,141,4,NA
fcp-trial,176,723491,0.0-151.0-0.0,voc_e2,12258,"[{""event"":""fullscreenenter"",""trial"":1,""time"":1312}]",NA,NA,NA,NA,NA,2,#FA92F8,#1CD855,0,10,0,38,1,1127,39,0,406.300000011921,10,1,experiment,NA,NA,0,0.1,0.9,1,0,142,4,NA
fcp-trial,177,726421,0.0-152.0-0.0,voc_e2,12258,"[{""event"":""fullscreenenter"",""trial"":1,""time"":1312}]",NA,NA,NA,NA,NA,3,#D8271C,#741CD8,10,0,1,38,1,1006.1999999880791,37,1,418.800000011921,10,1,experiment,NA,NA,1,0.7,0.3,2,3,143,4,NA
fcp-trial,178,729448,0.0-153.0-0.0,voc_e2,12258,"[{""event"":""fullscreenenter"",""trial"":1,""time"":1312}]",NA,NA,NA,NA,NA,0,#D89F1C,#3386FF,0,10,1,38,1,1047.699999988079,37,1,467.4000000357628,0,1,experiment,NA,NA,2,0.5,0.5,4,5,144,4,NA
fcp-trial,179,732321,0.0-154.0-0.0,voc_e2,12258,"[{""event"":""fullscreenenter"",""trial"":1,""time"":1312}]",NA,NA,NA,NA,NA,3,#D89F1C,#3386FF,0,0,1,38,1,941.1999999880791,39,0,428.5,0,0,experiment,NA,NA,2,0.5,0.5,4,5,145,4,NA
fcp-trial,180,735075,0.0-155.0-0.0,voc_e2,12258,"[{""event"":""fullscreenenter"",""trial"":1,""time"":1312}]",NA,NA,NA,NA,NA,6,#D89F1C,#3386FF,0,10,1,40,0,821.7000000476837,39,0,414.5,10,0,experiment,NA,NA,2,0.5,0.5,4,5,146,4,NA
fcp-trial,181,738551,0.0-156.0-0.0,voc_e2,12258,"[{""event"":""fullscreenenter"",""trial"":1,""time"":1312}]",NA,NA,NA,NA,NA,4,#1CD855,#FA92F8,10,0,1,38,1,1642.4000000357628,37,1,325.2000000476837,10,1,experiment,NA,NA,0,0.9,0.1,0,1,147,4,NA
fcp-trial,182,741619,0.0-157.0-0.0,voc_e2,12258,"[{""event"":""fullscreenenter"",""trial"":1,""time"":1312}]",NA,NA,NA,NA,NA,6,#741CD8,#D8271C,0,10,0,40,0,1086.800000011921,37,1,464.5,0,0,experiment,NA,NA,1,0.3,0.7,3,2,148,4,NA
fcp-trial,183,744382,0.0-158.0-0.0,voc_e2,12258,"[{""event"":""fullscreenenter"",""trial"":1,""time"":1312}]",NA,NA,NA,NA,NA,5,#741CD8,#D8271C,0,10,0,40,0,729.0999999642372,37,1,526.1999999880791,0,0,experiment,NA,NA,1,0.3,0.7,3,2,149,4,NA
fcp-trial,184,747242,0.0-159.0-0.0,voc_e2,12258,"[{""event"":""fullscreenenter"",""trial"":1,""time"":1312}]",NA,NA,NA,NA,NA,3,#1CD855,#FA92F8,0,0,1,38,1,917.3000000119209,37,1,431.9000000357628,0,1,experiment,NA,NA,0,0.9,0.1,0,1,150,4,NA
fcp-trial,185,750294,0.0-160.0-0.0,voc_e2,12258,"[{""event"":""fullscreenenter"",""trial"":1,""time"":1312}]",NA,NA,NA,NA,NA,3,#D89F1C,#3386FF,10,10,1,38,1,1216,39,0,324.80000001192093,10,0,experiment,NA,NA,2,0.5,0.5,4,5,151,4,NA
fcp-trial,186,753138,0.0-161.0-0.0,voc_e2,12258,"[{""event"":""fullscreenenter"",""trial"":1,""time"":1312}]",NA,NA,NA,NA,NA,5,#1CD855,#FA92F8,10,0,1,40,0,814.3000000119209,39,0,511.5,0,0,experiment,NA,NA,0,0.9,0.1,0,1,152,4,NA
fcp-trial,187,756115,0.0-162.0-0.0,voc_e2,12258,"[{""event"":""fullscreenenter"",""trial"":1,""time"":1312}]",NA,NA,NA,NA,NA,0,#D8271C,#741CD8,10,10,1,38,1,916,37,1,541.8999999761581,10,1,experiment,NA,NA,1,0.7,0.3,2,3,153,4,NA
fcp-trial,188,759154,0.0-163.0-0.0,voc_e2,12258,"[{""event"":""fullscreenenter"",""trial"":1,""time"":1312}]",NA,NA,NA,NA,NA,1,#3386FF,#D89F1C,10,10,0,38,1,1103.5,37,1,426.199999988079,10,0,experiment,NA,NA,2,0.5,0.5,5,4,154,4,NA
fcp-trial,189,761935,0.0-164.0-0.0,voc_e2,12258,"[{""event"":""fullscreenenter"",""trial"":1,""time"":1312}]",NA,NA,NA,NA,NA,1,#1CD855,#FA92F8,10,0,1,38,1,783.1999999880791,37,1,487.2999999523163,10,1,experiment,NA,NA,0,0.9,0.1,0,1,155,4,NA
fcp-trial,190,764534,0.0-165.0-0.0,voc_e2,12258,"[{""event"":""fullscreenenter"",""trial"":1,""time"":1312}]",NA,NA,NA,NA,NA,0,#1CD855,#FA92F8,10,10,1,38,1,602.6000000238419,37,1,484.10000002384186,10,1,experiment,NA,NA,0,0.9,0.1,0,1,156,4,NA
fcp-trial,191,767248,0.0-166.0-0.0,voc_e2,12258,"[{""event"":""fullscreenenter"",""trial"":1,""time"":1312}]",NA,NA,NA,NA,NA,2,#D8271C,#741CD8,10,0,1,38,1,723.2999999523163,37,1,476.699999988079,10,1,experiment,NA,NA,1,0.7,0.3,2,3,157,4,NA
fcp-trial,192,770074,0.0-167.0-0.0,voc_e2,12258,"[{""event"":""fullscreenenter"",""trial"":1,""time"":1312}]",NA,NA,NA,NA,NA,2,#D89F1C,#3386FF,0,0,1,38,1,867.6999999880791,39,0,446.89999997615814,0,0,experiment,NA,NA,2,0.5,0.5,4,5,158,4,NA
fcp-trial,193,773220,0.0-168.0-0.0,voc_e2,12258,"[{""event"":""fullscreenenter"",""trial"":1,""time"":1312}]",NA,NA,NA,NA,NA,3,#741CD8,#D8271C,10,0,0,38,1,1168.699999988079,39,0,466,0,1,experiment,NA,NA,1,0.3,0.7,3,2,159,4,NA
fcp-trial,194,776186,0.0-169.0-0.0,voc_e2,12258,"[{""event"":""fullscreenenter"",""trial"":1,""time"":1312}]",NA,NA,NA,NA,NA,6,#1CD855,#FA92F8,0,0,1,40,0,987.0999999642372,39,0,468.89999997615814,0,0,experiment,NA,NA,0,0.9,0.1,0,1,160,4,NA
fcp-trial,195,779157,0.0-170.0-0.0,voc_e2,12258,"[{""event"":""fullscreenenter"",""trial"":1,""time"":1312}]",NA,NA,NA,NA,NA,0,#D89F1C,#3386FF,0,10,1,38,1,1006.5,39,0,445.0999999642372,10,0,experiment,NA,NA,2,0.5,0.5,4,5,161,4,NA
fcp-trial,196,782482,0.0-171.0-0.0,voc_e2,12258,"[{""event"":""fullscreenenter"",""trial"":1,""time"":1312}]",NA,NA,NA,NA,NA,2,#1CD855,#FA92F8,10,0,1,38,1,1370.3999999761581,37,1,442.89999997615814,10,1,experiment,NA,NA,0,0.9,0.1,0,1,162,4,NA
fcp-trial,197,785284,0.0-172.0-0.0,voc_e2,12258,"[{""event"":""fullscreenenter"",""trial"":1,""time"":1312}]",NA,NA,NA,NA,NA,6,#D89F1C,#3386FF,10,10,1,40,0,775.5999999642372,37,1,516.3000000119209,10,1,experiment,NA,NA,2,0.5,0.5,4,5,163,4,NA
fcp-trial,198,788601,0.0-173.0-0.0,voc_e2,12258,"[{""event"":""fullscreenenter"",""trial"":1,""time"":1312}]",NA,NA,NA,NA,NA,1,#D8271C,#741CD8,0,0,1,38,1,1243.199999988079,37,1,563.6999999880791,0,1,experiment,NA,NA,1,0.7,0.3,2,3,164,4,NA
fcp-trial,199,791618,0.0-174.0-0.0,voc_e2,12258,"[{""event"":""fullscreenenter"",""trial"":1,""time"":1312}]",NA,NA,NA,NA,NA,4,#1CD855,#FA92F8,10,0,1,40,0,956.8000000119209,39,0,542.3000000119209,0,0,experiment,NA,NA,0,0.9,0.1,0,1,165,4,NA
fcp-trial,200,794557,0.0-175.0-0.0,voc_e2,12258,"[{""event"":""fullscreenenter"",""trial"":1,""time"":1312}]",NA,NA,NA,NA,NA,4,#741CD8,#D8271C,0,0,0,38,1,968.9000000357628,39,0,459.199999988079,0,1,experiment,NA,NA,1,0.3,0.7,3,2,166,4,NA
fcp-trial,201,797731,0.0-176.0-0.0,voc_e2,12258,"[{""event"":""fullscreenenter"",""trial"":1,""time"":1312}]",NA,NA,NA,NA,NA,4,#D89F1C,#3386FF,10,10,1,38,1,1210.699999988079,39,0,454.5,10,0,experiment,NA,NA,2,0.5,0.5,4,5,167,4,NA
fcp-trial,202,800662,0.0-177.0-0.0,voc_e2,12258,"[{""event"":""fullscreenenter"",""trial"":1,""time"":1312}]",NA,NA,NA,NA,NA,5,#3386FF,#D89F1C,10,0,0,40,0,946.6000000238419,37,1,474,10,0,experiment,NA,NA,2,0.5,0.5,5,4,168,4,NA
fcp-trial,203,804108,0.0-178.0-0.0,voc_e2,12258,"[{""event"":""fullscreenenter"",""trial"":1,""time"":1312}]",NA,NA,NA,NA,NA,3,#D89F1C,#3386FF,0,10,1,38,1,1275.5999999642372,39,0,655.6999999880791,10,0,experiment,NA,NA,2,0.5,0.5,4,5,169,4,NA
fcp-trial,204,807104,0.0-179.0-0.0,voc_e2,12258,"[{""event"":""fullscreenenter"",""trial"":1,""time"":1312}]",NA,NA,NA,NA,NA,3,#FA92F8,#1CD855,0,10,0,38,1,798.5,39,0,683.0999999642372,10,1,experiment,NA,NA,0,0.1,0.9,1,0,170,4,NA
fcp-trial,205,810284,0.0-180.0-0.0,voc_e2,12258,"[{""event"":""fullscreenenter"",""trial"":1,""time"":1312}]",NA,NA,NA,NA,NA,1,#D89F1C,#3386FF,10,0,1,38,1,623.9000000357628,39,0,1046.5,0,0,experiment,NA,NA,2,0.5,0.5,4,5,171,4,NA
fcp-trial,206,813014,0.0-181.0-0.0,voc_e2,12258,"[{""event"":""fullscreenenter"",""trial"":1,""time"":1312}]",NA,NA,NA,NA,NA,2,#D8271C,#741CD8,10,0,1,38,1,803.3000000119209,37,1,406.199999988079,10,1,experiment,NA,NA,1,0.7,0.3,2,3,172,4,NA
fcp-trial,207,816214,0.0-182.0-0.0,voc_e2,12258,"[{""event"":""fullscreenenter"",""trial"":1,""time"":1312}]",NA,NA,NA,NA,NA,4,#D89F1C,#3386FF,10,10,1,38,1,1303,39,0,388.60000002384186,10,0,experiment,NA,NA,2,0.5,0.5,4,5,173,4,NA
fcp-trial,208,818996,0.0-183.0-0.0,voc_e2,12258,"[{""event"":""fullscreenenter"",""trial"":1,""time"":1312}]",NA,NA,NA,NA,NA,1,#FA92F8,#1CD855,0,10,0,38,1,790.1999999880791,39,0,479.39999997615814,10,1,experiment,NA,NA,0,0.1,0.9,1,0,174,4,NA
fcp-trial,209,822208,0.0-184.0-0.0,voc_e2,12258,"[{""event"":""fullscreenenter"",""trial"":1,""time"":1312}]",NA,NA,NA,NA,NA,5,#741CD8,#D8271C,0,10,0,40,0,1200,39,0,498.39999997615814,10,1,experiment,NA,NA,1,0.3,0.7,3,2,175,4,NA
fcp-trial,210,825254,0.0-185.0-0.0,voc_e2,12258,"[{""event"":""fullscreenenter"",""trial"":1,""time"":1312}]",NA,NA,NA,NA,NA,1,#741CD8,#D8271C,10,10,0,38,1,938.6999999880791,39,0,586.1999999880791,10,1,experiment,NA,NA,1,0.3,0.7,3,2,176,4,NA
fcp-trial,211,828330,0.0-186.0-0.0,voc_e2,12258,"[{""event"":""fullscreenenter"",""trial"":1,""time"":1312}]",NA,NA,NA,NA,NA,0,#3386FF,#D89F1C,0,10,0,38,1,1041.5999999642372,37,1,527.3999999761581,0,0,experiment,NA,NA,2,0.5,0.5,5,4,177,4,NA
fcp-trial,212,831491,0.0-187.0-0.0,voc_e2,12258,"[{""event"":""fullscreenenter"",""trial"":1,""time"":1312}]",NA,NA,NA,NA,NA,4,#1CD855,#FA92F8,0,0,1,38,1,1117.199999988079,37,1,532.2000000476837,0,1,experiment,NA,NA,0,0.9,0.1,0,1,178,4,NA
fcp-trial,213,834160,0.0-188.0-0.0,voc_e2,12258,"[{""event"":""fullscreenenter"",""trial"":1,""time"":1312}]",NA,NA,NA,NA,NA,5,#D89F1C,#3386FF,10,10,1,40,0,655.6999999880791,39,0,496.2000000476837,10,0,experiment,NA,NA,2,0.5,0.5,4,5,179,4,NA
fcp-trial,214,837619,0.0-189.0-0.0,voc_e2,12258,"[{""event"":""fullscreenenter"",""trial"":1,""time"":1312}]",NA,NA,NA,NA,NA,3,#741CD8,#D8271C,0,0,0,38,1,1336,39,0,619.3000000119209,0,1,experiment,NA,NA,1,0.3,0.7,3,2,180,4,NA
fcp-trial,215,840396,0.0-190.0-0.0,voc_e2,12258,"[{""event"":""fullscreenenter"",""trial"":1,""time"":1312}]",NA,NA,NA,NA,NA,6,#FA92F8,#1CD855,0,0,0,40,0,767.1999999880791,39,0,486.10000002384186,0,1,experiment,NA,NA,0,0.1,0.9,1,0,181,5,NA
fcp-trial,216,843264,0.0-191.0-0.0,voc_e2,12258,"[{""event"":""fullscreenenter"",""trial"":1,""time"":1312}]",NA,NA,NA,NA,NA,0,#1CD855,#FA92F8,10,0,1,38,1,776.5,37,1,579.1000000238419,10,1,experiment,NA,NA,0,0.9,0.1,0,1,182,5,NA
fcp-trial,217,846324,0.0-192.0-0.0,voc_e2,12258,"[{""event"":""fullscreenenter"",""trial"":1,""time"":1312}]",NA,NA,NA,NA,NA,4,#741CD8,#D8271C,0,10,0,38,1,1068.800000011921,39,0,478.699999988079,10,1,experiment,NA,NA,1,0.3,0.7,3,2,183,5,NA
fcp-trial,218,849196,0.0-193.0-0.0,voc_e2,12258,"[{""event"":""fullscreenenter"",""trial"":1,""time"":1312}]",NA,NA,NA,NA,NA,6,#D89F1C,#3386FF,10,0,1,40,0,811.8999999761581,37,1,546.6999999880791,10,1,experiment,NA,NA,2,0.5,0.5,4,5,184,5,NA
fcp-trial,219,851971,0.0-194.0-0.0,voc_e2,12258,"[{""event"":""fullscreenenter"",""trial"":1,""time"":1312}]",NA,NA,NA,NA,NA,2,#FA92F8,#1CD855,0,10,0,38,1,811.0999999642372,39,0,444.9000000357628,10,1,experiment,NA,NA,0,0.1,0.9,1,0,185,5,NA
fcp-trial,220,854703,0.0-195.0-0.0,voc_e2,12258,"[{""event"":""fullscreenenter"",""trial"":1,""time"":1312}]",NA,NA,NA,NA,NA,6,#D8271C,#741CD8,10,0,1,40,0,762.6999999880791,39,0,453,0,0,experiment,NA,NA,1,0.7,0.3,2,3,186,5,NA
fcp-trial,221,858300,0.0-196.0-0.0,voc_e2,12258,"[{""event"":""fullscreenenter"",""trial"":1,""time"":1312}]",NA,NA,NA,NA,NA,2,#3386FF,#D89F1C,10,0,0,38,1,1534.6000000238419,37,1,555.3999999761581,10,0,experiment,NA,NA,2,0.5,0.5,5,4,187,5,NA
fcp-trial,222,861301,0.0-197.0-0.0,voc_e2,12258,"[{""event"":""fullscreenenter"",""trial"":1,""time"":1312}]",NA,NA,NA,NA,NA,0,#741CD8,#D8271C,10,10,0,38,1,1107.0999999642372,39,0,382,10,1,experiment,NA,NA,1,0.3,0.7,3,2,188,5,NA
fcp-trial,223,864312,0.0-198.0-0.0,voc_e2,12258,"[{""event"":""fullscreenenter"",""trial"":1,""time"":1312}]",NA,NA,NA,NA,NA,5,#1CD855,#FA92F8,10,0,1,40,0,1006,37,1,483,10,1,experiment,NA,NA,0,0.9,0.1,0,1,189,5,NA
fcp-trial,224,868407,0.0-199.0-0.0,voc_e2,12258,"[{""event"":""fullscreenenter"",""trial"":1,""time"":1312}]",NA,NA,NA,NA,NA,0,#741CD8,#D8271C,0,10,0,38,1,1670.9000000357628,39,0,903.1999999880792,10,1,experiment,NA,NA,1,0.3,0.7,3,2,190,5,NA
fcp-trial,225,872341,0.0-200.0-0.0,voc_e2,12258,"[{""event"":""fullscreenenter"",""trial"":1,""time"":1312}]",NA,NA,NA,NA,NA,3,#D89F1C,#3386FF,0,10,1,38,1,2019.800000011921,39,0,406.10000002384186,10,0,experiment,NA,NA,2,0.5,0.5,4,5,191,5,NA
fcp-trial,226,875096,0.0-201.0-0.0,voc_e2,12258,"[{""event"":""fullscreenenter"",""trial"":1,""time"":1312}]",NA,NA,NA,NA,NA,1,#3386FF,#D89F1C,10,0,0,38,1,736,37,1,502.10000002384186,10,0,experiment,NA,NA,2,0.5,0.5,5,4,192,5,NA
fcp-trial,227,877922,0.0-202.0-0.0,voc_e2,12258,"[{""event"":""fullscreenenter"",""trial"":1,""time"":1312}]",NA,NA,NA,NA,NA,6,#FA92F8,#1CD855,0,10,0,40,0,841.3999999761581,39,0,478.89999997615814,10,1,experiment,NA,NA,0,0.1,0.9,1,0,193,5,NA
fcp-trial,228,880699,0.0-203.0-0.0,voc_e2,12258,"[{""event"":""fullscreenenter"",""trial"":1,""time"":1312}]",NA,NA,NA,NA,NA,6,#D8271C,#741CD8,10,10,1,40,0,713.1000000238419,37,1,558.1000000238419,10,1,experiment,NA,NA,1,0.7,0.3,2,3,194,5,NA
fcp-trial,229,883573,0.0-204.0-0.0,voc_e2,12258,"[{""event"":""fullscreenenter"",""trial"":1,""time"":1312}]",NA,NA,NA,NA,NA,1,#FA92F8,#1CD855,0,10,0,38,1,696.0999999642372,39,0,661.3999999761581,10,1,experiment,NA,NA,0,0.1,0.9,1,0,195,5,NA
fcp-trial,230,886438,0.0-205.0-0.0,voc_e2,12258,"[{""event"":""fullscreenenter"",""trial"":1,""time"":1312}]",NA,NA,NA,NA,NA,5,#D89F1C,#3386FF,0,0,1,40,0,912.9000000357628,39,0,447.7999999523163,0,0,experiment,NA,NA,2,0.5,0.5,4,5,196,5,NA
fcp-trial,231,889061,0.0-206.0-0.0,voc_e2,12258,"[{""event"":""fullscreenenter"",""trial"":1,""time"":1312}]",NA,NA,NA,NA,NA,2,#FA92F8,#1CD855,0,0,0,38,1,656.8000000119209,39,0,456.10000002384186,0,1,experiment,NA,NA,0,0.1,0.9,1,0,197,5,NA
fcp-trial,232,891791,0.0-207.0-0.0,voc_e2,12258,"[{""event"":""fullscreenenter"",""trial"":1,""time"":1312}]",NA,NA,NA,NA,NA,0,#1CD855,#FA92F8,10,0,1,38,1,770.6999999880791,37,1,442.10000002384186,10,1,experiment,NA,NA,0,0.9,0.1,0,1,198,5,NA
fcp-trial,233,894978,0.0-208.0-0.0,voc_e2,12258,"[{""event"":""fullscreenenter"",""trial"":1,""time"":1312}]",NA,NA,NA,NA,NA,2,#D8271C,#741CD8,10,0,1,38,1,864,37,1,815,10,1,experiment,NA,NA,1,0.7,0.3,2,3,199,5,NA
fcp-trial,234,897801,0.0-209.0-0.0,voc_e2,12258,"[{""event"":""fullscreenenter"",""trial"":1,""time"":1312}]",NA,NA,NA,NA,NA,4,#3386FF,#D89F1C,10,0,0,38,1,816.0999999642372,37,1,498.60000002384186,10,0,experiment,NA,NA,2,0.5,0.5,5,4,200,5,NA
fcp-trial,235,900683,0.0-210.0-0.0,voc_e2,12258,"[{""event"":""fullscreenenter"",""trial"":1,""time"":1312}]",NA,NA,NA,NA,NA,3,#FA92F8,#1CD855,10,10,0,38,1,903.2999999523163,39,0,468,10,1,experiment,NA,NA,0,0.1,0.9,1,0,201,5,NA
fcp-trial,236,903852,0.0-211.0-0.0,voc_e2,12258,"[{""event"":""fullscreenenter"",""trial"":1,""time"":1312}]",NA,NA,NA,NA,NA,4,#1CD855,#FA92F8,10,0,1,38,1,1152.300000011921,37,1,507.10000002384186,10,1,experiment,NA,NA,0,0.9,0.1,0,1,202,5,NA
fcp-trial,237,906791,0.0-212.0-0.0,voc_e2,12258,"[{""event"":""fullscreenenter"",""trial"":1,""time"":1312}]",NA,NA,NA,NA,NA,4,#D8271C,#741CD8,10,0,1,38,1,943,37,1,487.9000000357628,10,1,experiment,NA,NA,1,0.7,0.3,2,3,203,5,NA
fcp-trial,238,909500,0.0-213.0-0.0,voc_e2,12258,"[{""event"":""fullscreenenter"",""trial"":1,""time"":1312}]",NA,NA,NA,NA,NA,2,#3386FF,#D89F1C,10,0,0,38,1,673.9000000357628,37,1,527.7000000476837,10,0,experiment,NA,NA,2,0.5,0.5,5,4,204,5,NA
fcp-trial,239,912333,0.0-214.0-0.0,voc_e2,12258,"[{""event"":""fullscreenenter"",""trial"":1,""time"":1312}]",NA,NA,NA,NA,NA,3,#741CD8,#D8271C,0,0,0,38,1,884.6999999880791,39,0,424.89999997615814,0,1,experiment,NA,NA,1,0.3,0.7,3,2,205,5,NA
fcp-trial,240,915363,0.0-215.0-0.0,voc_e2,12258,"[{""event"":""fullscreenenter"",""trial"":1,""time"":1312}]",NA,NA,NA,NA,NA,5,#D8271C,#741CD8,10,0,1,40,0,1083,37,1,433.60000002384186,10,1,experiment,NA,NA,1,0.7,0.3,2,3,206,5,NA
fcp-trial,241,919515,0.0-216.0-0.0,voc_e2,12258,"[{""event"":""fullscreenenter"",""trial"":1,""time"":1312}]",NA,NA,NA,NA,NA,5,#1CD855,#FA92F8,0,0,1,40,0,2062.800000011921,39,0,577.1000000238419,0,0,experiment,NA,NA,0,0.9,0.1,0,1,207,5,NA
fcp-trial,242,922820,0.0-217.0-0.0,voc_e2,12258,"[{""event"":""fullscreenenter"",""trial"":1,""time"":1312}]",NA,NA,NA,NA,NA,0,#3386FF,#D89F1C,10,0,0,38,1,1325.800000011921,37,1,466.699999988079,10,0,experiment,NA,NA,2,0.5,0.5,5,4,208,5,NA
fcp-trial,243,925774,0.0-218.0-0.0,voc_e2,12258,"[{""event"":""fullscreenenter"",""trial"":1,""time"":1312}]",NA,NA,NA,NA,NA,1,#741CD8,#D8271C,0,10,0,38,1,965.1999999880791,39,0,474.5,10,1,experiment,NA,NA,1,0.3,0.7,3,2,209,5,NA
fcp-trial,244,929029,0.0-219.0-0.0,voc_e2,12258,"[{""event"":""fullscreenenter"",""trial"":1,""time"":1312}]",NA,NA,NA,NA,NA,6,#3386FF,#D89F1C,10,0,0,40,0,1181.5,39,0,564.1000000238419,0,1,experiment,NA,NA,2,0.5,0.5,5,4,210,5,NA
audio-instructions,245,934240,0.0-220.0,voc_e2,12258,"[{""event"":""fullscreenenter"",""trial"":1,""time"":1312}]",NA,437.0999999642372,static/audio/pause.wav,NA,0,NA,NA,NA,NA,NA,NA,NA,NA,NA,NA,NA,NA,NA,NA,NA,NA,NA,NA,NA,NA,NA,NA,NA,NA,NA
fcp-trial,246,938283,0.0-221.0-0.0,voc_e2,12258,"[{""event"":""fullscreenenter"",""trial"":1,""time"":1312}]",NA,NA,NA,NA,NA,4,#D8271C,#741CD8,10,0,1,38,1,1942.699999988079,37,1,576.1999999880791,10,1,experiment,NA,NA,1,0.7,0.3,2,3,211,5,NA
fcp-trial,247,941125,0.0-222.0-0.0,voc_e2,12258,"[{""event"":""fullscreenenter"",""trial"":1,""time"":1312}]",NA,NA,NA,NA,NA,5,#1CD855,#FA92F8,0,0,1,40,0,824.1999999880791,37,1,505.0999999642372,0,1,experiment,NA,NA,0,0.9,0.1,0,1,212,5,NA
fcp-trial,248,944135,0.0-223.0-0.0,voc_e2,12258,"[{""event"":""fullscreenenter"",""trial"":1,""time"":1312}]",NA,NA,NA,NA,NA,0,#D89F1C,#3386FF,0,0,1,38,1,721.8000000119209,39,0,767.5,0,0,experiment,NA,NA,2,0.5,0.5,4,5,213,5,NA
fcp-trial,249,946905,0.0-224.0-0.0,voc_e2,12258,"[{""event"":""fullscreenenter"",""trial"":1,""time"":1312}]",NA,NA,NA,NA,NA,2,#D89F1C,#3386FF,0,10,1,38,1,631.3999999761581,39,0,616.8000000119209,10,0,experiment,NA,NA,2,0.5,0.5,4,5,214,5,NA
fcp-trial,250,949624,0.0-225.0-0.0,voc_e2,12258,"[{""event"":""fullscreenenter"",""trial"":1,""time"":1312}]",NA,NA,NA,NA,NA,1,#D8271C,#741CD8,10,0,1,38,1,510.10000002384186,37,1,688.5999999642372,10,1,experiment,NA,NA,1,0.7,0.3,2,3,215,5,NA
fcp-trial,251,954443,0.0-226.0-0.0,voc_e2,12258,"[{""event"":""fullscreenenter"",""trial"":1,""time"":1312}]",NA,NA,NA,NA,NA,4,#3386FF,#D89F1C,0,10,0,38,1,2531.199999988079,37,1,778.9000000357628,0,0,experiment,NA,NA,2,0.5,0.5,5,4,216,5,NA
fcp-trial,252,957045,0.0-227.0-0.0,voc_e2,12258,"[{""event"":""fullscreenenter"",""trial"":1,""time"":1312}]",NA,NA,NA,NA,NA,6,#1CD855,#FA92F8,10,0,1,40,0,612.4000000357628,37,1,468.7999999523163,10,1,experiment,NA,NA,0,0.9,0.1,0,1,217,5,NA
fcp-trial,253,959906,0.0-228.0-0.0,voc_e2,12258,"[{""event"":""fullscreenenter"",""trial"":1,""time"":1312}]",NA,NA,NA,NA,NA,5,#D8271C,#741CD8,10,10,1,40,0,850.5,39,0,488.7999999523163,10,0,experiment,NA,NA,1,0.7,0.3,2,3,218,5,NA
fcp-trial,254,962600,0.0-229.0-0.0,voc_e2,12258,"[{""event"":""fullscreenenter"",""trial"":1,""time"":1312}]",NA,NA,NA,NA,NA,1,#FA92F8,#1CD855,0,10,0,38,1,710.3999999761581,39,0,467,10,1,experiment,NA,NA,0,0.1,0.9,1,0,219,5,NA
fcp-trial,255,965454,0.0-230.0-0.0,voc_e2,12258,"[{""event"":""fullscreenenter"",""trial"":1,""time"":1312}]",NA,NA,NA,NA,NA,2,#FA92F8,#1CD855,10,10,0,38,1,797.3000000119209,39,0,549.6000000238419,10,1,experiment,NA,NA,0,0.1,0.9,1,0,220,5,NA
fcp-trial,256,968156,0.0-231.0-0.0,voc_e2,12258,"[{""event"":""fullscreenenter"",""trial"":1,""time"":1312}]",NA,NA,NA,NA,NA,6,#3386FF,#D89F1C,10,0,0,40,0,682,39,0,501.199999988079,0,1,experiment,NA,NA,2,0.5,0.5,5,4,221,5,NA
fcp-trial,257,971098,0.0-232.0-0.0,voc_e2,12258,"[{""event"":""fullscreenenter"",""trial"":1,""time"":1312}]",NA,NA,NA,NA,NA,4,#FA92F8,#1CD855,0,0,0,38,1,950.3999999761581,39,0,467.199999988079,0,1,experiment,NA,NA,0,0.1,0.9,1,0,222,5,NA
fcp-trial,258,974316,0.0-233.0-0.0,voc_e2,12258,"[{""event"":""fullscreenenter"",""trial"":1,""time"":1312}]",NA,NA,NA,NA,NA,6,#741CD8,#D8271C,10,10,0,40,0,1168.800000011921,37,1,539,10,0,experiment,NA,NA,1,0.3,0.7,3,2,223,5,NA
fcp-trial,259,978578,0.0-234.0-0.0,voc_e2,12258,"[{""event"":""fullscreenenter"",""trial"":1,""time"":1312}]",NA,NA,NA,NA,NA,1,#3386FF,#D89F1C,10,0,0,38,1,1400.2999999523163,37,1,1346.199999988079,10,0,experiment,NA,NA,2,0.5,0.5,5,4,224,5,NA
fcp-trial,260,981955,0.0-235.0-0.0,voc_e2,12258,"[{""event"":""fullscreenenter"",""trial"":1,""time"":1312}]",NA,NA,NA,NA,NA,3,#FA92F8,#1CD855,0,10,0,38,1,1019,39,0,843.4000000357628,10,1,experiment,NA,NA,0,0.1,0.9,1,0,225,5,NA
fcp-trial,261,984934,0.0-236.0-0.0,voc_e2,12258,"[{""event"":""fullscreenenter"",""trial"":1,""time"":1312}]",NA,NA,NA,NA,NA,5,#3386FF,#D89F1C,10,0,0,40,0,1032.6000000238419,37,1,433.199999988079,10,0,experiment,NA,NA,2,0.5,0.5,5,4,226,6,NA
fcp-trial,262,989304,0.0-237.0-0.0,voc_e2,12258,"[{""event"":""fullscreenenter"",""trial"":1,""time"":1312}]",NA,NA,NA,NA,NA,2,#D8271C,#741CD8,10,0,1,38,1,1832,37,1,1028.699999988079,10,1,experiment,NA,NA,1,0.7,0.3,2,3,227,6,NA
fcp-trial,263,992372,0.0-238.0-0.0,voc_e2,12258,"[{""event"":""fullscreenenter"",""trial"":1,""time"":1312}]",NA,NA,NA,NA,NA,3,#741CD8,#D8271C,0,0,0,38,1,832.7000000476837,39,0,712.5,0,1,experiment,NA,NA,1,0.3,0.7,3,2,228,6,NA
fcp-trial,264,995099,0.0-239.0-0.0,voc_e2,12258,"[{""event"":""fullscreenenter"",""trial"":1,""time"":1312}]",NA,NA,NA,NA,NA,0,#741CD8,#D8271C,0,0,0,38,1,644.5,37,1,558.3000000119209,0,0,experiment,NA,NA,1,0.3,0.7,3,2,229,6,NA
fcp-trial,265,997965,0.0-240.0-0.0,voc_e2,12258,"[{""event"":""fullscreenenter"",""trial"":1,""time"":1312}]",NA,NA,NA,NA,NA,0,#1CD855,#FA92F8,10,0,1,38,1,798.1999999880791,37,1,556.1999999880791,10,1,experiment,NA,NA,0,0.9,0.1,0,1,230,6,NA
fcp-trial,266,1000893,0.0-241.0-0.0,voc_e2,12258,"[{""event"":""fullscreenenter"",""trial"":1,""time"":1312}]",NA,NA,NA,NA,NA,3,#D89F1C,#3386FF,0,10,1,38,1,752,39,0,667.5,10,0,experiment,NA,NA,2,0.5,0.5,4,5,231,6,NA
fcp-trial,267,1003635,0.0-242.0-0.0,voc_e2,12258,"[{""event"":""fullscreenenter"",""trial"":1,""time"":1312}]",NA,NA,NA,NA,NA,1,#D8271C,#741CD8,10,10,1,38,1,853.3000000119209,37,1,375.10000002384186,10,1,experiment,NA,NA,1,0.7,0.3,2,3,232,6,NA
fcp-trial,268,1006481,0.0-243.0-0.0,voc_e2,12258,"[{""event"":""fullscreenenter"",""trial"":1,""time"":1312}]",NA,NA,NA,NA,NA,5,#3386FF,#D89F1C,0,10,0,40,0,881.1000000238419,39,0,443.199999988079,10,1,experiment,NA,NA,2,0.5,0.5,5,4,233,6,NA
fcp-trial,269,1009215,0.0-244.0-0.0,voc_e2,12258,"[{""event"":""fullscreenenter"",""trial"":1,""time"":1312}]",NA,NA,NA,NA,NA,6,#741CD8,#D8271C,10,10,0,40,0,763.5,39,0,456.5,10,1,experiment,NA,NA,1,0.3,0.7,3,2,234,6,NA
fcp-trial,270,1012033,0.0-245.0-0.0,voc_e2,12258,"[{""event"":""fullscreenenter"",""trial"":1,""time"":1312}]",NA,NA,NA,NA,NA,2,#FA92F8,#1CD855,0,10,0,38,1,869.7999999523163,39,0,435.199999988079,10,1,experiment,NA,NA,0,0.1,0.9,1,0,235,6,NA
fcp-trial,271,1014912,0.0-246.0-0.0,voc_e2,12258,"[{""event"":""fullscreenenter"",""trial"":1,""time"":1312}]",NA,NA,NA,NA,NA,6,#D89F1C,#3386FF,10,10,1,40,0,882.4000000357628,37,1,489.300000011921,10,1,experiment,NA,NA,2,0.5,0.5,4,5,236,6,NA
fcp-trial,272,1017948,0.0-247.0-0.0,voc_e2,12258,"[{""event"":""fullscreenenter"",""trial"":1,""time"":1312}]",NA,NA,NA,NA,NA,4,#1CD855,#FA92F8,10,0,1,38,1,1003.8000000119209,37,1,514.1999999880791,10,1,experiment,NA,NA,0,0.9,0.1,0,1,237,6,NA
fcp-trial,273,1020689,0.0-248.0-0.0,voc_e2,12258,"[{""event"":""fullscreenenter"",""trial"":1,""time"":1312}]",NA,NA,NA,NA,NA,3,#741CD8,#D8271C,0,0,0,38,1,768,39,0,455.5,0,1,experiment,NA,NA,1,0.3,0.7,3,2,238,6,NA
fcp-trial,274,1023725,0.0-249.0-0.0,voc_e2,12258,"[{""event"":""fullscreenenter"",""trial"":1,""time"":1312}]",NA,NA,NA,NA,NA,3,#FA92F8,#1CD855,0,10,0,38,1,1015.9000000357628,39,0,507.699999988079,10,1,experiment,NA,NA,0,0.1,0.9,1,0,239,6,NA
fcp-trial,275,1026945,0.0-250.0-0.0,voc_e2,12258,"[{""event"":""fullscreenenter"",""trial"":1,""time"":1312}]",NA,NA,NA,NA,NA,0,#1CD855,#FA92F8,10,0,1,38,1,1259.8999999761581,37,1,447.60000002384186,10,1,experiment,NA,NA,0,0.9,0.1,0,1,240,6,NA
fcp-trial,276,1029804,0.0-251.0-0.0,voc_e2,12258,"[{""event"":""fullscreenenter"",""trial"":1,""time"":1312}]",NA,NA,NA,NA,NA,2,#3386FF,#D89F1C,10,10,0,38,1,901.1999999880791,37,1,445,10,0,experiment,NA,NA,2,0.5,0.5,5,4,241,6,NA
fcp-trial,277,1032797,0.0-252.0-0.0,voc_e2,12258,"[{""event"":""fullscreenenter"",""trial"":1,""time"":1312}]",NA,NA,NA,NA,NA,1,#FA92F8,#1CD855,0,10,0,38,1,1083.1000000238419,39,0,395.199999988079,10,1,experiment,NA,NA,0,0.1,0.9,1,0,242,6,NA
fcp-trial,278,1035958,0.0-253.0-0.0,voc_e2,12258,"[{""event"":""fullscreenenter"",""trial"":1,""time"":1312}]",NA,NA,NA,NA,NA,2,#D8271C,#741CD8,10,10,1,38,1,1167.3999999761581,37,1,472.199999988079,10,1,experiment,NA,NA,1,0.7,0.3,2,3,243,6,NA
fcp-trial,279,1038672,0.0-254.0-0.0,voc_e2,12258,"[{""event"":""fullscreenenter"",""trial"":1,""time"":1312}]",NA,NA,NA,NA,NA,0,#741CD8,#D8271C,0,10,0,38,1,818.5999999642372,39,0,387.60000002384186,10,1,experiment,NA,NA,1,0.3,0.7,3,2,244,6,NA
fcp-trial,280,1041539,0.0-255.0-0.0,voc_e2,12258,"[{""event"":""fullscreenenter"",""trial"":1,""time"":1312}]",NA,NA,NA,NA,NA,5,#FA92F8,#1CD855,0,10,0,40,0,912.8000000119209,39,0,438.9000000357628,10,1,experiment,NA,NA,0,0.1,0.9,1,0,245,6,NA
fcp-trial,281,1044658,0.0-256.0-0.0,voc_e2,12258,"[{""event"":""fullscreenenter"",""trial"":1,""time"":1312}]",NA,NA,NA,NA,NA,1,#D89F1C,#3386FF,0,0,1,38,1,856.6999999880791,39,0,748.6999999880791,0,0,experiment,NA,NA,2,0.5,0.5,4,5,246,6,NA
fcp-trial,282,1047274,0.0-257.0-0.0,voc_e2,12258,"[{""event"":""fullscreenenter"",""trial"":1,""time"":1312}]",NA,NA,NA,NA,NA,3,#3386FF,#D89F1C,10,10,0,38,1,659.1000000238419,37,1,449,10,0,experiment,NA,NA,2,0.5,0.5,5,4,247,6,NA
fcp-trial,283,1049866,0.0-258.0-0.0,voc_e2,12258,"[{""event"":""fullscreenenter"",""trial"":1,""time"":1312}]",NA,NA,NA,NA,NA,6,#FA92F8,#1CD855,0,10,0,40,0,651.0999999642372,39,0,424.5999999642372,10,1,experiment,NA,NA,0,0.1,0.9,1,0,248,6,NA
fcp-trial,284,1052553,0.0-259.0-0.0,voc_e2,12258,"[{""event"":""fullscreenenter"",""trial"":1,""time"":1312}]",NA,NA,NA,NA,NA,5,#D8271C,#741CD8,10,0,1,40,0,721,37,1,459.10000002384186,10,1,experiment,NA,NA,1,0.7,0.3,2,3,249,6,NA
fcp-trial,285,1055515,0.0-260.0-0.0,voc_e2,12258,"[{""event"":""fullscreenenter"",""trial"":1,""time"":1312}]",NA,NA,NA,NA,NA,0,#D89F1C,#3386FF,0,0,1,38,1,933.7999999523163,39,0,517,0,0,experiment,NA,NA,2,0.5,0.5,4,5,250,6,NA
fcp-trial,286,1058708,0.0-261.0-0.0,voc_e2,12258,"[{""event"":""fullscreenenter"",""trial"":1,""time"":1312}]",NA,NA,NA,NA,NA,4,#741CD8,#D8271C,10,10,0,38,1,1031,39,0,644.3000000119209,10,1,experiment,NA,NA,1,0.3,0.7,3,2,251,6,NA
fcp-trial,287,1061605,0.0-262.0-0.0,voc_e2,12258,"[{""event"":""fullscreenenter"",""trial"":1,""time"":1312}]",NA,NA,NA,NA,NA,4,#D89F1C,#3386FF,10,0,1,38,1,937.1999999880791,39,0,449.2999999523163,0,0,experiment,NA,NA,2,0.5,0.5,4,5,252,6,NA
fcp-trial,288,1064153,0.0-263.0-0.0,voc_e2,12258,"[{""event"":""fullscreenenter"",""trial"":1,""time"":1312}]",NA,NA,NA,NA,NA,6,#1CD855,#FA92F8,10,0,1,40,0,590,39,0,449.199999988079,0,0,experiment,NA,NA,0,0.9,0.1,0,1,253,6,NA
fcp-trial,289,1066853,0.0-264.0-0.0,voc_e2,12258,"[{""event"":""fullscreenenter"",""trial"":1,""time"":1312}]",NA,NA,NA,NA,NA,5,#FA92F8,#1CD855,0,10,0,40,0,741.3999999761581,39,0,448.300000011921,10,1,experiment,NA,NA,0,0.1,0.9,1,0,254,6,NA
fcp-trial,290,1069766,0.0-265.0-0.0,voc_e2,12258,"[{""event"":""fullscreenenter"",""trial"":1,""time"":1312}]",NA,NA,NA,NA,NA,1,#741CD8,#D8271C,10,10,0,38,1,950.6999999880791,39,0,441.300000011921,10,1,experiment,NA,NA,1,0.3,0.7,3,2,255,6,NA
fcp-trial,291,1072892,0.0-266.0-0.0,voc_e2,12258,"[{""event"":""fullscreenenter"",""trial"":1,""time"":1312}]",NA,NA,NA,NA,NA,4,#D89F1C,#3386FF,10,10,1,38,1,1199.7999999523163,39,0,420,10,0,experiment,NA,NA,2,0.5,0.5,4,5,256,6,NA
fcp-trial,292,1076175,0.0-267.0-0.0,voc_e2,12258,"[{""event"":""fullscreenenter"",""trial"":1,""time"":1312}]",NA,NA,NA,NA,NA,3,#D8271C,#741CD8,0,0,1,38,1,1252.3999999761581,37,1,512.0999999642372,0,1,experiment,NA,NA,1,0.7,0.3,2,3,257,6,NA
fcp-trial,293,1079453,0.0-268.0-0.0,voc_e2,12258,"[{""event"":""fullscreenenter"",""trial"":1,""time"":1312}]",NA,NA,NA,NA,NA,0,#1CD855,#FA92F8,10,0,1,38,1,1329.800000011921,37,1,438.0999999642372,10,1,experiment,NA,NA,0,0.9,0.1,0,1,258,6,NA
fcp-trial,294,1082514,0.0-269.0-0.0,voc_e2,12258,"[{""event"":""fullscreenenter"",""trial"":1,""time"":1312}]",NA,NA,NA,NA,NA,4,#D8271C,#741CD8,10,0,1,38,1,1051.9000000357628,37,1,498.5,10,1,experiment,NA,NA,1,0.7,0.3,2,3,259,6,NA
fcp-trial,295,1085973,0.0-270.0-0.0,voc_e2,12258,"[{""event"":""fullscreenenter"",""trial"":1,""time"":1312}]",NA,NA,NA,NA,NA,0,#D89F1C,#3386FF,10,0,1,38,1,961.8000000119209,39,0,986.9000000357628,0,0,experiment,NA,NA,2,0.5,0.5,4,5,260,6,NA
fcp-trial,296,1088903,0.0-271.0-0.0,voc_e2,12258,"[{""event"":""fullscreenenter"",""trial"":1,""time"":1312}]",NA,NA,NA,NA,NA,2,#3386FF,#D89F1C,10,10,0,38,1,912.5,37,1,509.5,10,0,experiment,NA,NA,2,0.5,0.5,5,4,261,6,NA
fcp-trial,297,1092414,0.0-272.0-0.0,voc_e2,12258,"[{""event"":""fullscreenenter"",""trial"":1,""time"":1312}]",NA,NA,NA,NA,NA,4,#FA92F8,#1CD855,0,10,0,38,1,1130.8999999761581,39,0,862.5999999642372,10,1,experiment,NA,NA,0,0.1,0.9,1,0,262,6,NA
fcp-trial,298,1095437,0.0-273.0-0.0,voc_e2,12258,"[{""event"":""fullscreenenter"",""trial"":1,""time"":1312}]",NA,NA,NA,NA,NA,5,#3386FF,#D89F1C,0,10,0,40,0,1070.800000011921,37,1,439,0,0,experiment,NA,NA,2,0.5,0.5,5,4,263,6,NA
fcp-trial,299,1098325,0.0-274.0-0.0,voc_e2,12258,"[{""event"":""fullscreenenter"",""trial"":1,""time"":1312}]",NA,NA,NA,NA,NA,2,#741CD8,#D8271C,0,10,0,38,1,946.3000000119209,39,0,427.9000000357628,10,1,experiment,NA,NA,1,0.3,0.7,3,2,264,6,NA
fcp-trial,300,1100858,0.0-275.0-0.0,voc_e2,12258,"[{""event"":""fullscreenenter"",""trial"":1,""time"":1312}]",NA,NA,NA,NA,NA,6,#3386FF,#D89F1C,0,0,0,40,0,569.6999999880791,39,0,448.5,0,1,experiment,NA,NA,2,0.5,0.5,5,4,265,6,NA
fcp-trial,301,1103634,0.0-276.0-0.0,voc_e2,12258,"[{""event"":""fullscreenenter"",""trial"":1,""time"":1312}]",NA,NA,NA,NA,NA,0,#741CD8,#D8271C,0,10,0,38,1,827.8999999761581,39,0,436.800000011921,10,1,experiment,NA,NA,1,0.3,0.7,3,2,266,6,NA
fcp-trial,302,1106565,0.0-277.0-0.0,voc_e2,12258,"[{""event"":""fullscreenenter"",""trial"":1,""time"":1312}]",NA,NA,NA,NA,NA,3,#1CD855,#FA92F8,10,0,1,38,1,942.4000000357628,37,1,473.2999999523163,10,1,experiment,NA,NA,0,0.9,0.1,0,1,267,6,NA
fcp-trial,303,1109748,0.0-278.0-0.0,voc_e2,12258,"[{""event"":""fullscreenenter"",""trial"":1,""time"":1312}]",NA,NA,NA,NA,NA,5,#D8271C,#741CD8,10,0,1,38,1,1291.199999988079,37,1,377,10,1,experiment,NA,NA,1,0.7,0.3,2,3,268,6,NA
fcp-trial,304,1112584,0.0-279.0-0.0,voc_e2,12258,"[{""event"":""fullscreenenter"",""trial"":1,""time"":1312}]",NA,NA,NA,NA,NA,6,#741CD8,#D8271C,0,10,0,40,0,896.1999999880791,39,0,427.60000002384186,10,1,experiment,NA,NA,1,0.3,0.7,3,2,269,6,NA
fcp-trial,305,1115655,0.0-280.0-0.0,voc_e2,12258,"[{""event"":""fullscreenenter"",""trial"":1,""time"":1312}]",NA,NA,NA,NA,NA,3,#3386FF,#D89F1C,10,10,0,38,1,1150.6000000238419,37,1,396,10,0,experiment,NA,NA,2,0.5,0.5,5,4,270,6,NA
fcp-trial,306,1118522,0.0-281.0-0.0,voc_e2,12258,"[{""event"":""fullscreenenter"",""trial"":1,""time"":1312}]",NA,NA,NA,NA,NA,1,#3386FF,#D89F1C,0,0,0,38,1,1009.3999999761581,37,1,347.80000001192093,0,0,experiment,NA,NA,2,0.5,0.5,5,4,271,7,NA
fcp-trial,307,1121092,0.0-282.0-0.0,voc_e2,12258,"[{""event"":""fullscreenenter"",""trial"":1,""time"":1312}]",NA,NA,NA,NA,NA,1,#1CD855,#FA92F8,10,0,1,38,1,662.6999999880791,37,1,391.5,10,1,experiment,NA,NA,0,0.9,0.1,0,1,272,7,NA
fcp-trial,308,1124409,0.0-283.0-0.0,voc_e2,12258,"[{""event"":""fullscreenenter"",""trial"":1,""time"":1312}]",NA,NA,NA,NA,NA,2,#1CD855,#FA92F8,10,0,1,38,1,1361.5999999642372,37,1,438.5,10,1,experiment,NA,NA,0,0.9,0.1,0,1,273,7,NA
fcp-trial,309,1127295,0.0-284.0-0.0,voc_e2,12258,"[{""event"":""fullscreenenter"",""trial"":1,""time"":1312}]",NA,NA,NA,NA,NA,6,#D89F1C,#3386FF,10,0,1,40,0,686.3999999761581,37,1,689.0999999642372,10,1,experiment,NA,NA,2,0.5,0.5,4,5,274,7,NA
fcp-trial,310,1130033,0.0-285.0-0.0,voc_e2,12258,"[{""event"":""fullscreenenter"",""trial"":1,""time"":1312}]",NA,NA,NA,NA,NA,6,#D8271C,#741CD8,0,10,1,40,0,729.1999999880791,37,1,494.89999997615814,0,1,experiment,NA,NA,1,0.7,0.3,2,3,275,7,NA
fcp-trial,311,1132882,0.0-286.0-0.0,voc_e2,12258,"[{""event"":""fullscreenenter"",""trial"":1,""time"":1312}]",NA,NA,NA,NA,NA,0,#741CD8,#D8271C,0,10,0,38,1,901,39,0,435.0999999642372,10,1,experiment,NA,NA,1,0.3,0.7,3,2,276,7,NA
fcp-trial,312,1135646,0.0-287.0-0.0,voc_e2,12258,"[{""event"":""fullscreenenter"",""trial"":1,""time"":1312}]",NA,NA,NA,NA,NA,5,#D89F1C,#3386FF,0,0,1,40,0,763.4000000357628,39,0,489.300000011921,0,0,experiment,NA,NA,2,0.5,0.5,4,5,277,7,NA
fcp-trial,313,1138386,0.0-288.0-0.0,voc_e2,12258,"[{""event"":""fullscreenenter"",""trial"":1,""time"":1312}]",NA,NA,NA,NA,NA,2,#1CD855,#FA92F8,10,0,1,38,1,789.3000000119209,37,1,429.199999988079,10,1,experiment,NA,NA,0,0.9,0.1,0,1,278,7,NA
fcp-trial,314,1141146,0.0-289.0-0.0,voc_e2,12258,"[{""event"":""fullscreenenter"",""trial"":1,""time"":1312}]",NA,NA,NA,NA,NA,1,#FA92F8,#1CD855,0,10,0,38,1,760.0999999642372,39,0,487.800000011921,10,1,experiment,NA,NA,0,0.1,0.9,1,0,279,7,NA
fcp-trial,315,1144222,0.0-290.0-0.0,voc_e2,12258,"[{""event"":""fullscreenenter"",""trial"":1,""time"":1312}]",NA,NA,NA,NA,NA,5,#1CD855,#FA92F8,10,0,1,40,0,1079.6000000238419,39,0,482.5,0,0,experiment,NA,NA,0,0.9,0.1,0,1,280,7,NA
fcp-trial,316,1146936,0.0-291.0-0.0,voc_e2,12258,"[{""event"":""fullscreenenter"",""trial"":1,""time"":1312}]",NA,NA,NA,NA,NA,4,#741CD8,#D8271C,0,0,0,38,1,753.4000000357628,39,0,448.7999999523163,0,1,experiment,NA,NA,1,0.3,0.7,3,2,281,7,NA
fcp-trial,317,1149724,0.0-292.0-0.0,voc_e2,12258,"[{""event"":""fullscreenenter"",""trial"":1,""time"":1312}]",NA,NA,NA,NA,NA,3,#D89F1C,#3386FF,10,10,1,38,1,869.8000000119209,39,0,408.89999997615814,10,0,experiment,NA,NA,2,0.5,0.5,4,5,282,7,NA
fcp-trial,318,1152647,0.0-293.0-0.0,voc_e2,12258,"[{""event"":""fullscreenenter"",""trial"":1,""time"":1312}]",NA,NA,NA,NA,NA,0,#FA92F8,#1CD855,0,10,0,38,1,1040.9000000357628,39,0,363.39999997615814,10,1,experiment,NA,NA,0,0.1,0.9,1,0,283,7,NA
fcp-trial,319,1155282,0.0-294.0-0.0,voc_e2,12258,"[{""event"":""fullscreenenter"",""trial"":1,""time"":1312}]",NA,NA,NA,NA,NA,3,#741CD8,#D8271C,0,10,0,38,1,728.6999999880791,39,0,387.60000002384186,10,1,experiment,NA,NA,1,0.3,0.7,3,2,284,7,NA
fcp-trial,320,1159107,0.0-295.0-0.0,voc_e2,12258,"[{""event"":""fullscreenenter"",""trial"":1,""time"":1312}]",NA,NA,NA,NA,NA,4,#1CD855,#FA92F8,10,0,1,38,1,1813.699999988079,39,0,485.300000011921,0,0,experiment,NA,NA,0,0.9,0.1,0,1,285,7,NA
fcp-trial,321,1161837,0.0-296.0-0.0,voc_e2,12258,"[{""event"":""fullscreenenter"",""trial"":1,""time"":1312}]",NA,NA,NA,NA,NA,1,#D89F1C,#3386FF,0,10,1,38,1,859,39,0,352.30000001192093,10,0,experiment,NA,NA,2,0.5,0.5,4,5,286,7,NA
fcp-trial,322,1164363,0.0-297.0-0.0,voc_e2,12258,"[{""event"":""fullscreenenter"",""trial"":1,""time"":1312}]",NA,NA,NA,NA,NA,2,#D8271C,#741CD8,10,0,1,38,1,607.6999999880791,37,1,406.9000000357628,10,1,experiment,NA,NA,1,0.7,0.3,2,3,287,7,NA
fcp-trial,323,1167258,0.0-298.0-0.0,voc_e2,12258,"[{""event"":""fullscreenenter"",""trial"":1,""time"":1312}]",NA,NA,NA,NA,NA,3,#FA92F8,#1CD855,0,10,0,38,1,664.1999999880791,39,0,714.8000000119209,10,1,experiment,NA,NA,0,0.1,0.9,1,0,288,7,NA
fcp-trial,324,1170249,0.0-299.0-0.0,voc_e2,12258,"[{""event"":""fullscreenenter"",""trial"":1,""time"":1312}]",NA,NA,NA,NA,NA,0,#D89F1C,#3386FF,10,0,1,38,1,1068.199999988079,39,0,406.199999988079,0,0,experiment,NA,NA,2,0.5,0.5,4,5,289,7,NA
fcp-trial,325,1172826,0.0-300.0-0.0,voc_e2,12258,"[{""event"":""fullscreenenter"",""trial"":1,""time"":1312}]",NA,NA,NA,NA,NA,1,#741CD8,#D8271C,10,10,0,38,1,688.5,39,0,377.300000011921,10,1,experiment,NA,NA,1,0.3,0.7,3,2,290,7,NA
fcp-trial,326,1175751,0.0-301.0-0.0,voc_e2,12258,"[{""event"":""fullscreenenter"",""trial"":1,""time"":1312}]",NA,NA,NA,NA,NA,6,#1CD855,#FA92F8,10,0,1,40,0,959.0999999642372,39,0,447.89999997615814,0,0,experiment,NA,NA,0,0.9,0.1,0,1,291,7,NA
fcp-trial,327,1178276,0.0-302.0-0.0,voc_e2,12258,"[{""event"":""fullscreenenter"",""trial"":1,""time"":1312}]",NA,NA,NA,NA,NA,5,#741CD8,#D8271C,0,10,0,40,0,586.3999999761581,39,0,426.5999999642372,10,1,experiment,NA,NA,1,0.3,0.7,3,2,292,7,NA
fcp-trial,328,1180908,0.0-303.0-0.0,voc_e2,12258,"[{""event"":""fullscreenenter"",""trial"":1,""time"":1312}]",NA,NA,NA,NA,NA,4,#D89F1C,#3386FF,10,0,1,38,1,743.1999999880791,39,0,376.300000011921,0,0,experiment,NA,NA,2,0.5,0.5,4,5,293,7,NA
fcp-trial,329,1183590,0.0-304.0-0.0,voc_e2,12258,"[{""event"":""fullscreenenter"",""trial"":1,""time"":1312}]",NA,NA,NA,NA,NA,2,#3386FF,#D89F1C,10,10,0,38,1,671.3999999761581,37,1,497.39999997615814,10,0,experiment,NA,NA,2,0.5,0.5,5,4,294,7,NA
fcp-trial,330,1186127,0.0-305.0-0.0,voc_e2,12258,"[{""event"":""fullscreenenter"",""trial"":1,""time"":1312}]",NA,NA,NA,NA,NA,2,#FA92F8,#1CD855,0,10,0,38,1,660.1999999880791,39,0,368.800000011921,10,1,experiment,NA,NA,0,0.1,0.9,1,0,295,7,NA
fcp-trial,331,1188970,0.0-306.0-0.0,voc_e2,12258,"[{""event"":""fullscreenenter"",""trial"":1,""time"":1312}]",NA,NA,NA,NA,NA,6,#3386FF,#D89F1C,0,10,0,40,0,932.1999999880791,37,1,384,0,0,experiment,NA,NA,2,0.5,0.5,5,4,296,7,NA
fcp-trial,332,1191443,0.0-307.0-0.0,voc_e2,12258,"[{""event"":""fullscreenenter"",""trial"":1,""time"":1312}]",NA,NA,NA,NA,NA,2,#741CD8,#D8271C,10,10,0,38,1,609.2999999523163,39,0,345.0999999642372,10,1,experiment,NA,NA,1,0.3,0.7,3,2,297,7,NA
fcp-trial,333,1194241,0.0-308.0-0.0,voc_e2,12258,"[{""event"":""fullscreenenter"",""trial"":1,""time"":1312}]",NA,NA,NA,NA,NA,5,#3386FF,#D89F1C,0,0,0,40,0,805.3000000119209,39,0,475.9000000357628,0,1,experiment,NA,NA,2,0.5,0.5,5,4,298,7,NA
fcp-trial,334,1196885,0.0-309.0-0.0,voc_e2,12258,"[{""event"":""fullscreenenter"",""trial"":1,""time"":1312}]",NA,NA,NA,NA,NA,4,#FA92F8,#1CD855,0,10,0,38,1,685.9000000357628,39,0,442.5999999642372,10,1,experiment,NA,NA,0,0.1,0.9,1,0,299,7,NA
fcp-trial,335,1200086,0.0-310.0-0.0,voc_e2,12258,"[{""event"":""fullscreenenter"",""trial"":1,""time"":1312}]",NA,NA,NA,NA,NA,5,#D8271C,#741CD8,10,10,1,40,0,1224.6000000238419,37,1,466.800000011921,10,1,experiment,NA,NA,1,0.7,0.3,2,3,300,7,NA
fcp-trial,336,1202748,0.0-311.0-0.0,voc_e2,12258,"[{""event"":""fullscreenenter"",""trial"":1,""time"":1312}]",NA,NA,NA,NA,NA,1,#D8271C,#741CD8,10,10,1,38,1,513.3999999761581,37,1,631.3999999761581,10,1,experiment,NA,NA,1,0.7,0.3,2,3,301,7,NA
fcp-trial,337,1205250,0.0-312.0-0.0,voc_e2,12258,"[{""event"":""fullscreenenter"",""trial"":1,""time"":1312}]",NA,NA,NA,NA,NA,5,#FA92F8,#1CD855,10,10,0,40,0,550.3999999761581,39,0,435.89999997615814,10,1,experiment,NA,NA,0,0.1,0.9,1,0,302,7,NA
fcp-trial,338,1208220,0.0-313.0-0.0,voc_e2,12258,"[{""event"":""fullscreenenter"",""trial"":1,""time"":1312}]",NA,NA,NA,NA,NA,4,#D89F1C,#3386FF,10,10,1,38,1,1042.800000011921,39,0,412.2999999523163,10,0,experiment,NA,NA,2,0.5,0.5,4,5,303,7,NA
fcp-trial,339,1210880,0.0-314.0-0.0,voc_e2,12258,"[{""event"":""fullscreenenter"",""trial"":1,""time"":1312}]",NA,NA,NA,NA,NA,0,#741CD8,#D8271C,10,10,0,38,1,678.3000000119209,39,0,458.5,10,1,experiment,NA,NA,1,0.3,0.7,3,2,304,7,NA
fcp-trial,340,1213457,0.0-315.0-0.0,voc_e2,12258,"[{""event"":""fullscreenenter"",""trial"":1,""time"":1312}]",NA,NA,NA,NA,NA,3,#FA92F8,#1CD855,0,10,0,38,1,668.8000000119209,39,0,398.7999999523163,10,1,experiment,NA,NA,0,0.1,0.9,1,0,305,7,NA
fcp-trial,341,1216573,0.0-316.0-0.0,voc_e2,12258,"[{""event"":""fullscreenenter"",""trial"":1,""time"":1312}]",NA,NA,NA,NA,NA,2,#3386FF,#D89F1C,0,0,0,38,1,841.6999999880791,37,1,756.1999999880791,0,0,experiment,NA,NA,2,0.5,0.5,5,4,306,7,NA
fcp-trial,342,1219270,0.0-317.0-0.0,voc_e2,12258,"[{""event"":""fullscreenenter"",""trial"":1,""time"":1312}]",NA,NA,NA,NA,NA,6,#741CD8,#D8271C,0,10,0,40,0,775.8999999761581,39,0,404.7999999523163,10,1,experiment,NA,NA,1,0.3,0.7,3,2,307,7,NA
fcp-trial,343,1221888,0.0-318.0-0.0,voc_e2,12258,"[{""event"":""fullscreenenter"",""trial"":1,""time"":1312}]",NA,NA,NA,NA,NA,1,#1CD855,#FA92F8,10,0,1,38,1,688.5,37,1,417.89999997615814,10,1,experiment,NA,NA,0,0.9,0.1,0,1,308,7,NA
fcp-trial,344,1224498,0.0-319.0-0.0,voc_e2,12258,"[{""event"":""fullscreenenter"",""trial"":1,""time"":1312}]",NA,NA,NA,NA,NA,0,#1CD855,#FA92F8,10,0,1,38,1,610.8999999761581,37,1,487.5,10,1,experiment,NA,NA,0,0.9,0.1,0,1,309,7,NA
fcp-trial,345,1227233,0.0-320.0-0.0,voc_e2,12258,"[{""event"":""fullscreenenter"",""trial"":1,""time"":1312}]",NA,NA,NA,NA,NA,0,#D89F1C,#3386FF,0,10,1,38,1,820.0999999642372,39,0,395.300000011921,10,0,experiment,NA,NA,2,0.5,0.5,4,5,310,7,NA
fcp-trial,346,1230010,0.0-321.0-0.0,voc_e2,12258,"[{""event"":""fullscreenenter"",""trial"":1,""time"":1312}]",NA,NA,NA,NA,NA,3,#D8271C,#741CD8,10,0,1,38,1,825.2000000476837,37,1,436.7999999523163,10,1,experiment,NA,NA,1,0.7,0.3,2,3,311,7,NA
fcp-trial,347,1232578,0.0-322.0-0.0,voc_e2,12258,"[{""event"":""fullscreenenter"",""trial"":1,""time"":1312}]",NA,NA,NA,NA,NA,3,#3386FF,#D89F1C,10,0,0,38,1,599.6999999880791,37,1,454.89999997615814,10,0,experiment,NA,NA,2,0.5,0.5,5,4,312,7,NA
fcp-trial,348,1235280,0.0-323.0-0.0,voc_e2,12258,"[{""event"":""fullscreenenter"",""trial"":1,""time"":1312}]",NA,NA,NA,NA,NA,1,#3386FF,#D89F1C,10,10,0,38,1,811.2000000476837,37,1,377.39999997615814,10,0,experiment,NA,NA,2,0.5,0.5,5,4,313,7,NA
fcp-trial,349,1237904,0.0-324.0-0.0,voc_e2,12258,"[{""event"":""fullscreenenter"",""trial"":1,""time"":1312}]",NA,NA,NA,NA,NA,6,#FA92F8,#1CD855,0,10,0,40,0,719.8000000119209,39,0,397,10,1,experiment,NA,NA,0,0.1,0.9,1,0,314,7,NA
fcp-trial,350,1240828,0.0-325.0-0.0,voc_e2,12258,"[{""event"":""fullscreenenter"",""trial"":1,""time"":1312}]",NA,NA,NA,NA,NA,4,#741CD8,#D8271C,0,10,0,38,1,819.6999999880791,39,0,586,10,1,experiment,NA,NA,1,0.3,0.7,3,2,315,7,NA
audio-instructions,351,1247714,0.0-326.0,voc_e2,12258,"[{""event"":""fullscreenenter"",""trial"":1,""time"":1312}]",NA,910.4000000357628,static/audio/finished.wav,NA,0,NA,NA,NA,NA,NA,NA,NA,NA,NA,NA,NA,NA,NA,NA,NA,NA,NA,NA,NA,NA,NA,NA,NA,NA,NA
audio-instructions,352,1260229,0.0-327.0-0.0,voc_e2,12258,"[{""event"":""fullscreenenter"",""trial"":1,""time"":1312}]",NA,1675.4000000357628,static/audio/explicit1.wav,NA,0,NA,NA,NA,NA,NA,NA,NA,NA,NA,NA,NA,NA,NA,NA,NA,NA,NA,NA,NA,NA,NA,NA,NA,NA,NA
audio-instructions,353,1267960,0.0-327.0-1.0,voc_e2,12258,"[{""event"":""fullscreenenter"",""trial"":1,""time"":1312}]",NA,136.60000002384186,static/audio/explicit2.wav,NA,0,NA,NA,NA,NA,NA,NA,NA,NA,NA,NA,NA,NA,NA,NA,NA,NA,NA,NA,NA,NA,NA,NA,NA,NA,NA
image-slider-response,354,1273385,0.0-328.0,voc_e2,12258,"[{""event"":""fullscreenenter"",""trial"":1,""time"":1312}]",NA,5421.300000011921,static/img/machines/machine1.png,NA,NA,NA,NA,NA,NA,NA,NA,NA,NA,NA,NA,NA,NA,NA,NA,explicit,NA,NA,NA,NA,NA,NA,NA,NA,NA,7
image-slider-response,355,1275796,0.0-329.0,voc_e2,12258,"[{""event"":""fullscreenenter"",""trial"":1,""time"":1312}]",NA,2409.100000023842,static/img/machines/machine6.png,NA,NA,NA,NA,NA,NA,NA,NA,NA,NA,NA,NA,NA,NA,NA,NA,explicit,NA,NA,NA,NA,NA,NA,NA,NA,NA,7
image-slider-response,356,1278117,0.0-330.0,voc_e2,12258,"[{""event"":""fullscreenenter"",""trial"":1,""time"":1312}]",NA,2318.399999976158,static/img/machines/machine3.png,NA,NA,NA,NA,NA,NA,NA,NA,NA,NA,NA,NA,NA,NA,NA,NA,explicit,NA,NA,NA,NA,NA,NA,NA,NA,NA,8
image-slider-response,357,1280897,0.0-331.0,voc_e2,12258,"[{""event"":""fullscreenenter"",""trial"":1,""time"":1312}]",NA,2778,static/img/machines/machine2.png,NA,NA,NA,NA,NA,NA,NA,NA,NA,NA,NA,NA,NA,NA,NA,NA,explicit,NA,NA,NA,NA,NA,NA,NA,NA,NA,3
image-slider-response,358,1282335,0.0-332.0,voc_e2,12258,"[{""event"":""fullscreenenter"",""trial"":1,""time"":1312}]",NA,1436.5,static/img/machines/machine4.png,NA,NA,NA,NA,NA,NA,NA,NA,NA,NA,NA,NA,NA,NA,NA,NA,explicit,NA,NA,NA,NA,NA,NA,NA,NA,NA,4
image-slider-response,359,1284044,0.0-333.0,voc_e2,12258,"[{""event"":""fullscreenenter"",""trial"":1,""time"":1312}]",NA,1706.800000011921,static/img/machines/machine5.png,NA,NA,NA,NA,NA,NA,NA,NA,NA,NA,NA,NA,NA,NA,NA,NA,explicit,NA,NA,NA,NA,NA,NA,NA,NA,NA,2
