trial_type,trial_index,time_elapsed,internal_node_id,task_version,subject_id,interactions,success,rt,stimulus,key_press,button_pressed,offer,arcade_color_L,arcade_color_R,arcade_outcome_L,arcade_outcome_R,correct,stage_1_key,stage_1_choice,stage_1_rt,stage_2_key,stage_2_choice,stage_2_rt,stage_3_outcome,accuracy,phase,responses,num_errors,context,reward_prob_L,reward_prob_R,arcade_id_L,arcade_id_R,trial,block,response
pavlovia,0,8,0.0-0.0,voc_e2,12315,[],NA,NA,NA,NA,NA,NA,NA,NA,NA,NA,NA,NA,NA,NA,NA,NA,NA,NA,NA,NA,NA,NA,NA,NA,NA,NA,NA,NA,NA,NA
fullscreen,1,10396,0.0-1.0,voc_e2,12315,"[{""event"":""fullscreenenter"",""trial"":1,""time"":9400}]",TRUE,NA,NA,NA,NA,NA,NA,NA,NA,NA,NA,NA,NA,NA,NA,NA,NA,NA,NA,NA,NA,NA,NA,NA,NA,NA,NA,NA,NA,NA
audio-keyboard-response,2,15832,0.0-2.0,voc_e2,12315,"[{""event"":""fullscreenenter"",""trial"":1,""time"":9400}]",NA,4720,static/audio/beep_loop.wav,32,NA,NA,NA,NA,NA,NA,NA,NA,NA,NA,NA,NA,NA,NA,NA,NA,NA,NA,NA,NA,NA,NA,NA,NA,NA,NA
audio-test,3,18084,0.0-3.0,voc_e2,12315,"[{""event"":""fullscreenenter"",""trial"":1,""time"":9400}]",NA,NA,static/audio/turtle.wav,NA,3,NA,NA,NA,NA,NA,NA,NA,NA,NA,NA,NA,NA,NA,NA,NA,NA,NA,NA,NA,NA,NA,NA,NA,NA,NA
audio-test,4,22132,0.0-4.0,voc_e2,12315,"[{""event"":""fullscreenenter"",""trial"":1,""time"":9400}]",NA,NA,static/audio/shark.wav,NA,2,NA,NA,NA,NA,NA,NA,NA,NA,NA,NA,NA,NA,NA,NA,NA,NA,NA,NA,NA,NA,NA,NA,NA,NA,NA
audio-instructions,5,35708,0.0-5.0-0.0,voc_e2,12315,"[{""event"":""fullscreenenter"",""trial"":1,""time"":9400}]",NA,7787.5,static/audio/instructions1.wav,NA,0,NA,NA,NA,NA,NA,NA,NA,NA,NA,NA,NA,NA,NA,NA,NA,NA,NA,NA,NA,NA,NA,NA,NA,NA,NA
audio-instructions,6,46088,0.0-5.0-1.0,voc_e2,12315,"[{""event"":""fullscreenenter"",""trial"":1,""time"":9400}]",NA,3632.2999999998137,static/audio/instructions2.wav,NA,0,NA,NA,NA,NA,NA,NA,NA,NA,NA,NA,NA,NA,NA,NA,NA,NA,NA,NA,NA,NA,NA,NA,NA,NA,NA
audio-instructions,7,54101,0.0-5.0-2.0,voc_e2,12315,"[{""event"":""fullscreenenter"",""trial"":1,""time"":9400}]",NA,2207.2000000001863,static/audio/instructions3.wav,NA,0,NA,NA,NA,NA,NA,NA,NA,NA,NA,NA,NA,NA,NA,NA,NA,NA,NA,NA,NA,NA,NA,NA,NA,NA,NA
audio-instructions,8,68733,0.0-5.0-3.0,voc_e2,12315,"[{""event"":""fullscreenenter"",""trial"":1,""time"":9400}]",NA,1412.2000000001865,static/audio/instructions4.wav,NA,0,NA,NA,NA,NA,NA,NA,NA,NA,NA,NA,NA,NA,NA,NA,NA,NA,NA,NA,NA,NA,NA,NA,NA,NA,NA
audio-instructions,9,79450,0.0-5.0-4.0,voc_e2,12315,"[{""event"":""fullscreenenter"",""trial"":1,""time"":9400}]",NA,1331.3999999994412,static/audio/instructions5.wav,NA,0,NA,NA,NA,NA,NA,NA,NA,NA,NA,NA,NA,NA,NA,NA,NA,NA,NA,NA,NA,NA,NA,NA,NA,NA,NA
fcp-practice,10,82431,0.0-5.0-5.0-0.0,voc_e2,12315,"[{""event"":""fullscreenenter"",""trial"":1,""time"":9400}]",NA,NA,NA,NA,NA,NA,#EDC948,#46d3c8,10,0,1,null,null,null,37,1,1459.7000000001865,10,1,practice,NA,NA,NA,NA,NA,NA,NA,NA,NA,NA
fcp-practice,11,84381,0.0-5.0-5.0-1.0,voc_e2,12315,"[{""event"":""fullscreenenter"",""trial"":1,""time"":9400}]",NA,NA,NA,NA,NA,NA,#EDC948,#46d3c8,10,0,1,null,null,null,37,1,434.70000000018626,10,1,practice,NA,NA,NA,NA,NA,NA,NA,NA,NA,NA
fcp-practice,12,86313,0.0-5.0-5.0-2.0,voc_e2,12315,"[{""event"":""fullscreenenter"",""trial"":1,""time"":9400}]",NA,NA,NA,NA,NA,NA,#EDC948,#46d3c8,0,10,1,null,null,null,37,1,416.20000000018626,0,1,practice,NA,NA,NA,NA,NA,NA,NA,NA,NA,NA
fcp-practice,13,88279,0.0-5.0-5.0-3.0,voc_e2,12315,"[{""event"":""fullscreenenter"",""trial"":1,""time"":9400}]",NA,NA,NA,NA,NA,NA,#EDC948,#46d3c8,10,0,1,null,null,null,37,1,455.79999999981374,10,1,practice,NA,NA,NA,NA,NA,NA,NA,NA,NA,NA
fcp-practice,14,90194,0.0-5.0-5.0-4.0,voc_e2,12315,"[{""event"":""fullscreenenter"",""trial"":1,""time"":9400}]",NA,NA,NA,NA,NA,NA,#EDC948,#46d3c8,10,0,1,null,null,null,37,1,395.79999999981374,10,1,practice,NA,NA,NA,NA,NA,NA,NA,NA,NA,NA
audio-instructions,15,110274,0.0-5.0-6.0,voc_e2,12315,"[{""event"":""fullscreenenter"",""trial"":1,""time"":9400}]",NA,2072.5999999996275,static/audio/instructions6.wav,NA,0,NA,NA,NA,NA,NA,NA,NA,NA,NA,NA,NA,NA,NA,NA,NA,NA,NA,NA,NA,NA,NA,NA,NA,NA,NA
audio-instructions,16,130726,0.0-5.0-7.0,voc_e2,12315,"[{""event"":""fullscreenenter"",""trial"":1,""time"":9400}]",NA,1258.2000000001865,static/audio/instructions7.wav,NA,0,NA,NA,NA,NA,NA,NA,NA,NA,NA,NA,NA,NA,NA,NA,NA,NA,NA,NA,NA,NA,NA,NA,NA,NA,NA
audio-instructions,17,141484,0.0-5.0-8.0,voc_e2,12315,"[{""event"":""fullscreenenter"",""trial"":1,""time"":9400}]",NA,1278,static/audio/instructions8.wav,NA,0,NA,NA,NA,NA,NA,NA,NA,NA,NA,NA,NA,NA,NA,NA,NA,NA,NA,NA,NA,NA,NA,NA,NA,NA,NA
fcp-comprehension,18,150910,0.0-5.0-9.0,voc_e2,12315,"[{""event"":""fullscreenenter"",""trial"":1,""time"":9400}]",NA,9424,NA,NA,NA,NA,NA,NA,NA,NA,NA,NA,NA,NA,NA,NA,NA,NA,NA,NA,"true,true",0,NA,NA,NA,NA,NA,NA,NA,NA
audio-instructions,19,169578,0.0-6.0-0.0,voc_e2,12315,"[{""event"":""fullscreenenter"",""trial"":1,""time"":9400}]",NA,13115.299999999814,static/audio/instructions9.wav,NA,0,NA,NA,NA,NA,NA,NA,NA,NA,NA,NA,NA,NA,NA,NA,NA,NA,NA,NA,NA,NA,NA,NA,NA,NA,NA
audio-instructions,20,183304,0.0-6.0-1.0,voc_e2,12315,"[{""event"":""fullscreenenter"",""trial"":1,""time"":9400}]",NA,1607.4000000003723,static/audio/instructions10.wav,NA,0,NA,NA,NA,NA,NA,NA,NA,NA,NA,NA,NA,NA,NA,NA,NA,NA,NA,NA,NA,NA,NA,NA,NA,NA,NA
fcp-trial,21,189850,0.0-6.0-2.0,voc_e2,12315,"[{""event"":""fullscreenenter"",""trial"":1,""time"":9400}]",NA,NA,NA,NA,NA,0,#EDC948,#46d3c8,10,10,1,38,1,3011.2000000001863,37,1,2010.9000000003723,10,1,practice,NA,NA,NA,NA,NA,NA,NA,NA,NA,NA
audio-instructions,22,202786,0.0-6.0-3.0,voc_e2,12315,"[{""event"":""fullscreenenter"",""trial"":1,""time"":9400}]",NA,1924.2000000001865,static/audio/instructions11.wav,NA,0,NA,NA,NA,NA,NA,NA,NA,NA,NA,NA,NA,NA,NA,NA,NA,NA,NA,NA,NA,NA,NA,NA,NA,NA,NA
fcp-trial,23,207099,0.0-6.0-4.0,voc_e2,12315,"[{""event"":""fullscreenenter"",""trial"":1,""time"":9400}]",NA,NA,NA,NA,NA,6,#EDC948,#46d3c8,10,10,1,40,0,995.5,39,0,1795.199999999255,10,0,practice,NA,NA,NA,NA,NA,NA,NA,NA,NA,NA
audio-instructions,24,226846,0.0-6.0-5.0,voc_e2,12315,"[{""event"":""fullscreenenter"",""trial"":1,""time"":9400}]",NA,1059.1000000005588,static/audio/instructions12.wav,NA,0,NA,NA,NA,NA,NA,NA,NA,NA,NA,NA,NA,NA,NA,NA,NA,NA,NA,NA,NA,NA,NA,NA,NA,NA,NA
audio-instructions,25,235755,0.0-6.0-6.0,voc_e2,12315,"[{""event"":""fullscreenenter"",""trial"":1,""time"":9400}]",NA,1311.7999999998135,static/audio/instructions13.wav,NA,0,NA,NA,NA,NA,NA,NA,NA,NA,NA,NA,NA,NA,NA,NA,NA,NA,NA,NA,NA,NA,NA,NA,NA,NA,NA
audio-instructions,26,245777,0.0-6.0-7.0,voc_e2,12315,"[{""event"":""fullscreenenter"",""trial"":1,""time"":9400}]",NA,1573.5,static/audio/instructions14.wav,NA,0,NA,NA,NA,NA,NA,NA,NA,NA,NA,NA,NA,NA,NA,NA,NA,NA,NA,NA,NA,NA,NA,NA,NA,NA,NA
audio-instructions,27,254309,0.0-7.0-0.0,voc_e2,12315,"[{""event"":""fullscreenenter"",""trial"":1,""time"":9400}]",NA,1618.2000000001865,static/audio/instructions15.wav,NA,0,NA,NA,NA,NA,NA,NA,NA,NA,NA,NA,NA,NA,NA,NA,NA,NA,NA,NA,NA,NA,NA,NA,NA,NA,NA
audio-instructions,28,263342,0.0-7.0-1.0,voc_e2,12315,"[{""event"":""fullscreenenter"",""trial"":1,""time"":9400}]",NA,2203.100000000559,static/audio/instructions16.wav,NA,0,NA,NA,NA,NA,NA,NA,NA,NA,NA,NA,NA,NA,NA,NA,NA,NA,NA,NA,NA,NA,NA,NA,NA,NA,NA
audio-instructions,29,272101,0.0-7.0-2.0,voc_e2,12315,"[{""event"":""fullscreenenter"",""trial"":1,""time"":9400}]",NA,1084.2999999998135,static/audio/instructions17.wav,NA,0,NA,NA,NA,NA,NA,NA,NA,NA,NA,NA,NA,NA,NA,NA,NA,NA,NA,NA,NA,NA,NA,NA,NA,NA,NA
audio-instructions,30,280808,0.0-7.0-3.0,voc_e2,12315,"[{""event"":""fullscreenenter"",""trial"":1,""time"":9400}]",NA,943.2999999998136,static/audio/instructions18.wav,NA,0,NA,NA,NA,NA,NA,NA,NA,NA,NA,NA,NA,NA,NA,NA,NA,NA,NA,NA,NA,NA,NA,NA,NA,NA,NA
audio-instructions,31,290064,0.0-7.0-4.0,voc_e2,12315,"[{""event"":""fullscreenenter"",""trial"":1,""time"":9400}]",NA,2521.600000000559,static/audio/instructions19.wav,NA,0,NA,NA,NA,NA,NA,NA,NA,NA,NA,NA,NA,NA,NA,NA,NA,NA,NA,NA,NA,NA,NA,NA,NA,NA,NA
fcp-comprehension,32,318265,0.0-7.0-5.0,voc_e2,12315,"[{""event"":""fullscreenenter"",""trial"":1,""time"":9400}]",NA,28198.799999999817,NA,NA,NA,NA,NA,NA,NA,NA,NA,NA,NA,NA,NA,NA,NA,NA,NA,NA,"false,false,false,true",0,NA,NA,NA,NA,NA,NA,NA,NA
audio-instructions,33,329889,0.0-8.0,voc_e2,12315,"[{""event"":""fullscreenenter"",""trial"":1,""time"":9400}]",NA,2420.5,static/audio/ready.wav,NA,0,NA,NA,NA,NA,NA,NA,NA,NA,NA,NA,NA,NA,NA,NA,NA,NA,NA,NA,NA,NA,NA,NA,NA,NA,NA
fcp-trial,34,335651,0.0-9.0-0.0,voc_e2,12315,"[{""event"":""fullscreenenter"",""trial"":1,""time"":9400}]",NA,NA,NA,NA,NA,3,#3386FF,#D89F1C,10,0,1,38,1,2264.2000000001863,39,0,1984.3999999994412,0,0,experiment,NA,NA,1,0.7,0.3,2,3,1,1,NA
fcp-trial,35,341483,0.0-10.0-0.0,voc_e2,12315,"[{""event"":""fullscreenenter"",""trial"":1,""time"":9400}]",NA,NA,NA,NA,NA,1,#D8271C,#741CD8,0,0,0,38,1,2895,37,1,1418.699999999255,0,0,experiment,NA,NA,0,0.1,0.9,1,0,2,1,NA
fcp-trial,36,346081,0.0-11.0-0.0,voc_e2,12315,"[{""event"":""fullscreenenter"",""trial"":1,""time"":9400}]",NA,NA,NA,NA,NA,3,#741CD8,#D8271C,10,0,1,38,1,1961.5999999996275,37,1,1126.0999999996277,10,1,experiment,NA,NA,0,0.9,0.1,0,1,3,1,NA
fcp-trial,37,350413,0.0-12.0-0.0,voc_e2,12315,"[{""event"":""fullscreenenter"",""trial"":1,""time"":9400}]",NA,NA,NA,NA,NA,5,#1CD855,#FA92F8,10,10,0,38,1,1851.3999999994412,39,0,961.5,10,1,experiment,NA,NA,2,0.5,0.5,5,4,4,1,NA
fcp-trial,38,354709,0.0-13.0-0.0,voc_e2,12315,"[{""event"":""fullscreenenter"",""trial"":1,""time"":9400}]",NA,NA,NA,NA,NA,4,#1CD855,#FA92F8,10,0,0,40,0,1759.5,37,1,1027.2000000001865,10,0,experiment,NA,NA,2,0.5,0.5,5,4,5,1,NA
fcp-trial,39,358734,0.0-14.0-0.0,voc_e2,12315,"[{""event"":""fullscreenenter"",""trial"":1,""time"":9400}]",NA,NA,NA,NA,NA,4,#3386FF,#D89F1C,10,10,1,38,1,1683.7999999998137,37,1,826.4000000003725,10,1,experiment,NA,NA,1,0.7,0.3,2,3,6,1,NA
fcp-trial,40,362770,0.0-15.0-0.0,voc_e2,12315,"[{""event"":""fullscreenenter"",""trial"":1,""time"":9400}]",NA,NA,NA,NA,NA,5,#3386FF,#D89F1C,10,0,1,38,1,1880.2999999998137,37,1,645.5999999996275,10,1,experiment,NA,NA,1,0.7,0.3,2,3,7,1,NA
fcp-trial,41,366390,0.0-16.0-0.0,voc_e2,12315,"[{""event"":""fullscreenenter"",""trial"":1,""time"":9400}]",NA,NA,NA,NA,NA,5,#741CD8,#D8271C,10,0,1,38,1,1088.3999999994412,39,0,1022.3000000007452,0,0,experiment,NA,NA,0,0.9,0.1,0,1,8,1,NA
fcp-trial,42,371085,0.0-17.0-0.0,voc_e2,12315,"[{""event"":""fullscreenenter"",""trial"":1,""time"":9400}]",NA,NA,NA,NA,NA,0,#D89F1C,#3386FF,0,10,0,40,0,1801.3999999994412,39,0,1381.5,10,1,experiment,NA,NA,1,0.3,0.7,3,2,9,1,NA
fcp-trial,43,375450,0.0-18.0-0.0,voc_e2,12315,"[{""event"":""fullscreenenter"",""trial"":1,""time"":9400}]",NA,NA,NA,NA,NA,1,#1CD855,#FA92F8,0,10,0,38,1,2168.0999999996275,39,0,685.5999999996275,10,1,experiment,NA,NA,2,0.5,0.5,5,4,10,1,NA
fcp-trial,44,379670,0.0-19.0-0.0,voc_e2,12315,"[{""event"":""fullscreenenter"",""trial"":1,""time"":9400}]",NA,NA,NA,NA,NA,0,#1CD855,#FA92F8,10,0,0,38,1,1615,39,0,1093.300000000745,0,1,experiment,NA,NA,2,0.5,0.5,5,4,11,1,NA
fcp-trial,45,384066,0.0-20.0-0.0,voc_e2,12315,"[{""event"":""fullscreenenter"",""trial"":1,""time"":9400}]",NA,NA,NA,NA,NA,1,#D89F1C,#3386FF,0,10,0,38,1,1620.0999999996275,39,0,1262.9000000003723,10,1,experiment,NA,NA,1,0.3,0.7,3,2,12,1,NA
fcp-trial,46,387614,0.0-21.0-0.0,voc_e2,12315,"[{""event"":""fullscreenenter"",""trial"":1,""time"":9400}]",NA,NA,NA,NA,NA,6,#741CD8,#D8271C,10,0,1,40,0,1126.3999999994412,39,0,907.5,0,0,experiment,NA,NA,0,0.9,0.1,0,1,13,1,NA
fcp-trial,47,394037,0.0-22.0-0.0,voc_e2,12315,"[{""event"":""fullscreenenter"",""trial"":1,""time"":9400}]",NA,NA,NA,NA,NA,6,#1CD855,#FA92F8,10,0,0,38,1,3311.7000000001863,39,0,1596.0999999996277,0,1,experiment,NA,NA,2,0.5,0.5,5,4,14,1,NA
fcp-trial,48,400058,0.0-23.0-0.0,voc_e2,12315,"[{""event"":""fullscreenenter"",""trial"":1,""time"":9400}]",NA,NA,NA,NA,NA,2,#D89F1C,#3386FF,0,10,0,38,1,3050.0999999996275,39,0,1458.5,10,1,experiment,NA,NA,1,0.3,0.7,3,2,15,1,NA
fcp-trial,49,406303,0.0-24.0-0.0,voc_e2,12315,"[{""event"":""fullscreenenter"",""trial"":1,""time"":9400}]",NA,NA,NA,NA,NA,3,#1CD855,#FA92F8,0,0,0,38,1,2998.7000000001863,39,0,1734.7000000001865,0,1,experiment,NA,NA,2,0.5,0.5,5,4,16,1,NA
fcp-trial,50,410748,0.0-25.0-0.0,voc_e2,12315,"[{""event"":""fullscreenenter"",""trial"":1,""time"":9400}]",NA,NA,NA,NA,NA,2,#FA92F8,#1CD855,10,10,1,38,1,1946.7999999998137,39,0,990.7000000001864,10,0,experiment,NA,NA,2,0.5,0.5,4,5,17,1,NA
fcp-trial,51,415531,0.0-26.0-0.0,voc_e2,12315,"[{""event"":""fullscreenenter"",""trial"":1,""time"":9400}]",NA,NA,NA,NA,NA,0,#D8271C,#741CD8,0,10,0,38,1,2508.7000000001863,39,0,764,10,1,experiment,NA,NA,0,0.1,0.9,1,0,18,1,NA
fcp-trial,52,418767,0.0-27.0-0.0,voc_e2,12315,"[{""event"":""fullscreenenter"",""trial"":1,""time"":9400}]",NA,NA,NA,NA,NA,4,#D8271C,#741CD8,0,10,0,38,1,1097.1000000005588,39,0,629,10,1,experiment,NA,NA,0,0.1,0.9,1,0,19,1,NA
fcp-trial,53,422651,0.0-28.0-0.0,voc_e2,12315,"[{""event"":""fullscreenenter"",""trial"":1,""time"":9400}]",NA,NA,NA,NA,NA,6,#D89F1C,#3386FF,0,10,0,38,1,1504.699999999255,39,0,871.9000000003725,10,1,experiment,NA,NA,1,0.3,0.7,3,2,20,1,NA
fcp-trial,54,427416,0.0-29.0-0.0,voc_e2,12315,"[{""event"":""fullscreenenter"",""trial"":1,""time"":9400}]",NA,NA,NA,NA,NA,2,#741CD8,#D8271C,10,0,1,38,1,1698.5999999996275,37,1,1556.7000000001865,10,1,experiment,NA,NA,0,0.9,0.1,0,1,21,1,NA
fcp-trial,55,430800,0.0-30.0-0.0,voc_e2,12315,"[{""event"":""fullscreenenter"",""trial"":1,""time"":9400}]",NA,NA,NA,NA,NA,0,#D8271C,#741CD8,0,10,0,38,1,1331.0999999996275,39,0,543.6000000005588,10,1,experiment,NA,NA,0,0.1,0.9,1,0,22,1,NA
fcp-trial,56,434762,0.0-31.0-0.0,voc_e2,12315,"[{""event"":""fullscreenenter"",""trial"":1,""time"":9400}]",NA,NA,NA,NA,NA,2,#741CD8,#D8271C,10,0,1,38,1,1358.9000000003725,37,1,1096.9000000003723,10,1,experiment,NA,NA,0,0.9,0.1,0,1,23,1,NA
fcp-trial,57,438917,0.0-32.0-0.0,voc_e2,12315,"[{""event"":""fullscreenenter"",""trial"":1,""time"":9400}]",NA,NA,NA,NA,NA,1,#D8271C,#741CD8,0,10,0,38,1,1874.3999999994412,39,0,772.8999999994412,10,1,experiment,NA,NA,0,0.1,0.9,1,0,24,1,NA
fcp-trial,58,443293,0.0-33.0-0.0,voc_e2,12315,"[{""event"":""fullscreenenter"",""trial"":1,""time"":9400}]",NA,NA,NA,NA,NA,6,#D89F1C,#3386FF,0,10,0,40,0,1490.7000000001863,39,0,1375.800000000745,10,1,experiment,NA,NA,1,0.3,0.7,3,2,25,1,NA
fcp-trial,59,447556,0.0-34.0-0.0,voc_e2,12315,"[{""event"":""fullscreenenter"",""trial"":1,""time"":9400}]",NA,NA,NA,NA,NA,6,#FA92F8,#1CD855,0,0,1,40,0,1743.7999999998137,39,0,1011.3999999994412,0,0,experiment,NA,NA,2,0.5,0.5,4,5,26,1,NA
fcp-trial,60,453571,0.0-35.0-0.0,voc_e2,12315,"[{""event"":""fullscreenenter"",""trial"":1,""time"":9400}]",NA,NA,NA,NA,NA,4,#D89F1C,#3386FF,0,10,0,40,0,3535.5999999996275,39,0,971.5,10,1,experiment,NA,NA,1,0.3,0.7,3,2,27,1,NA
fcp-trial,61,457822,0.0-36.0-0.0,voc_e2,12315,"[{""event"":""fullscreenenter"",""trial"":1,""time"":9400}]",NA,NA,NA,NA,NA,3,#1CD855,#FA92F8,10,0,0,38,1,1801.5999999996275,39,0,940.5,0,1,experiment,NA,NA,2,0.5,0.5,5,4,28,1,NA
fcp-trial,62,462530,0.0-37.0-0.0,voc_e2,12315,"[{""event"":""fullscreenenter"",""trial"":1,""time"":9400}]",NA,NA,NA,NA,NA,3,#D8271C,#741CD8,0,10,0,38,1,2115.100000000559,39,0,1081.8999999994412,10,1,experiment,NA,NA,0,0.1,0.9,1,0,29,1,NA
fcp-trial,63,468851,0.0-38.0-0.0,voc_e2,12315,"[{""event"":""fullscreenenter"",""trial"":1,""time"":9400}]",NA,NA,NA,NA,NA,5,#741CD8,#D8271C,10,0,1,38,1,3596.899999999441,37,1,1213.2000000001865,10,1,experiment,NA,NA,0,0.9,0.1,0,1,30,1,NA
fcp-trial,64,474222,0.0-39.0-0.0,voc_e2,12315,"[{""event"":""fullscreenenter"",""trial"":1,""time"":9400}]",NA,NA,NA,NA,NA,1,#D89F1C,#3386FF,10,0,0,38,1,2412,39,0,1450.7999999998135,0,1,experiment,NA,NA,1,0.3,0.7,3,2,31,1,NA
fcp-trial,65,478399,0.0-40.0-0.0,voc_e2,12315,"[{""event"":""fullscreenenter"",""trial"":1,""time"":9400}]",NA,NA,NA,NA,NA,1,#1CD855,#FA92F8,0,10,0,38,1,2152.2999999998137,37,1,514.9000000003725,0,0,experiment,NA,NA,2,0.5,0.5,5,4,32,1,NA
fcp-trial,66,481911,0.0-41.0-0.0,voc_e2,12315,"[{""event"":""fullscreenenter"",""trial"":1,""time"":9400}]",NA,NA,NA,NA,NA,2,#1CD855,#FA92F8,0,0,0,38,1,1414.0999999996275,37,1,588.2000000001863,0,0,experiment,NA,NA,2,0.5,0.5,5,4,33,1,NA
fcp-trial,67,488592,0.0-42.0-0.0,voc_e2,12315,"[{""event"":""fullscreenenter"",""trial"":1,""time"":9400}]",NA,NA,NA,NA,NA,4,#FA92F8,#1CD855,0,0,1,40,0,4461.5999999996275,37,1,710.4000000003725,0,1,experiment,NA,NA,2,0.5,0.5,4,5,34,1,NA
fcp-trial,68,492696,0.0-43.0-0.0,voc_e2,12315,"[{""event"":""fullscreenenter"",""trial"":1,""time"":9400}]",NA,NA,NA,NA,NA,4,#D8271C,#741CD8,0,10,0,38,1,1995.2000000001863,39,0,597.4000000003725,10,1,experiment,NA,NA,0,0.1,0.9,1,0,35,1,NA
fcp-trial,69,496225,0.0-44.0-0.0,voc_e2,12315,"[{""event"":""fullscreenenter"",""trial"":1,""time"":9400}]",NA,NA,NA,NA,NA,0,#D89F1C,#3386FF,0,0,0,38,1,1275.0999999996275,39,0,743,0,1,experiment,NA,NA,1,0.3,0.7,3,2,36,1,NA
fcp-trial,70,500434,0.0-45.0-0.0,voc_e2,12315,"[{""event"":""fullscreenenter"",""trial"":1,""time"":9400}]",NA,NA,NA,NA,NA,5,#D89F1C,#3386FF,0,10,0,38,1,1032.2999999998137,39,0,1668.4000000003723,10,1,experiment,NA,NA,1,0.3,0.7,3,2,37,1,NA
fcp-trial,71,503377,0.0-46.0-0.0,voc_e2,12315,"[{""event"":""fullscreenenter"",""trial"":1,""time"":9400}]",NA,NA,NA,NA,NA,3,#D89F1C,#3386FF,0,10,0,38,1,866.8000000007451,37,1,567.7000000001863,0,0,experiment,NA,NA,1,0.3,0.7,3,2,38,1,NA
fcp-trial,72,507193,0.0-47.0-0.0,voc_e2,12315,"[{""event"":""fullscreenenter"",""trial"":1,""time"":9400}]",NA,NA,NA,NA,NA,0,#FA92F8,#1CD855,10,0,1,38,1,1822.9000000003725,39,0,484.79999999981374,0,0,experiment,NA,NA,2,0.5,0.5,4,5,39,1,NA
fcp-trial,73,511343,0.0-48.0-0.0,voc_e2,12315,"[{""event"":""fullscreenenter"",""trial"":1,""time"":9400}]",NA,NA,NA,NA,NA,6,#741CD8,#D8271C,10,0,1,38,1,1110.2999999998137,37,1,1531.7000000001865,10,1,experiment,NA,NA,0,0.9,0.1,0,1,40,1,NA
fcp-trial,74,514391,0.0-49.0-0.0,voc_e2,12315,"[{""event"":""fullscreenenter"",""trial"":1,""time"":9400}]",NA,NA,NA,NA,NA,2,#3386FF,#D89F1C,0,10,1,38,1,899.8999999994412,37,1,637.7999999998137,0,1,experiment,NA,NA,1,0.7,0.3,2,3,41,1,NA
fcp-trial,75,520474,0.0-50.0-0.0,voc_e2,12315,"[{""event"":""fullscreenenter"",""trial"":1,""time"":9400}]",NA,NA,NA,NA,NA,5,#1CD855,#FA92F8,0,10,0,38,1,1885.5999999996275,37,1,2687.2000000001863,0,0,experiment,NA,NA,2,0.5,0.5,5,4,42,1,NA
fcp-trial,76,523350,0.0-51.0-0.0,voc_e2,12315,"[{""event"":""fullscreenenter"",""trial"":1,""time"":9400}]",NA,NA,NA,NA,NA,4,#D8271C,#741CD8,0,10,0,38,1,934.9000000003725,39,0,433.70000000018626,10,1,experiment,NA,NA,0,0.1,0.9,1,0,43,1,NA
fcp-trial,77,529030,0.0-52.0-0.0,voc_e2,12315,"[{""event"":""fullscreenenter"",""trial"":1,""time"":9400}]",NA,NA,NA,NA,NA,4,#D89F1C,#3386FF,0,10,0,38,1,1986.5,39,0,2180.2999999998137,10,1,experiment,NA,NA,1,0.3,0.7,3,2,44,1,NA
fcp-trial,78,532701,0.0-53.0-0.0,voc_e2,12315,"[{""event"":""fullscreenenter"",""trial"":1,""time"":9400}]",NA,NA,NA,NA,NA,3,#D8271C,#741CD8,0,0,0,38,1,973.1999999992549,39,0,1183.2000000001865,0,1,experiment,NA,NA,0,0.1,0.9,1,0,45,1,NA
fcp-trial,79,537495,0.0-54.0-0.0,voc_e2,12315,"[{""event"":""fullscreenenter"",""trial"":1,""time"":9400}]",NA,NA,NA,NA,NA,2,#D89F1C,#3386FF,0,10,0,38,1,1508.8999999994412,39,0,1772.5,10,1,experiment,NA,NA,1,0.3,0.7,3,2,46,2,NA
fcp-trial,80,540585,0.0-55.0-0.0,voc_e2,12315,"[{""event"":""fullscreenenter"",""trial"":1,""time"":9400}]",NA,NA,NA,NA,NA,6,#3386FF,#D89F1C,10,0,1,38,1,1129.7999999998137,37,1,451.29999999981374,10,1,experiment,NA,NA,1,0.7,0.3,2,3,47,2,NA
fcp-trial,81,546181,0.0-56.0-0.0,voc_e2,12315,"[{""event"":""fullscreenenter"",""trial"":1,""time"":9400}]",NA,NA,NA,NA,NA,6,#D8271C,#741CD8,0,10,0,40,0,1966.8999999994412,37,1,2119.2999999998137,0,0,experiment,NA,NA,0,0.1,0.9,1,0,48,2,NA
fcp-trial,82,550098,0.0-57.0-0.0,voc_e2,12315,"[{""event"":""fullscreenenter"",""trial"":1,""time"":9400}]",NA,NA,NA,NA,NA,5,#1CD855,#FA92F8,10,10,0,40,0,1551.0999999996275,37,1,853.5,10,0,experiment,NA,NA,2,0.5,0.5,5,4,49,2,NA
fcp-trial,83,554270,0.0-58.0-0.0,voc_e2,12315,"[{""event"":""fullscreenenter"",""trial"":1,""time"":9400}]",NA,NA,NA,NA,NA,1,#741CD8,#D8271C,10,0,1,38,1,1568.4000000003725,37,1,1093.6000000005588,10,1,experiment,NA,NA,0,0.9,0.1,0,1,50,2,NA
fcp-trial,84,558636,0.0-59.0-0.0,voc_e2,12315,"[{""event"":""fullscreenenter"",""trial"":1,""time"":9400}]",NA,NA,NA,NA,NA,1,#D89F1C,#3386FF,10,10,0,38,1,1527.7000000001863,39,0,1328.7999999998135,10,1,experiment,NA,NA,1,0.3,0.7,3,2,51,2,NA
fcp-trial,85,562399,0.0-60.0-0.0,voc_e2,12315,"[{""event"":""fullscreenenter"",""trial"":1,""time"":9400}]",NA,NA,NA,NA,NA,0,#FA92F8,#1CD855,0,0,1,38,1,1177,37,1,1078.2000000001865,0,1,experiment,NA,NA,2,0.5,0.5,4,5,52,2,NA
fcp-trial,86,566653,0.0-61.0-0.0,voc_e2,12315,"[{""event"":""fullscreenenter"",""trial"":1,""time"":9400}]",NA,NA,NA,NA,NA,2,#D8271C,#741CD8,0,10,0,38,1,2337.5,39,0,409.4000000003726,10,1,experiment,NA,NA,0,0.1,0.9,1,0,53,2,NA
fcp-trial,87,569980,0.0-62.0-0.0,voc_e2,12315,"[{""event"":""fullscreenenter"",""trial"":1,""time"":9400}]",NA,NA,NA,NA,NA,5,#D89F1C,#3386FF,0,10,0,38,1,1149.1000000005588,39,0,667.5,10,1,experiment,NA,NA,1,0.3,0.7,3,2,54,2,NA
fcp-trial,88,573313,0.0-63.0-0.0,voc_e2,12315,"[{""event"":""fullscreenenter"",""trial"":1,""time"":9400}]",NA,NA,NA,NA,NA,6,#FA92F8,#1CD855,10,0,1,40,0,1104.2000000001863,39,0,719.5,0,0,experiment,NA,NA,2,0.5,0.5,4,5,55,2,NA
fcp-trial,89,577892,0.0-64.0-0.0,voc_e2,12315,"[{""event"":""fullscreenenter"",""trial"":1,""time"":9400}]",NA,NA,NA,NA,NA,5,#741CD8,#D8271C,10,0,1,38,1,1878.1000000005588,37,1,1189,10,1,experiment,NA,NA,0,0.9,0.1,0,1,56,2,NA
fcp-trial,90,582918,0.0-65.0-0.0,voc_e2,12315,"[{""event"":""fullscreenenter"",""trial"":1,""time"":9400}]",NA,NA,NA,NA,NA,4,#1CD855,#FA92F8,0,0,0,38,1,1395.2999999998137,37,1,2120.5,0,0,experiment,NA,NA,2,0.5,0.5,5,4,57,2,NA
fcp-trial,91,587439,0.0-66.0-0.0,voc_e2,12315,"[{""event"":""fullscreenenter"",""trial"":1,""time"":9400}]",NA,NA,NA,NA,NA,3,#1CD855,#FA92F8,10,10,0,38,1,1764.5,37,1,1241.7000000001865,10,0,experiment,NA,NA,2,0.5,0.5,5,4,58,2,NA
fcp-trial,92,593518,0.0-67.0-0.0,voc_e2,12315,"[{""event"":""fullscreenenter"",""trial"":1,""time"":9400}]",NA,NA,NA,NA,NA,3,#3386FF,#D89F1C,10,10,1,38,1,1694.699999999255,37,1,2876.0999999996275,10,1,experiment,NA,NA,1,0.7,0.3,2,3,59,2,NA
fcp-trial,93,599247,0.0-68.0-0.0,voc_e2,12315,"[{""event"":""fullscreenenter"",""trial"":1,""time"":9400}]",NA,NA,NA,NA,NA,0,#741CD8,#D8271C,10,0,1,38,1,2656.7999999998137,37,1,1560.9000000003723,10,1,experiment,NA,NA,0,0.9,0.1,0,1,60,2,NA
fcp-trial,94,603746,0.0-69.0-0.0,voc_e2,12315,"[{""event"":""fullscreenenter"",""trial"":1,""time"":9400}]",NA,NA,NA,NA,NA,1,#1CD855,#FA92F8,10,10,0,38,1,1143,37,1,1842.5,10,0,experiment,NA,NA,2,0.5,0.5,5,4,61,2,NA
fcp-trial,95,607354,0.0-70.0-0.0,voc_e2,12315,"[{""event"":""fullscreenenter"",""trial"":1,""time"":9400}]",NA,NA,NA,NA,NA,0,#D89F1C,#3386FF,10,0,0,38,1,1182.2999999998137,39,0,917.2000000001864,0,1,experiment,NA,NA,1,0.3,0.7,3,2,62,2,NA
fcp-trial,96,611058,0.0-71.0-0.0,voc_e2,12315,"[{""event"":""fullscreenenter"",""trial"":1,""time"":9400}]",NA,NA,NA,NA,NA,2,#FA92F8,#1CD855,10,10,1,38,1,1086.7999999998137,39,0,1106.5999999996277,10,0,experiment,NA,NA,2,0.5,0.5,4,5,63,2,NA
fcp-trial,97,614737,0.0-72.0-0.0,voc_e2,12315,"[{""event"":""fullscreenenter"",""trial"":1,""time"":9400}]",NA,NA,NA,NA,NA,6,#1CD855,#FA92F8,10,10,0,38,1,1224.7999999998137,37,1,943,10,0,experiment,NA,NA,2,0.5,0.5,5,4,64,2,NA
fcp-trial,98,617825,0.0-73.0-0.0,voc_e2,12315,"[{""event"":""fullscreenenter"",""trial"":1,""time"":9400}]",NA,NA,NA,NA,NA,1,#D89F1C,#3386FF,0,0,0,38,1,764.4000000003725,39,0,799.4000000003725,0,1,experiment,NA,NA,1,0.3,0.7,3,2,65,2,NA
fcp-trial,99,621517,0.0-74.0-0.0,voc_e2,12315,"[{""event"":""fullscreenenter"",""trial"":1,""time"":9400}]",NA,NA,NA,NA,NA,4,#741CD8,#D8271C,10,0,1,38,1,1277.800000000745,37,1,901.7000000001864,10,1,experiment,NA,NA,0,0.9,0.1,0,1,66,2,NA
fcp-trial,100,625528,0.0-75.0-0.0,voc_e2,12315,"[{""event"":""fullscreenenter"",""trial"":1,""time"":9400}]",NA,NA,NA,NA,NA,2,#3386FF,#D89F1C,10,10,1,38,1,1374.7999999998137,39,0,1124.5999999996277,10,0,experiment,NA,NA,1,0.7,0.3,2,3,67,2,NA
fcp-trial,101,628625,0.0-76.0-0.0,voc_e2,12315,"[{""event"":""fullscreenenter"",""trial"":1,""time"":9400}]",NA,NA,NA,NA,NA,4,#3386FF,#D89F1C,0,0,1,38,1,684,37,1,904.9000000003724,0,1,experiment,NA,NA,1,0.7,0.3,2,3,68,2,NA
fcp-trial,102,633262,0.0-77.0-0.0,voc_e2,12315,"[{""event"":""fullscreenenter"",""trial"":1,""time"":9400}]",NA,NA,NA,NA,NA,0,#1CD855,#FA92F8,10,10,0,38,1,1805,37,1,1321.8999999994412,10,0,experiment,NA,NA,2,0.5,0.5,5,4,69,2,NA
fcp-trial,103,636490,0.0-78.0-0.0,voc_e2,12315,"[{""event"":""fullscreenenter"",""trial"":1,""time"":9400}]",NA,NA,NA,NA,NA,2,#741CD8,#D8271C,10,0,1,38,1,813.4000000003725,37,1,905.9000000003724,10,1,experiment,NA,NA,0,0.9,0.1,0,1,70,2,NA
fcp-trial,104,640444,0.0-79.0-0.0,voc_e2,12315,"[{""event"":""fullscreenenter"",""trial"":1,""time"":9400}]",NA,NA,NA,NA,NA,3,#D89F1C,#3386FF,10,0,0,38,1,1308,37,1,1134.5999999996277,10,0,experiment,NA,NA,1,0.3,0.7,3,2,71,2,NA
fcp-trial,105,643943,0.0-80.0-0.0,voc_e2,12315,"[{""event"":""fullscreenenter"",""trial"":1,""time"":9400}]",NA,NA,NA,NA,NA,4,#1CD855,#FA92F8,0,10,0,38,1,603.6999999992549,37,1,1386.7000000001865,0,0,experiment,NA,NA,2,0.5,0.5,5,4,72,2,NA
fcp-trial,106,647443,0.0-81.0-0.0,voc_e2,12315,"[{""event"":""fullscreenenter"",""trial"":1,""time"":9400}]",NA,NA,NA,NA,NA,0,#3386FF,#D89F1C,0,0,1,38,1,858,37,1,1132.800000000745,0,1,experiment,NA,NA,1,0.7,0.3,2,3,73,2,NA
fcp-trial,107,651059,0.0-82.0-0.0,voc_e2,12315,"[{""event"":""fullscreenenter"",""trial"":1,""time"":9400}]",NA,NA,NA,NA,NA,5,#D8271C,#741CD8,0,10,0,38,1,606.3999999994412,39,0,1494.9000000003723,10,1,experiment,NA,NA,0,0.1,0.9,1,0,74,2,NA
fcp-trial,108,654406,0.0-83.0-0.0,voc_e2,12315,"[{""event"":""fullscreenenter"",""trial"":1,""time"":9400}]",NA,NA,NA,NA,NA,3,#1CD855,#FA92F8,10,10,0,38,1,1052.4000000003725,39,0,787.7000000001863,10,1,experiment,NA,NA,2,0.5,0.5,5,4,75,2,NA
fcp-trial,109,657952,0.0-84.0-0.0,voc_e2,12315,"[{""event"":""fullscreenenter"",""trial"":1,""time"":9400}]",NA,NA,NA,NA,NA,2,#1CD855,#FA92F8,0,10,0,38,1,1220.6000000005588,39,0,816.3999999994412,10,1,experiment,NA,NA,2,0.5,0.5,5,4,76,2,NA
fcp-trial,110,661190,0.0-85.0-0.0,voc_e2,12315,"[{""event"":""fullscreenenter"",""trial"":1,""time"":9400}]",NA,NA,NA,NA,NA,6,#3386FF,#D89F1C,0,0,1,38,1,924.5,39,0,802.8999999994412,0,0,experiment,NA,NA,1,0.7,0.3,2,3,77,2,NA
fcp-trial,111,664329,0.0-86.0-0.0,voc_e2,12315,"[{""event"":""fullscreenenter"",""trial"":1,""time"":9400}]",NA,NA,NA,NA,NA,6,#D8271C,#741CD8,0,10,0,38,1,939.0999999996275,39,0,691.0999999996275,10,1,experiment,NA,NA,0,0.1,0.9,1,0,78,2,NA
fcp-trial,112,667482,0.0-87.0-0.0,voc_e2,12315,"[{""event"":""fullscreenenter"",""trial"":1,""time"":9400}]",NA,NA,NA,NA,NA,5,#FA92F8,#1CD855,10,10,1,38,1,1140.1000000005588,37,1,501.5,10,1,experiment,NA,NA,2,0.5,0.5,4,5,79,2,NA
fcp-trial,113,670159,0.0-88.0-0.0,voc_e2,12315,"[{""event"":""fullscreenenter"",""trial"":1,""time"":9400}]",NA,NA,NA,NA,NA,5,#D89F1C,#3386FF,0,10,0,38,1,653.2000000001863,37,1,514,0,0,experiment,NA,NA,1,0.3,0.7,3,2,80,2,NA
fcp-trial,114,673581,0.0-89.0-0.0,voc_e2,12315,"[{""event"":""fullscreenenter"",""trial"":1,""time"":9400}]",NA,NA,NA,NA,NA,1,#FA92F8,#1CD855,10,0,1,38,1,1117.5,39,0,791.3999999994412,0,0,experiment,NA,NA,2,0.5,0.5,4,5,81,2,NA
fcp-trial,115,676774,0.0-90.0-0.0,voc_e2,12315,"[{""event"":""fullscreenenter"",""trial"":1,""time"":9400}]",NA,NA,NA,NA,NA,0,#741CD8,#D8271C,10,0,1,38,1,720,37,1,962.5,10,1,experiment,NA,NA,0,0.9,0.1,0,1,82,2,NA
fcp-trial,116,680294,0.0-91.0-0.0,voc_e2,12315,"[{""event"":""fullscreenenter"",""trial"":1,""time"":9400}]",NA,NA,NA,NA,NA,1,#D8271C,#741CD8,0,10,0,38,1,1275.5,39,0,729.7000000001863,10,1,experiment,NA,NA,0,0.1,0.9,1,0,83,2,NA
fcp-trial,117,683311,0.0-92.0-0.0,voc_e2,12315,"[{""event"":""fullscreenenter"",""trial"":1,""time"":9400}]",NA,NA,NA,NA,NA,3,#D8271C,#741CD8,0,10,0,38,1,827,39,0,677.2999999998137,10,1,experiment,NA,NA,0,0.1,0.9,1,0,84,2,NA
fcp-trial,118,687015,0.0-93.0-0.0,voc_e2,12315,"[{""event"":""fullscreenenter"",""trial"":1,""time"":9400}]",NA,NA,NA,NA,NA,4,#1CD855,#FA92F8,10,0,0,38,1,1650.7000000001863,37,1,539.8999999994412,10,0,experiment,NA,NA,2,0.5,0.5,5,4,85,2,NA
fcp-trial,119,690670,0.0-94.0-0.0,voc_e2,12315,"[{""event"":""fullscreenenter"",""trial"":1,""time"":9400}]",NA,NA,NA,NA,NA,5,#D89F1C,#3386FF,0,10,0,38,1,1223.0999999996275,39,0,922.5,10,1,experiment,NA,NA,1,0.3,0.7,3,2,86,2,NA
fcp-trial,120,694758,0.0-95.0-0.0,voc_e2,12315,"[{""event"":""fullscreenenter"",""trial"":1,""time"":9400}]",NA,NA,NA,NA,NA,3,#FA92F8,#1CD855,0,0,1,38,1,1706.7999999998137,37,1,871.2000000001863,0,1,experiment,NA,NA,2,0.5,0.5,4,5,87,2,NA
fcp-trial,121,697875,0.0-96.0-0.0,voc_e2,12315,"[{""event"":""fullscreenenter"",""trial"":1,""time"":9400}]",NA,NA,NA,NA,NA,4,#3386FF,#D89F1C,10,0,1,38,1,880.5999999996275,37,1,726.2000000001863,10,1,experiment,NA,NA,1,0.7,0.3,2,3,88,2,NA
fcp-trial,122,702352,0.0-97.0-0.0,voc_e2,12315,"[{""event"":""fullscreenenter"",""trial"":1,""time"":9400}]",NA,NA,NA,NA,NA,0,#D8271C,#741CD8,0,10,0,38,1,1747.7000000001863,39,0,1221.5,10,1,experiment,NA,NA,0,0.1,0.9,1,0,89,2,NA
fcp-trial,123,705718,0.0-98.0-0.0,voc_e2,12315,"[{""event"":""fullscreenenter"",""trial"":1,""time"":9400}]",NA,NA,NA,NA,NA,1,#FA92F8,#1CD855,0,10,1,38,1,1187.5,39,0,667.5999999996275,10,0,experiment,NA,NA,2,0.5,0.5,4,5,90,2,NA
fcp-trial,124,708945,0.0-99.0-0.0,voc_e2,12315,"[{""event"":""fullscreenenter"",""trial"":1,""time"":9400}]",NA,NA,NA,NA,NA,2,#1CD855,#FA92F8,10,0,0,38,1,1132.1000000005588,37,1,581.7000000001863,10,0,experiment,NA,NA,2,0.5,0.5,5,4,91,3,NA
fcp-trial,125,712409,0.0-100.0-0.0,voc_e2,12315,"[{""event"":""fullscreenenter"",""trial"":1,""time"":9400}]",NA,NA,NA,NA,NA,6,#D89F1C,#3386FF,10,10,0,38,1,1135.1000000005588,37,1,818.7999999998137,10,0,experiment,NA,NA,1,0.3,0.7,3,2,92,3,NA
fcp-trial,126,715853,0.0-101.0-0.0,voc_e2,12315,"[{""event"":""fullscreenenter"",""trial"":1,""time"":9400}]",NA,NA,NA,NA,NA,5,#741CD8,#D8271C,10,0,1,38,1,964.1000000005588,37,1,970.3000000007452,10,1,experiment,NA,NA,0,0.9,0.1,0,1,93,3,NA
fcp-trial,127,719767,0.0-102.0-0.0,voc_e2,12315,"[{""event"":""fullscreenenter"",""trial"":1,""time"":9400}]",NA,NA,NA,NA,NA,5,#FA92F8,#1CD855,10,10,1,40,0,1235.2999999998137,37,1,1166.5,10,1,experiment,NA,NA,2,0.5,0.5,4,5,94,3,NA
fcp-trial,128,723043,0.0-103.0-0.0,voc_e2,12315,"[{""event"":""fullscreenenter"",""trial"":1,""time"":9400}]",NA,NA,NA,NA,NA,3,#D89F1C,#3386FF,10,10,0,40,0,1125.2000000001863,37,1,639.5999999996275,10,0,experiment,NA,NA,1,0.3,0.7,3,2,95,3,NA
fcp-trial,129,726216,0.0-104.0-0.0,voc_e2,12315,"[{""event"":""fullscreenenter"",""trial"":1,""time"":9400}]",NA,NA,NA,NA,NA,1,#741CD8,#D8271C,10,0,1,38,1,1064,37,1,597.5999999996275,10,1,experiment,NA,NA,0,0.9,0.1,0,1,96,3,NA
fcp-trial,130,730158,0.0-105.0-0.0,voc_e2,12315,"[{""event"":""fullscreenenter"",""trial"":1,""time"":9400}]",NA,NA,NA,NA,NA,1,#3386FF,#D89F1C,10,10,1,40,0,1719.4000000003725,37,1,710.4000000003725,10,1,experiment,NA,NA,1,0.7,0.3,2,3,97,3,NA
fcp-trial,131,734124,0.0-106.0-0.0,voc_e2,12315,"[{""event"":""fullscreenenter"",""trial"":1,""time"":9400}]",NA,NA,NA,NA,NA,0,#FA92F8,#1CD855,10,10,1,38,1,1809.5,39,0,649.2000000001863,10,0,experiment,NA,NA,2,0.5,0.5,4,5,98,3,NA
fcp-trial,132,739058,0.0-107.0-0.0,voc_e2,12315,"[{""event"":""fullscreenenter"",""trial"":1,""time"":9400}]",NA,NA,NA,NA,NA,6,#D8271C,#741CD8,0,10,0,40,0,2262.899999999441,37,1,1160.2999999998135,0,0,experiment,NA,NA,0,0.1,0.9,1,0,99,3,NA
fcp-trial,133,742645,0.0-108.0-0.0,voc_e2,12315,"[{""event"":""fullscreenenter"",""trial"":1,""time"":9400}]",NA,NA,NA,NA,NA,2,#741CD8,#D8271C,10,0,1,38,1,1448.699999999255,37,1,626.5999999996275,10,1,experiment,NA,NA,0,0.9,0.1,0,1,100,3,NA
fcp-trial,134,746715,0.0-109.0-0.0,voc_e2,12315,"[{""event"":""fullscreenenter"",""trial"":1,""time"":9400}]",NA,NA,NA,NA,NA,6,#FA92F8,#1CD855,10,10,1,40,0,1809.1000000005588,37,1,749.8999999994412,10,1,experiment,NA,NA,2,0.5,0.5,4,5,101,3,NA
fcp-trial,135,750638,0.0-110.0-0.0,voc_e2,12315,"[{""event"":""fullscreenenter"",""trial"":1,""time"":9400}]",NA,NA,NA,NA,NA,2,#D89F1C,#3386FF,0,10,0,38,1,1554.199999999255,39,0,857.2000000001863,10,1,experiment,NA,NA,1,0.3,0.7,3,2,102,3,NA
fcp-trial,136,754193,0.0-111.0-0.0,voc_e2,12315,"[{""event"":""fullscreenenter"",""trial"":1,""time"":9400}]",NA,NA,NA,NA,NA,0,#D89F1C,#3386FF,0,10,0,38,1,1056.2000000001863,39,0,985.2999999998136,10,1,experiment,NA,NA,1,0.3,0.7,3,2,103,3,NA
fcp-trial,137,757650,0.0-112.0-0.0,voc_e2,12315,"[{""event"":""fullscreenenter"",""trial"":1,""time"":9400}]",NA,NA,NA,NA,NA,3,#741CD8,#D8271C,10,0,1,38,1,1409,37,1,535.2999999998137,10,1,experiment,NA,NA,0,0.9,0.1,0,1,104,3,NA
fcp-trial,138,761714,0.0-113.0-0.0,voc_e2,12315,"[{""event"":""fullscreenenter"",""trial"":1,""time"":9400}]",NA,NA,NA,NA,NA,4,#D8271C,#741CD8,0,10,0,38,1,2011.5,39,0,542.5,10,1,experiment,NA,NA,0,0.1,0.9,1,0,105,3,NA
audio-instructions,139,800019,0.0-114.0,voc_e2,12315,"[{""event"":""fullscreenenter"",""trial"":1,""time"":9400}]",NA,33087.5,static/audio/pause.wav,NA,0,NA,NA,NA,NA,NA,NA,NA,NA,NA,NA,NA,NA,NA,NA,NA,NA,NA,NA,NA,NA,NA,NA,NA,NA,NA
fcp-trial,140,803895,0.0-115.0-0.0,voc_e2,12315,"[{""event"":""fullscreenenter"",""trial"":1,""time"":9400}]",NA,NA,NA,NA,NA,2,#1CD855,#FA92F8,10,10,0,38,1,1476.4000000003725,39,0,887.7999999998137,10,1,experiment,NA,NA,2,0.5,0.5,5,4,106,3,NA
fcp-trial,141,807738,0.0-116.0-0.0,voc_e2,12315,"[{""event"":""fullscreenenter"",""trial"":1,""time"":9400}]",NA,NA,NA,NA,NA,2,#741CD8,#D8271C,10,0,1,38,1,1857.9000000003725,37,1,471.5,10,1,experiment,NA,NA,0,0.9,0.1,0,1,107,3,NA
fcp-trial,142,811837,0.0-117.0-0.0,voc_e2,12315,"[{""event"":""fullscreenenter"",""trial"":1,""time"":9400}]",NA,NA,NA,NA,NA,0,#1CD855,#FA92F8,10,0,0,38,1,1939.5999999996275,39,0,649.7999999998137,0,1,experiment,NA,NA,2,0.5,0.5,5,4,108,3,NA
fcp-trial,143,815253,0.0-118.0-0.0,voc_e2,12315,"[{""event"":""fullscreenenter"",""trial"":1,""time"":9400}]",NA,NA,NA,NA,NA,6,#D89F1C,#3386FF,10,0,0,38,1,770,37,1,1136.7000000001865,10,0,experiment,NA,NA,1,0.3,0.7,3,2,109,3,NA
fcp-trial,144,819161,0.0-119.0-0.0,voc_e2,12315,"[{""event"":""fullscreenenter"",""trial"":1,""time"":9400}]",NA,NA,NA,NA,NA,5,#D8271C,#741CD8,0,10,0,38,1,1803.8999999994412,39,0,591.2999999998137,10,1,experiment,NA,NA,0,0.1,0.9,1,0,110,3,NA
fcp-trial,145,822426,0.0-120.0-0.0,voc_e2,12315,"[{""event"":""fullscreenenter"",""trial"":1,""time"":9400}]",NA,NA,NA,NA,NA,2,#D89F1C,#3386FF,0,10,0,38,1,1119.2999999998137,39,0,638,10,1,experiment,NA,NA,1,0.3,0.7,3,2,111,3,NA
fcp-trial,146,825524,0.0-121.0-0.0,voc_e2,12315,"[{""event"":""fullscreenenter"",""trial"":1,""time"":9400}]",NA,NA,NA,NA,NA,1,#1CD855,#FA92F8,0,0,0,38,1,949.7000000001863,37,1,638.6000000005588,0,0,experiment,NA,NA,2,0.5,0.5,5,4,112,3,NA
fcp-trial,147,828367,0.0-122.0-0.0,voc_e2,12315,"[{""event"":""fullscreenenter"",""trial"":1,""time"":9400}]",NA,NA,NA,NA,NA,1,#D89F1C,#3386FF,0,10,0,38,1,763.1000000005588,39,0,569.7000000001863,10,1,experiment,NA,NA,1,0.3,0.7,3,2,113,3,NA
fcp-trial,148,831557,0.0-123.0-0.0,voc_e2,12315,"[{""event"":""fullscreenenter"",""trial"":1,""time"":9400}]",NA,NA,NA,NA,NA,1,#D8271C,#741CD8,0,10,0,38,1,1115.1000000005588,39,0,565,10,1,experiment,NA,NA,0,0.1,0.9,1,0,114,3,NA
fcp-trial,149,834694,0.0-124.0-0.0,voc_e2,12315,"[{""event"":""fullscreenenter"",""trial"":1,""time"":9400}]",NA,NA,NA,NA,NA,4,#741CD8,#D8271C,10,10,1,38,1,1012.2000000001863,37,1,614.2000000001863,10,1,experiment,NA,NA,0,0.9,0.1,0,1,115,3,NA
fcp-trial,150,838321,0.0-125.0-0.0,voc_e2,12315,"[{""event"":""fullscreenenter"",""trial"":1,""time"":9400}]",NA,NA,NA,NA,NA,3,#1CD855,#FA92F8,10,10,0,40,0,1513.7000000001863,37,1,601.7999999998137,10,0,experiment,NA,NA,2,0.5,0.5,5,4,116,3,NA
fcp-trial,151,842350,0.0-126.0-0.0,voc_e2,12315,"[{""event"":""fullscreenenter"",""trial"":1,""time"":9400}]",NA,NA,NA,NA,NA,4,#D89F1C,#3386FF,10,10,0,40,0,1864.9000000003725,37,1,657.0999999996275,10,0,experiment,NA,NA,1,0.3,0.7,3,2,117,3,NA
fcp-trial,152,846287,0.0-127.0-0.0,voc_e2,12315,"[{""event"":""fullscreenenter"",""trial"":1,""time"":9400}]",NA,NA,NA,NA,NA,6,#741CD8,#D8271C,10,0,1,40,0,1881.8999999994412,37,1,542.9000000003725,10,1,experiment,NA,NA,0,0.9,0.1,0,1,118,3,NA
fcp-trial,153,849404,0.0-128.0-0.0,voc_e2,12315,"[{""event"":""fullscreenenter"",""trial"":1,""time"":9400}]",NA,NA,NA,NA,NA,6,#FA92F8,#1CD855,0,0,1,38,1,923.2999999998137,37,1,681.3999999994412,0,1,experiment,NA,NA,2,0.5,0.5,4,5,119,3,NA
fcp-trial,154,852897,0.0-129.0-0.0,voc_e2,12315,"[{""event"":""fullscreenenter"",""trial"":1,""time"":9400}]",NA,NA,NA,NA,NA,0,#D89F1C,#3386FF,0,10,0,38,1,1455.5,39,0,526.7000000001863,10,1,experiment,NA,NA,1,0.3,0.7,3,2,120,3,NA
fcp-trial,155,856314,0.0-130.0-0.0,voc_e2,12315,"[{""event"":""fullscreenenter"",""trial"":1,""time"":9400}]",NA,NA,NA,NA,NA,3,#D8271C,#741CD8,0,0,0,38,1,1235.5999999996275,39,0,668.0999999996275,0,1,experiment,NA,NA,0,0.1,0.9,1,0,121,3,NA
fcp-trial,156,859833,0.0-131.0-0.0,voc_e2,12315,"[{""event"":""fullscreenenter"",""trial"":1,""time"":9400}]",NA,NA,NA,NA,NA,5,#FA92F8,#1CD855,10,10,1,38,1,1288.5999999996275,39,0,718,10,0,experiment,NA,NA,2,0.5,0.5,4,5,122,3,NA
fcp-trial,157,862851,0.0-132.0-0.0,voc_e2,12315,"[{""event"":""fullscreenenter"",""trial"":1,""time"":9400}]",NA,NA,NA,NA,NA,0,#741CD8,#D8271C,0,0,1,38,1,946.5,37,1,559.6000000005588,0,1,experiment,NA,NA,0,0.9,0.1,0,1,123,3,NA
fcp-trial,158,866896,0.0-133.0-0.0,voc_e2,12315,"[{""event"":""fullscreenenter"",""trial"":1,""time"":9400}]",NA,NA,NA,NA,NA,5,#D89F1C,#3386FF,0,10,0,38,1,1714.5999999996275,39,0,820.0999999996275,10,1,experiment,NA,NA,1,0.3,0.7,3,2,124,3,NA
fcp-trial,159,870605,0.0-134.0-0.0,voc_e2,12315,"[{""event"":""fullscreenenter"",""trial"":1,""time"":9400}]",NA,NA,NA,NA,NA,4,#1CD855,#FA92F8,0,10,0,40,0,1617.2000000001863,37,1,582.8000000007451,0,0,experiment,NA,NA,2,0.5,0.5,5,4,125,3,NA
fcp-trial,160,874807,0.0-135.0-0.0,voc_e2,12315,"[{""event"":""fullscreenenter"",""trial"":1,""time"":9400}]",NA,NA,NA,NA,NA,3,#D89F1C,#3386FF,0,0,0,40,0,2023.2999999998137,37,1,666.3000000007451,0,0,experiment,NA,NA,1,0.3,0.7,3,2,126,3,NA
fcp-trial,161,877647,0.0-136.0-0.0,voc_e2,12315,"[{""event"":""fullscreenenter"",""trial"":1,""time"":9400}]",NA,NA,NA,NA,NA,6,#3386FF,#D89F1C,10,0,1,38,1,762,37,1,563.2999999998137,10,1,experiment,NA,NA,1,0.7,0.3,2,3,127,3,NA
fcp-trial,162,880941,0.0-137.0-0.0,voc_e2,12315,"[{""event"":""fullscreenenter"",""trial"":1,""time"":9400}]",NA,NA,NA,NA,NA,5,#D89F1C,#3386FF,0,10,0,38,1,1325.2999999998137,39,0,456.79999999981374,10,1,experiment,NA,NA,1,0.3,0.7,3,2,128,3,NA
fcp-trial,163,884040,0.0-138.0-0.0,voc_e2,12315,"[{""event"":""fullscreenenter"",""trial"":1,""time"":9400}]",NA,NA,NA,NA,NA,0,#D8271C,#741CD8,0,10,0,38,1,1225.7999999998137,39,0,358.30000000074506,10,1,experiment,NA,NA,0,0.1,0.9,1,0,129,3,NA
fcp-trial,164,887144,0.0-139.0-0.0,voc_e2,12315,"[{""event"":""fullscreenenter"",""trial"":1,""time"":9400}]",NA,NA,NA,NA,NA,0,#FA92F8,#1CD855,0,10,1,38,1,950.7000000001863,37,1,638.3999999994412,0,1,experiment,NA,NA,2,0.5,0.5,4,5,130,3,NA
fcp-trial,165,890167,0.0-140.0-0.0,voc_e2,12315,"[{""event"":""fullscreenenter"",""trial"":1,""time"":9400}]",NA,NA,NA,NA,NA,6,#D8271C,#741CD8,0,10,0,38,1,768.5,39,0,744.8000000007451,10,1,experiment,NA,NA,0,0.1,0.9,1,0,131,3,NA
fcp-trial,166,893911,0.0-141.0-0.0,voc_e2,12315,"[{""event"":""fullscreenenter"",""trial"":1,""time"":9400}]",NA,NA,NA,NA,NA,6,#1CD855,#FA92F8,0,10,0,38,1,1213.5,37,1,1020,0,0,experiment,NA,NA,2,0.5,0.5,5,4,132,3,NA
fcp-trial,167,897070,0.0-142.0-0.0,voc_e2,12315,"[{""event"":""fullscreenenter"",""trial"":1,""time"":9400}]",NA,NA,NA,NA,NA,0,#D89F1C,#3386FF,0,10,0,38,1,1141.9000000003725,39,0,509,10,1,experiment,NA,NA,1,0.3,0.7,3,2,133,3,NA
fcp-trial,168,900770,0.0-143.0-0.0,voc_e2,12315,"[{""event"":""fullscreenenter"",""trial"":1,""time"":9400}]",NA,NA,NA,NA,NA,3,#D8271C,#741CD8,10,0,0,38,1,1388.4000000003725,39,0,799.5999999996275,0,1,experiment,NA,NA,0,0.1,0.9,1,0,134,3,NA
fcp-trial,169,903845,0.0-144.0-0.0,voc_e2,12315,"[{""event"":""fullscreenenter"",""trial"":1,""time"":9400}]",NA,NA,NA,NA,NA,1,#741CD8,#D8271C,10,0,1,38,1,1077.300000000745,37,1,487,10,1,experiment,NA,NA,0,0.9,0.1,0,1,135,3,NA
fcp-trial,170,906798,0.0-145.0-0.0,voc_e2,12315,"[{""event"":""fullscreenenter"",""trial"":1,""time"":9400}]",NA,NA,NA,NA,NA,5,#FA92F8,#1CD855,10,0,1,38,1,799.4000000003725,39,0,639.8999999994412,0,0,experiment,NA,NA,2,0.5,0.5,4,5,136,4,NA
fcp-trial,171,910670,0.0-146.0-0.0,voc_e2,12315,"[{""event"":""fullscreenenter"",""trial"":1,""time"":9400}]",NA,NA,NA,NA,NA,3,#3386FF,#D89F1C,10,0,1,40,0,1834.5999999996275,37,1,526.2000000001863,10,1,experiment,NA,NA,1,0.7,0.3,2,3,137,4,NA
fcp-trial,172,913920,0.0-147.0-0.0,voc_e2,12315,"[{""event"":""fullscreenenter"",""trial"":1,""time"":9400}]",NA,NA,NA,NA,NA,3,#FA92F8,#1CD855,10,10,1,40,0,1201.2000000001863,37,1,539.7999999998137,10,1,experiment,NA,NA,2,0.5,0.5,4,5,138,4,NA
fcp-trial,173,917568,0.0-148.0-0.0,voc_e2,12315,"[{""event"":""fullscreenenter"",""trial"":1,""time"":9400}]",NA,NA,NA,NA,NA,1,#D89F1C,#3386FF,0,10,0,40,0,1567.0999999996275,39,0,570.4000000003725,10,1,experiment,NA,NA,1,0.3,0.7,3,2,139,4,NA
fcp-trial,174,920918,0.0-149.0-0.0,voc_e2,12315,"[{""event"":""fullscreenenter"",""trial"":1,""time"":9400}]",NA,NA,NA,NA,NA,4,#D8271C,#741CD8,0,10,0,38,1,1234,39,0,608.1000000005588,10,1,experiment,NA,NA,0,0.1,0.9,1,0,140,4,NA
fcp-trial,175,924278,0.0-150.0-0.0,voc_e2,12315,"[{""event"":""fullscreenenter"",""trial"":1,""time"":9400}]",NA,NA,NA,NA,NA,2,#3386FF,#D89F1C,0,0,1,40,0,1324.2999999998137,39,0,524.3999999994412,0,0,experiment,NA,NA,1,0.7,0.3,2,3,141,4,NA
fcp-trial,176,928686,0.0-151.0-0.0,voc_e2,12315,"[{""event"":""fullscreenenter"",""trial"":1,""time"":9400}]",NA,NA,NA,NA,NA,2,#FA92F8,#1CD855,10,10,1,40,0,2381.4000000003725,37,1,516.4000000003725,10,1,experiment,NA,NA,2,0.5,0.5,4,5,142,4,NA
fcp-trial,177,933870,0.0-152.0-0.0,voc_e2,12315,"[{""event"":""fullscreenenter"",""trial"":1,""time"":9400}]",NA,NA,NA,NA,NA,1,#1CD855,#FA92F8,10,10,0,38,1,3402.899999999441,39,0,271.79999999981374,10,1,experiment,NA,NA,2,0.5,0.5,5,4,143,4,NA
fcp-trial,178,938200,0.0-153.0-0.0,voc_e2,12315,"[{""event"":""fullscreenenter"",""trial"":1,""time"":9400}]",NA,NA,NA,NA,NA,2,#741CD8,#D8271C,10,0,1,38,1,2542.699999999255,37,1,272.29999999981374,10,1,experiment,NA,NA,0,0.9,0.1,0,1,144,4,NA
fcp-trial,179,941781,0.0-154.0-0.0,voc_e2,12315,"[{""event"":""fullscreenenter"",""trial"":1,""time"":9400}]",NA,NA,NA,NA,NA,4,#3386FF,#D89F1C,10,0,1,40,0,1565.7000000001863,37,1,504.70000000018626,10,1,experiment,NA,NA,1,0.7,0.3,2,3,145,4,NA
fcp-trial,180,945332,0.0-155.0-0.0,voc_e2,12315,"[{""event"":""fullscreenenter"",""trial"":1,""time"":9400}]",NA,NA,NA,NA,NA,4,#1CD855,#FA92F8,0,10,0,40,0,1490.2000000001863,37,1,551.2000000001863,0,0,experiment,NA,NA,2,0.5,0.5,5,4,146,4,NA
fcp-trial,181,950450,0.0-156.0-0.0,voc_e2,12315,"[{""event"":""fullscreenenter"",""trial"":1,""time"":9400}]",NA,NA,NA,NA,NA,5,#D8271C,#741CD8,0,10,0,40,0,3071.7000000001863,37,1,539.5,0,0,experiment,NA,NA,0,0.1,0.9,1,0,147,4,NA
fcp-trial,182,953322,0.0-157.0-0.0,voc_e2,12315,"[{""event"":""fullscreenenter"",""trial"":1,""time"":9400}]",NA,NA,NA,NA,NA,0,#1CD855,#FA92F8,0,10,0,38,1,782.2999999998137,39,0,578.4000000003725,10,1,experiment,NA,NA,2,0.5,0.5,5,4,148,4,NA
fcp-trial,183,956026,0.0-158.0-0.0,voc_e2,12315,"[{""event"":""fullscreenenter"",""trial"":1,""time"":9400}]",NA,NA,NA,NA,NA,0,#D8271C,#741CD8,0,10,0,38,1,821.7000000001863,39,0,371.5,10,1,experiment,NA,NA,0,0.1,0.9,1,0,149,4,NA
fcp-trial,184,959824,0.0-159.0-0.0,voc_e2,12315,"[{""event"":""fullscreenenter"",""trial"":1,""time"":9400}]",NA,NA,NA,NA,NA,4,#D89F1C,#3386FF,0,10,0,40,0,1806.5,39,0,481.3999999994412,10,1,experiment,NA,NA,1,0.3,0.7,3,2,150,4,NA
fcp-trial,185,964062,0.0-160.0-0.0,voc_e2,12315,"[{""event"":""fullscreenenter"",""trial"":1,""time"":9400}]",NA,NA,NA,NA,NA,6,#741CD8,#D8271C,10,0,1,40,0,1971.7000000001863,39,0,755.7000000001863,0,0,experiment,NA,NA,0,0.9,0.1,0,1,151,4,NA
fcp-trial,186,967005,0.0-161.0-0.0,voc_e2,12315,"[{""event"":""fullscreenenter"",""trial"":1,""time"":9400}]",NA,NA,NA,NA,NA,2,#3386FF,#D89F1C,10,10,1,38,1,923.7000000001863,37,1,508.4000000003726,10,1,experiment,NA,NA,1,0.7,0.3,2,3,152,4,NA
fcp-trial,187,970151,0.0-162.0-0.0,voc_e2,12315,"[{""event"":""fullscreenenter"",""trial"":1,""time"":9400}]",NA,NA,NA,NA,NA,3,#FA92F8,#1CD855,0,10,1,38,1,1009.0999999996275,39,0,628.6000000005588,10,0,experiment,NA,NA,2,0.5,0.5,4,5,153,4,NA
fcp-trial,188,973958,0.0-163.0-0.0,voc_e2,12315,"[{""event"":""fullscreenenter"",""trial"":1,""time"":9400}]",NA,NA,NA,NA,NA,4,#1CD855,#FA92F8,0,0,0,40,0,1698,39,0,595.0999999996275,0,1,experiment,NA,NA,2,0.5,0.5,5,4,154,4,NA
fcp-trial,189,977975,0.0-164.0-0.0,voc_e2,12315,"[{""event"":""fullscreenenter"",""trial"":1,""time"":9400}]",NA,NA,NA,NA,NA,5,#D8271C,#741CD8,0,10,0,38,1,2235.9000000003725,39,0,273.09999999962747,10,1,experiment,NA,NA,0,0.1,0.9,1,0,155,4,NA
fcp-trial,190,981735,0.0-165.0-0.0,voc_e2,12315,"[{""event"":""fullscreenenter"",""trial"":1,""time"":9400}]",NA,NA,NA,NA,NA,5,#FA92F8,#1CD855,0,10,1,38,1,1638,37,1,614.7000000001863,0,1,experiment,NA,NA,2,0.5,0.5,4,5,156,4,NA
fcp-trial,191,985000,0.0-166.0-0.0,voc_e2,12315,"[{""event"":""fullscreenenter"",""trial"":1,""time"":9400}]",NA,NA,NA,NA,NA,1,#D89F1C,#3386FF,10,0,0,38,1,1154.5999999996275,39,0,596.3999999994412,0,1,experiment,NA,NA,1,0.3,0.7,3,2,157,4,NA
fcp-trial,192,988042,0.0-167.0-0.0,voc_e2,12315,"[{""event"":""fullscreenenter"",""trial"":1,""time"":9400}]",NA,NA,NA,NA,NA,6,#3386FF,#D89F1C,0,10,1,38,1,918.5,37,1,612.2999999998137,0,1,experiment,NA,NA,1,0.7,0.3,2,3,158,4,NA
fcp-trial,193,990727,0.0-168.0-0.0,voc_e2,12315,"[{""event"":""fullscreenenter"",""trial"":1,""time"":9400}]",NA,NA,NA,NA,NA,2,#741CD8,#D8271C,10,0,1,38,1,696.0999999996275,37,1,479.70000000018626,10,1,experiment,NA,NA,0,0.9,0.1,0,1,159,4,NA
fcp-trial,194,993584,0.0-169.0-0.0,voc_e2,12315,"[{""event"":""fullscreenenter"",""trial"":1,""time"":9400}]",NA,NA,NA,NA,NA,2,#1CD855,#FA92F8,10,10,0,38,1,736,39,0,609.2000000001863,10,1,experiment,NA,NA,2,0.5,0.5,5,4,160,4,NA
fcp-trial,195,996870,0.0-170.0-0.0,voc_e2,12315,"[{""event"":""fullscreenenter"",""trial"":1,""time"":9400}]",NA,NA,NA,NA,NA,3,#3386FF,#D89F1C,0,10,1,40,0,1281.2000000001863,37,1,492.9000000003726,0,1,experiment,NA,NA,1,0.7,0.3,2,3,161,4,NA
fcp-trial,196,999841,0.0-171.0-0.0,voc_e2,12315,"[{""event"":""fullscreenenter"",""trial"":1,""time"":9400}]",NA,NA,NA,NA,NA,0,#3386FF,#D89F1C,10,0,1,38,1,935.2000000001863,39,0,526.6000000005588,0,0,experiment,NA,NA,1,0.7,0.3,2,3,162,4,NA
fcp-trial,197,1002628,0.0-172.0-0.0,voc_e2,12315,"[{""event"":""fullscreenenter"",""trial"":1,""time"":9400}]",NA,NA,NA,NA,NA,1,#FA92F8,#1CD855,10,10,1,38,1,754.6999999992549,39,0,521,10,0,experiment,NA,NA,2,0.5,0.5,4,5,163,4,NA
fcp-trial,198,1006000,0.0-173.0-0.0,voc_e2,12315,"[{""event"":""fullscreenenter"",""trial"":1,""time"":9400}]",NA,NA,NA,NA,NA,4,#741CD8,#D8271C,10,0,1,38,1,1415.3999999994412,37,1,446.69999999925494,10,1,experiment,NA,NA,0,0.9,0.1,0,1,164,4,NA
fcp-trial,199,1009084,0.0-174.0-0.0,voc_e2,12315,"[{""event"":""fullscreenenter"",""trial"":1,""time"":9400}]",NA,NA,NA,NA,NA,5,#D89F1C,#3386FF,0,10,0,38,1,1036,39,0,540.6000000005588,10,1,experiment,NA,NA,1,0.3,0.7,3,2,165,4,NA
fcp-trial,200,1012001,0.0-175.0-0.0,voc_e2,12315,"[{""event"":""fullscreenenter"",""trial"":1,""time"":9400}]",NA,NA,NA,NA,NA,1,#D8271C,#741CD8,10,10,0,38,1,838.9000000003725,39,0,571,10,1,experiment,NA,NA,0,0.1,0.9,1,0,166,4,NA
fcp-trial,201,1014894,0.0-176.0-0.0,voc_e2,12315,"[{""event"":""fullscreenenter"",""trial"":1,""time"":9400}]",NA,NA,NA,NA,NA,6,#FA92F8,#1CD855,0,10,1,38,1,561.9000000003725,37,1,820.3999999994412,0,1,experiment,NA,NA,2,0.5,0.5,4,5,167,4,NA
fcp-trial,202,1017659,0.0-177.0-0.0,voc_e2,12315,"[{""event"":""fullscreenenter"",""trial"":1,""time"":9400}]",NA,NA,NA,NA,NA,3,#D8271C,#741CD8,0,10,0,38,1,471.29999999981374,39,0,785.7000000001863,10,1,experiment,NA,NA,0,0.1,0.9,1,0,168,4,NA
fcp-trial,203,1021261,0.0-178.0-0.0,voc_e2,12315,"[{""event"":""fullscreenenter"",""trial"":1,""time"":9400}]",NA,NA,NA,NA,NA,6,#D8271C,#741CD8,0,10,0,38,1,1124,37,1,967.5999999996276,0,0,experiment,NA,NA,0,0.1,0.9,1,0,169,4,NA
fcp-trial,204,1024477,0.0-179.0-0.0,voc_e2,12315,"[{""event"":""fullscreenenter"",""trial"":1,""time"":9400}]",NA,NA,NA,NA,NA,1,#3386FF,#D89F1C,10,0,1,38,1,811.5999999996275,39,0,895.5,0,0,experiment,NA,NA,1,0.7,0.3,2,3,170,4,NA
fcp-trial,205,1028258,0.0-180.0-0.0,voc_e2,12315,"[{""event"":""fullscreenenter"",""trial"":1,""time"":9400}]",NA,NA,NA,NA,NA,6,#1CD855,#FA92F8,10,10,0,40,0,1411.2000000001863,39,0,859.8999999994412,10,1,experiment,NA,NA,2,0.5,0.5,5,4,171,4,NA
fcp-trial,206,1032653,0.0-181.0-0.0,voc_e2,12315,"[{""event"":""fullscreenenter"",""trial"":1,""time"":9400}]",NA,NA,NA,NA,NA,0,#3386FF,#D89F1C,10,0,1,38,1,1644.5,37,1,1242.3999999994412,10,1,experiment,NA,NA,1,0.7,0.3,2,3,172,4,NA
fcp-trial,207,1036458,0.0-182.0-0.0,voc_e2,12315,"[{""event"":""fullscreenenter"",""trial"":1,""time"":9400}]",NA,NA,NA,NA,NA,5,#D8271C,#741CD8,0,10,0,38,1,1297.2000000001863,39,0,994.5,10,1,experiment,NA,NA,0,0.1,0.9,1,0,173,4,NA
fcp-trial,208,1040197,0.0-183.0-0.0,voc_e2,12315,"[{""event"":""fullscreenenter"",""trial"":1,""time"":9400}]",NA,NA,NA,NA,NA,0,#D8271C,#741CD8,0,10,0,38,1,1176.5,37,1,1051.5,0,0,experiment,NA,NA,0,0.1,0.9,1,0,174,4,NA
fcp-trial,209,1042986,0.0-184.0-0.0,voc_e2,12315,"[{""event"":""fullscreenenter"",""trial"":1,""time"":9400}]",NA,NA,NA,NA,NA,3,#741CD8,#D8271C,10,0,1,38,1,891.4000000003725,37,1,382.70000000018626,10,1,experiment,NA,NA,0,0.9,0.1,0,1,175,4,NA
fcp-trial,210,1046131,0.0-185.0-0.0,voc_e2,12315,"[{""event"":""fullscreenenter"",""trial"":1,""time"":9400}]",NA,NA,NA,NA,NA,2,#FA92F8,#1CD855,10,0,1,38,1,1260.8999999994412,39,0,371.9000000003726,0,0,experiment,NA,NA,2,0.5,0.5,4,5,176,4,NA
fcp-trial,211,1048746,0.0-186.0-0.0,voc_e2,12315,"[{""event"":""fullscreenenter"",""trial"":1,""time"":9400}]",NA,NA,NA,NA,NA,4,#3386FF,#D89F1C,0,0,1,38,1,791.7999999998137,37,1,310.5,0,1,experiment,NA,NA,1,0.7,0.3,2,3,177,4,NA
fcp-trial,212,1052034,0.0-187.0-0.0,voc_e2,12315,"[{""event"":""fullscreenenter"",""trial"":1,""time"":9400}]",NA,NA,NA,NA,NA,4,#FA92F8,#1CD855,10,10,1,40,0,1288.1000000005588,37,1,487.3999999994412,10,1,experiment,NA,NA,2,0.5,0.5,4,5,178,4,NA
fcp-trial,213,1054933,0.0-188.0-0.0,voc_e2,12315,"[{""event"":""fullscreenenter"",""trial"":1,""time"":9400}]",NA,NA,NA,NA,NA,1,#D8271C,#741CD8,0,10,0,38,1,1065.5999999996275,39,0,325.20000000018626,10,1,experiment,NA,NA,0,0.1,0.9,1,0,179,4,NA
fcp-trial,214,1058587,0.0-189.0-0.0,voc_e2,12315,"[{""event"":""fullscreenenter"",""trial"":1,""time"":9400}]",NA,NA,NA,NA,NA,5,#FA92F8,#1CD855,0,0,1,40,0,1604.7999999998137,39,0,538.9000000003725,0,0,experiment,NA,NA,2,0.5,0.5,4,5,180,4,NA
fcp-trial,215,1062221,0.0-190.0-0.0,voc_e2,12315,"[{""event"":""fullscreenenter"",""trial"":1,""time"":9400}]",NA,NA,NA,NA,NA,5,#D89F1C,#3386FF,10,10,0,38,1,1505.1000000005588,39,0,622.5,10,1,experiment,NA,NA,1,0.3,0.7,3,2,181,5,NA
fcp-trial,216,1065240,0.0-191.0-0.0,voc_e2,12315,"[{""event"":""fullscreenenter"",""trial"":1,""time"":9400}]",NA,NA,NA,NA,NA,4,#741CD8,#D8271C,10,0,1,38,1,1235.6000000005588,37,1,272,10,1,experiment,NA,NA,0,0.9,0.1,0,1,182,5,NA
fcp-trial,217,1068271,0.0-192.0-0.0,voc_e2,12315,"[{""event"":""fullscreenenter"",""trial"":1,""time"":9400}]",NA,NA,NA,NA,NA,3,#FA92F8,#1CD855,10,0,1,38,1,1121.6000000005588,39,0,396.5,0,0,experiment,NA,NA,2,0.5,0.5,4,5,183,5,NA
fcp-trial,218,1070838,0.0-193.0-0.0,voc_e2,12315,"[{""event"":""fullscreenenter"",""trial"":1,""time"":9400}]",NA,NA,NA,NA,NA,0,#FA92F8,#1CD855,0,10,1,38,1,636.1999999992549,37,1,421.79999999981374,0,1,experiment,NA,NA,2,0.5,0.5,4,5,184,5,NA
fcp-trial,219,1074843,0.0-194.0-0.0,voc_e2,12315,"[{""event"":""fullscreenenter"",""trial"":1,""time"":9400}]",NA,NA,NA,NA,NA,2,#3386FF,#D89F1C,0,0,1,38,1,1533.9000000003725,37,1,959.5999999996276,0,1,experiment,NA,NA,1,0.7,0.3,2,3,185,5,NA
fcp-trial,220,1077332,0.0-195.0-0.0,voc_e2,12315,"[{""event"":""fullscreenenter"",""trial"":1,""time"":9400}]",NA,NA,NA,NA,NA,2,#741CD8,#D8271C,10,0,1,38,1,523.2999999998137,37,1,458.9000000003726,10,1,experiment,NA,NA,0,0.9,0.1,0,1,186,5,NA
fcp-trial,221,1079986,0.0-196.0-0.0,voc_e2,12315,"[{""event"":""fullscreenenter"",""trial"":1,""time"":9400}]",NA,NA,NA,NA,NA,6,#3386FF,#D89F1C,10,10,1,38,1,572.7000000001863,37,1,566.4000000003725,10,1,experiment,NA,NA,1,0.7,0.3,2,3,187,5,NA
fcp-trial,222,1083228,0.0-197.0-0.0,voc_e2,12315,"[{""event"":""fullscreenenter"",""trial"":1,""time"":9400}]",NA,NA,NA,NA,NA,1,#1CD855,#FA92F8,0,0,0,38,1,1353.7000000001863,39,0,376.5999999996274,0,1,experiment,NA,NA,2,0.5,0.5,5,4,188,5,NA
fcp-trial,223,1086535,0.0-198.0-0.0,voc_e2,12315,"[{""event"":""fullscreenenter"",""trial"":1,""time"":9400}]",NA,NA,NA,NA,NA,3,#D89F1C,#3386FF,0,10,0,38,1,1231.3999999994412,39,0,565,10,1,experiment,NA,NA,1,0.3,0.7,3,2,189,5,NA
fcp-trial,224,1090106,0.0-199.0-0.0,voc_e2,12315,"[{""event"":""fullscreenenter"",""trial"":1,""time"":9400}]",NA,NA,NA,NA,NA,6,#D89F1C,#3386FF,10,10,0,38,1,1231.8999999994412,39,0,828.6999999992549,10,1,experiment,NA,NA,1,0.3,0.7,3,2,190,5,NA
fcp-trial,225,1092859,0.0-200.0-0.0,voc_e2,12315,"[{""event"":""fullscreenenter"",""trial"":1,""time"":9400}]",NA,NA,NA,NA,NA,5,#D8271C,#741CD8,0,10,0,38,1,825.2999999998137,39,0,417.79999999981374,10,1,experiment,NA,NA,0,0.1,0.9,1,0,191,5,NA
fcp-trial,226,1097007,0.0-201.0-0.0,voc_e2,12315,"[{""event"":""fullscreenenter"",""trial"":1,""time"":9400}]",NA,NA,NA,NA,NA,3,#D89F1C,#3386FF,0,10,0,38,1,1970.199999999255,39,0,669.0999999996275,10,1,experiment,NA,NA,1,0.3,0.7,3,2,192,5,NA
fcp-trial,227,1101109,0.0-202.0-0.0,voc_e2,12315,"[{""event"":""fullscreenenter"",""trial"":1,""time"":9400}]",NA,NA,NA,NA,NA,5,#FA92F8,#1CD855,0,0,1,40,0,1990.5,39,0,601.1000000005588,0,0,experiment,NA,NA,2,0.5,0.5,4,5,193,5,NA
fcp-trial,228,1104731,0.0-203.0-0.0,voc_e2,12315,"[{""event"":""fullscreenenter"",""trial"":1,""time"":9400}]",NA,NA,NA,NA,NA,1,#3386FF,#D89F1C,10,10,1,38,1,1532.699999999255,37,1,580.2999999998137,10,1,experiment,NA,NA,1,0.7,0.3,2,3,194,5,NA
fcp-trial,229,1107828,0.0-204.0-0.0,voc_e2,12315,"[{""event"":""fullscreenenter"",""trial"":1,""time"":9400}]",NA,NA,NA,NA,NA,3,#D8271C,#741CD8,0,0,0,40,0,1076.8999999994412,39,0,508.19999999925494,0,1,experiment,NA,NA,0,0.1,0.9,1,0,195,5,NA
fcp-trial,230,1115011,0.0-205.0-0.0,voc_e2,12315,"[{""event"":""fullscreenenter"",""trial"":1,""time"":9400}]",NA,NA,NA,NA,NA,3,#FA92F8,#1CD855,10,10,1,38,1,4816.299999999814,37,1,856.8000000007451,10,1,experiment,NA,NA,2,0.5,0.5,4,5,196,5,NA
fcp-trial,231,1118735,0.0-206.0-0.0,voc_e2,12315,"[{""event"":""fullscreenenter"",""trial"":1,""time"":9400}]",NA,NA,NA,NA,NA,4,#1CD855,#FA92F8,10,0,0,40,0,1470.5999999996275,37,1,739.2000000001863,10,0,experiment,NA,NA,2,0.5,0.5,5,4,197,5,NA
fcp-trial,232,1122820,0.0-207.0-0.0,voc_e2,12315,"[{""event"":""fullscreenenter"",""trial"":1,""time"":9400}]",NA,NA,NA,NA,NA,2,#D89F1C,#3386FF,0,10,0,38,1,1405.9000000003725,39,0,1171.0999999996277,10,1,experiment,NA,NA,1,0.3,0.7,3,2,198,5,NA
fcp-trial,233,1126537,0.0-208.0-0.0,voc_e2,12315,"[{""event"":""fullscreenenter"",""trial"":1,""time"":9400}]",NA,NA,NA,NA,NA,1,#1CD855,#FA92F8,0,0,0,38,1,1666.2000000001863,39,0,542.8000000007451,0,1,experiment,NA,NA,2,0.5,0.5,5,4,199,5,NA
fcp-trial,234,1129570,0.0-209.0-0.0,voc_e2,12315,"[{""event"":""fullscreenenter"",""trial"":1,""time"":9400}]",NA,NA,NA,NA,NA,4,#741CD8,#D8271C,10,10,1,38,1,960.4000000003725,37,1,560.4000000003725,10,1,experiment,NA,NA,0,0.9,0.1,0,1,200,5,NA
fcp-trial,235,1133241,0.0-210.0-0.0,voc_e2,12315,"[{""event"":""fullscreenenter"",""trial"":1,""time"":9400}]",NA,NA,NA,NA,NA,0,#D8271C,#741CD8,0,10,0,38,1,1618.2000000001863,39,0,544.0999999996275,10,1,experiment,NA,NA,0,0.1,0.9,1,0,201,5,NA
fcp-trial,236,1137481,0.0-211.0-0.0,voc_e2,12315,"[{""event"":""fullscreenenter"",""trial"":1,""time"":9400}]",NA,NA,NA,NA,NA,6,#FA92F8,#1CD855,0,0,1,38,1,860.7999999998137,39,0,1866.2999999998135,0,0,experiment,NA,NA,2,0.5,0.5,4,5,202,5,NA
fcp-trial,237,1140477,0.0-212.0-0.0,voc_e2,12315,"[{""event"":""fullscreenenter"",""trial"":1,""time"":9400}]",NA,NA,NA,NA,NA,0,#D89F1C,#3386FF,0,10,0,38,1,1080.5,39,0,405.70000000018626,10,1,experiment,NA,NA,1,0.3,0.7,3,2,203,5,NA
fcp-trial,238,1143497,0.0-213.0-0.0,voc_e2,12315,"[{""event"":""fullscreenenter"",""trial"":1,""time"":9400}]",NA,NA,NA,NA,NA,6,#741CD8,#D8271C,0,0,1,38,1,962.7000000001863,37,1,548.7999999998137,0,1,experiment,NA,NA,0,0.9,0.1,0,1,204,5,NA
fcp-trial,239,1147458,0.0-214.0-0.0,voc_e2,12315,"[{""event"":""fullscreenenter"",""trial"":1,""time"":9400}]",NA,NA,NA,NA,NA,2,#741CD8,#D8271C,10,0,1,38,1,1916.2000000001863,39,0,533.1999999992549,0,0,experiment,NA,NA,0,0.9,0.1,0,1,205,5,NA
fcp-trial,240,1152727,0.0-215.0-0.0,voc_e2,12315,"[{""event"":""fullscreenenter"",""trial"":1,""time"":9400}]",NA,NA,NA,NA,NA,2,#1CD855,#FA92F8,10,10,0,38,1,3028.100000000559,37,1,731.3999999994412,10,0,experiment,NA,NA,2,0.5,0.5,5,4,206,5,NA
fcp-trial,241,1156049,0.0-216.0-0.0,voc_e2,12315,"[{""event"":""fullscreenenter"",""trial"":1,""time"":9400}]",NA,NA,NA,NA,NA,4,#D89F1C,#3386FF,10,10,0,40,0,1212.7999999998137,39,0,601,10,1,experiment,NA,NA,1,0.3,0.7,3,2,207,5,NA
fcp-trial,242,1159677,0.0-217.0-0.0,voc_e2,12315,"[{""event"":""fullscreenenter"",""trial"":1,""time"":9400}]",NA,NA,NA,NA,NA,1,#741CD8,#D8271C,10,0,1,38,1,1505.7000000001863,37,1,611,10,1,experiment,NA,NA,0,0.9,0.1,0,1,208,5,NA
fcp-trial,243,1163152,0.0-218.0-0.0,voc_e2,12315,"[{""event"":""fullscreenenter"",""trial"":1,""time"":9400}]",NA,NA,NA,NA,NA,0,#FA92F8,#1CD855,0,10,1,38,1,1429.3999999994412,39,0,537.7999999998137,10,0,experiment,NA,NA,2,0.5,0.5,4,5,209,5,NA
fcp-trial,244,1166871,0.0-219.0-0.0,voc_e2,12315,"[{""event"":""fullscreenenter"",""trial"":1,""time"":9400}]",NA,NA,NA,NA,NA,5,#D89F1C,#3386FF,0,10,0,38,1,1856.800000000745,39,0,349.69999999925494,10,1,experiment,NA,NA,1,0.3,0.7,3,2,210,5,NA
audio-instructions,245,1211183,0.0-220.0,voc_e2,12315,"[{""event"":""fullscreenenter"",""trial"":1,""time"":9400}]",NA,39109.59999999963,static/audio/pause.wav,NA,0,NA,NA,NA,NA,NA,NA,NA,NA,NA,NA,NA,NA,NA,NA,NA,NA,NA,NA,NA,NA,NA,NA,NA,NA,NA
fcp-trial,246,1214986,0.0-221.0-0.0,voc_e2,12315,"[{""event"":""fullscreenenter"",""trial"":1,""time"":9400}]",NA,NA,NA,NA,NA,3,#1CD855,#FA92F8,10,0,0,38,1,1810,37,1,481.1000000014901,10,0,experiment,NA,NA,2,0.5,0.5,5,4,211,5,NA
fcp-trial,247,1217677,0.0-222.0-0.0,voc_e2,12315,"[{""event"":""fullscreenenter"",""trial"":1,""time"":9400}]",NA,NA,NA,NA,NA,2,#741CD8,#D8271C,10,0,1,38,1,877.7999999988824,37,1,300.40000000037253,10,1,experiment,NA,NA,0,0.9,0.1,0,1,212,5,NA
fcp-trial,248,1220135,0.0-223.0-0.0,voc_e2,12315,"[{""event"":""fullscreenenter"",""trial"":1,""time"":9400}]",NA,NA,NA,NA,NA,5,#D89F1C,#3386FF,0,10,0,38,1,671.1999999992549,39,0,277.80000000074506,10,1,experiment,NA,NA,1,0.3,0.7,3,2,213,5,NA
fcp-trial,249,1222731,0.0-224.0-0.0,voc_e2,12315,"[{""event"":""fullscreenenter"",""trial"":1,""time"":9400}]",NA,NA,NA,NA,NA,4,#D89F1C,#3386FF,0,10,0,38,1,647.5,39,0,435.7999999988824,10,1,experiment,NA,NA,1,0.3,0.7,3,2,214,5,NA
fcp-trial,250,1225091,0.0-225.0-0.0,voc_e2,12315,"[{""event"":""fullscreenenter"",""trial"":1,""time"":9400}]",NA,NA,NA,NA,NA,4,#D8271C,#741CD8,0,10,0,38,1,596,39,0,251.90000000037253,10,1,experiment,NA,NA,0,0.1,0.9,1,0,215,5,NA
fcp-trial,251,1228260,0.0-226.0-0.0,voc_e2,12315,"[{""event"":""fullscreenenter"",""trial"":1,""time"":9400}]",NA,NA,NA,NA,NA,6,#FA92F8,#1CD855,10,10,1,40,0,824.5,39,0,836.3000000007451,10,0,experiment,NA,NA,2,0.5,0.5,4,5,216,5,NA
fcp-trial,252,1231433,0.0-227.0-0.0,voc_e2,12315,"[{""event"":""fullscreenenter"",""trial"":1,""time"":9400}]",NA,NA,NA,NA,NA,0,#D8271C,#741CD8,0,10,0,38,1,776.4000000003725,39,0,887.5,10,1,experiment,NA,NA,0,0.1,0.9,1,0,217,5,NA
fcp-trial,253,1234649,0.0-228.0-0.0,voc_e2,12315,"[{""event"":""fullscreenenter"",""trial"":1,""time"":9400}]",NA,NA,NA,NA,NA,1,#741CD8,#D8271C,10,0,1,38,1,1332.5,37,1,370.8999999985099,10,1,experiment,NA,NA,0,0.9,0.1,0,1,218,5,NA
fcp-trial,254,1237545,0.0-229.0-0.0,voc_e2,12315,"[{""event"":""fullscreenenter"",""trial"":1,""time"":9400}]",NA,NA,NA,NA,NA,2,#3386FF,#D89F1C,0,0,1,38,1,961.4000000003725,39,0,420.5,0,0,experiment,NA,NA,1,0.7,0.3,2,3,219,5,NA
fcp-trial,255,1240417,0.0-230.0-0.0,voc_e2,12315,"[{""event"":""fullscreenenter"",""trial"":1,""time"":9400}]",NA,NA,NA,NA,NA,2,#1CD855,#FA92F8,10,0,0,38,1,947.8000000007451,37,1,416,10,0,experiment,NA,NA,2,0.5,0.5,5,4,220,5,NA
fcp-trial,256,1244001,0.0-231.0-0.0,voc_e2,12315,"[{""event"":""fullscreenenter"",""trial"":1,""time"":9400}]",NA,NA,NA,NA,NA,6,#D89F1C,#3386FF,0,10,0,40,0,1406.5,37,1,666.1999999992549,0,0,experiment,NA,NA,1,0.3,0.7,3,2,221,5,NA
fcp-trial,257,1246906,0.0-232.0-0.0,voc_e2,12315,"[{""event"":""fullscreenenter"",""trial"":1,""time"":9400}]",NA,NA,NA,NA,NA,0,#1CD855,#FA92F8,0,0,0,38,1,887.3000000007451,39,0,505.0999999996274,0,1,experiment,NA,NA,2,0.5,0.5,5,4,222,5,NA
fcp-trial,258,1250157,0.0-233.0-0.0,voc_e2,12315,"[{""event"":""fullscreenenter"",""trial"":1,""time"":9400}]",NA,NA,NA,NA,NA,6,#741CD8,#D8271C,10,0,1,40,0,1239.5,37,1,500,10,1,experiment,NA,NA,0,0.9,0.1,0,1,223,5,NA
fcp-trial,259,1253297,0.0-234.0-0.0,voc_e2,12315,"[{""event"":""fullscreenenter"",""trial"":1,""time"":9400}]",NA,NA,NA,NA,NA,5,#1CD855,#FA92F8,10,10,0,38,1,1126.4000000003725,39,0,502.19999999925494,10,1,experiment,NA,NA,2,0.5,0.5,5,4,224,5,NA
fcp-trial,260,1256202,0.0-235.0-0.0,voc_e2,12315,"[{""event"":""fullscreenenter"",""trial"":1,""time"":9400}]",NA,NA,NA,NA,NA,3,#D89F1C,#3386FF,0,10,0,38,1,964.1000000014901,39,0,430,10,1,experiment,NA,NA,1,0.3,0.7,3,2,225,5,NA
fcp-trial,261,1259900,0.0-236.0-0.0,voc_e2,12315,"[{""event"":""fullscreenenter"",""trial"":1,""time"":9400}]",NA,NA,NA,NA,NA,5,#D8271C,#741CD8,0,0,0,38,1,1527.7000000011176,39,0,662.4000000003725,0,1,experiment,NA,NA,0,0.1,0.9,1,0,226,6,NA
fcp-trial,262,1263545,0.0-237.0-0.0,voc_e2,12315,"[{""event"":""fullscreenenter"",""trial"":1,""time"":9400}]",NA,NA,NA,NA,NA,3,#741CD8,#D8271C,10,0,1,40,0,1631.5,39,0,502.30000000074506,0,0,experiment,NA,NA,0,0.9,0.1,0,1,227,6,NA
fcp-trial,263,1266371,0.0-238.0-0.0,voc_e2,12315,"[{""event"":""fullscreenenter"",""trial"":1,""time"":9400}]",NA,NA,NA,NA,NA,1,#FA92F8,#1CD855,10,0,1,38,1,920.3000000007451,37,1,394.8999999985099,10,1,experiment,NA,NA,2,0.5,0.5,4,5,228,6,NA
fcp-trial,264,1269138,0.0-239.0-0.0,voc_e2,12315,"[{""event"":""fullscreenenter"",""trial"":1,""time"":9400}]",NA,NA,NA,NA,NA,4,#1CD855,#FA92F8,0,0,0,38,1,887.4000000003725,39,0,371.2000000011176,0,1,experiment,NA,NA,2,0.5,0.5,5,4,229,6,NA
fcp-trial,265,1272294,0.0-240.0-0.0,voc_e2,12315,"[{""event"":""fullscreenenter"",""trial"":1,""time"":9400}]",NA,NA,NA,NA,NA,1,#D89F1C,#3386FF,0,0,0,38,1,1300.5999999996275,39,0,343.59999999962747,0,1,experiment,NA,NA,1,0.3,0.7,3,2,230,6,NA
fcp-trial,266,1275477,0.0-241.0-0.0,voc_e2,12315,"[{""event"":""fullscreenenter"",""trial"":1,""time"":9400}]",NA,NA,NA,NA,NA,0,#D89F1C,#3386FF,0,0,0,38,1,1370.3999999985099,39,0,300.59999999962747,0,1,experiment,NA,NA,1,0.3,0.7,3,2,231,6,NA
fcp-trial,267,1278931,0.0-242.0-0.0,voc_e2,12315,"[{""event"":""fullscreenenter"",""trial"":1,""time"":9400}]",NA,NA,NA,NA,NA,6,#FA92F8,#1CD855,10,10,1,40,0,1423.9000000003725,37,1,520.7000000011176,10,1,experiment,NA,NA,2,0.5,0.5,4,5,232,6,NA
fcp-trial,268,1281903,0.0-243.0-0.0,voc_e2,12315,"[{""event"":""fullscreenenter"",""trial"":1,""time"":9400}]",NA,NA,NA,NA,NA,0,#D8271C,#741CD8,0,0,0,38,1,855.5999999996275,39,0,606.8000000007451,0,1,experiment,NA,NA,0,0.1,0.9,1,0,233,6,NA
fcp-trial,269,1285403,0.0-244.0-0.0,voc_e2,12315,"[{""event"":""fullscreenenter"",""trial"":1,""time"":9400}]",NA,NA,NA,NA,NA,4,#FA92F8,#1CD855,0,10,1,38,1,1313.199999999255,37,1,674.9000000003725,0,1,experiment,NA,NA,2,0.5,0.5,4,5,234,6,NA
fcp-trial,270,1288747,0.0-245.0-0.0,voc_e2,12315,"[{""event"":""fullscreenenter"",""trial"":1,""time"":9400}]",NA,NA,NA,NA,NA,1,#3386FF,#D89F1C,0,0,1,38,1,1188.2999999988824,37,1,647.0999999996275,0,1,experiment,NA,NA,1,0.7,0.3,2,3,235,6,NA
fcp-trial,271,1291761,0.0-246.0-0.0,voc_e2,12315,"[{""event"":""fullscreenenter"",""trial"":1,""time"":9400}]",NA,NA,NA,NA,NA,2,#3386FF,#D89F1C,10,0,1,38,1,623.5,39,0,876,0,0,experiment,NA,NA,1,0.7,0.3,2,3,236,6,NA
fcp-trial,272,1294750,0.0-247.0-0.0,voc_e2,12315,"[{""event"":""fullscreenenter"",""trial"":1,""time"":9400}]",NA,NA,NA,NA,NA,2,#1CD855,#FA92F8,10,0,0,38,1,1096,37,1,381.5,10,0,experiment,NA,NA,2,0.5,0.5,5,4,237,6,NA
fcp-trial,273,1297439,0.0-248.0-0.0,voc_e2,12315,"[{""event"":""fullscreenenter"",""trial"":1,""time"":9400}]",NA,NA,NA,NA,NA,6,#D8271C,#741CD8,0,10,0,38,1,667.2000000011176,39,0,510.69999999925494,10,1,experiment,NA,NA,0,0.1,0.9,1,0,238,6,NA
fcp-trial,274,1300936,0.0-249.0-0.0,voc_e2,12315,"[{""event"":""fullscreenenter"",""trial"":1,""time"":9400}]",NA,NA,NA,NA,NA,3,#1CD855,#FA92F8,0,0,0,40,0,1468.4000000003725,39,0,520.2000000011176,0,1,experiment,NA,NA,2,0.5,0.5,5,4,239,6,NA
fcp-trial,275,1303858,0.0-250.0-0.0,voc_e2,12315,"[{""event"":""fullscreenenter"",""trial"":1,""time"":9400}]",NA,NA,NA,NA,NA,6,#D89F1C,#3386FF,0,0,0,40,0,836.3000000007451,39,0,574.5,0,1,experiment,NA,NA,1,0.3,0.7,3,2,240,6,NA
fcp-trial,276,1307384,0.0-251.0-0.0,voc_e2,12315,"[{""event"":""fullscreenenter"",""trial"":1,""time"":9400}]",NA,NA,NA,NA,NA,4,#3386FF,#D89F1C,10,10,1,40,0,1390.800000000745,37,1,621.5,10,1,experiment,NA,NA,1,0.7,0.3,2,3,241,6,NA
fcp-trial,277,1310239,0.0-252.0-0.0,voc_e2,12315,"[{""event"":""fullscreenenter"",""trial"":1,""time"":9400}]",NA,NA,NA,NA,NA,3,#741CD8,#D8271C,10,10,1,38,1,873.3000000007451,37,1,471.80000000074506,10,1,experiment,NA,NA,0,0.9,0.1,0,1,242,6,NA
fcp-trial,278,1313936,0.0-253.0-0.0,voc_e2,12315,"[{""event"":""fullscreenenter"",""trial"":1,""time"":9400}]",NA,NA,NA,NA,NA,1,#FA92F8,#1CD855,0,0,1,38,1,1677.2999999988824,39,0,509.7000000011176,0,0,experiment,NA,NA,2,0.5,0.5,4,5,243,6,NA
fcp-trial,279,1318252,0.0-254.0-0.0,voc_e2,12315,"[{""event"":""fullscreenenter"",""trial"":1,""time"":9400}]",NA,NA,NA,NA,NA,5,#1CD855,#FA92F8,10,0,0,38,1,2109.10000000149,39,0,696.5,0,1,experiment,NA,NA,2,0.5,0.5,5,4,244,6,NA
fcp-trial,280,1322389,0.0-255.0-0.0,voc_e2,12315,"[{""event"":""fullscreenenter"",""trial"":1,""time"":9400}]",NA,NA,NA,NA,NA,5,#D89F1C,#3386FF,10,10,0,40,0,1589.800000000745,37,1,1037,10,0,experiment,NA,NA,1,0.3,0.7,3,2,245,6,NA
fcp-trial,281,1326084,0.0-256.0-0.0,voc_e2,12315,"[{""event"":""fullscreenenter"",""trial"":1,""time"":9400}]",NA,NA,NA,NA,NA,5,#741CD8,#D8271C,10,10,1,40,0,1522.5,39,0,660.2000000011176,10,0,experiment,NA,NA,0,0.9,0.1,0,1,246,6,NA
fcp-trial,282,1329591,0.0-257.0-0.0,voc_e2,12315,"[{""event"":""fullscreenenter"",""trial"":1,""time"":9400}]",NA,NA,NA,NA,NA,4,#D8271C,#741CD8,0,10,0,40,0,1459.9000000003725,39,0,537.5,10,1,experiment,NA,NA,0,0.1,0.9,1,0,247,6,NA
fcp-trial,283,1332840,0.0-258.0-0.0,voc_e2,12315,"[{""event"":""fullscreenenter"",""trial"":1,""time"":9400}]",NA,NA,NA,NA,NA,2,#741CD8,#D8271C,10,0,1,38,1,1222.2000000011176,37,1,514.6999999992549,10,1,experiment,NA,NA,0,0.9,0.1,0,1,248,6,NA
fcp-trial,284,1336845,0.0-259.0-0.0,voc_e2,12315,"[{""event"":""fullscreenenter"",""trial"":1,""time"":9400}]",NA,NA,NA,NA,NA,0,#FA92F8,#1CD855,10,10,1,38,1,1919.3999999985099,37,1,573.6000000014901,10,1,experiment,NA,NA,2,0.5,0.5,4,5,249,6,NA
fcp-trial,285,1339925,0.0-260.0-0.0,voc_e2,12315,"[{""event"":""fullscreenenter"",""trial"":1,""time"":9400}]",NA,NA,NA,NA,NA,0,#3386FF,#D89F1C,10,10,1,38,1,1113.0999999996275,37,1,455.7999999988824,10,1,experiment,NA,NA,1,0.7,0.3,2,3,250,6,NA
fcp-trial,286,1343350,0.0-261.0-0.0,voc_e2,12315,"[{""event"":""fullscreenenter"",""trial"":1,""time"":9400}]",NA,NA,NA,NA,NA,3,#3386FF,#D89F1C,10,0,1,38,1,1257.2999999988824,37,1,656.8000000007451,10,1,experiment,NA,NA,1,0.7,0.3,2,3,251,6,NA
fcp-trial,287,1347125,0.0-262.0-0.0,voc_e2,12315,"[{""event"":""fullscreenenter"",""trial"":1,""time"":9400}]",NA,NA,NA,NA,NA,1,#741CD8,#D8271C,10,0,1,38,1,1450.5999999996275,37,1,815.3999999985099,10,1,experiment,NA,NA,0,0.9,0.1,0,1,252,6,NA
fcp-trial,288,1350192,0.0-263.0-0.0,voc_e2,12315,"[{""event"":""fullscreenenter"",""trial"":1,""time"":9400}]",NA,NA,NA,NA,NA,0,#3386FF,#D89F1C,10,0,1,38,1,978.6999999992549,37,1,578.1000000014901,10,1,experiment,NA,NA,1,0.7,0.3,2,3,253,6,NA
fcp-trial,289,1353429,0.0-264.0-0.0,voc_e2,12315,"[{""event"":""fullscreenenter"",""trial"":1,""time"":9400}]",NA,NA,NA,NA,NA,4,#1CD855,#FA92F8,0,0,0,38,1,1217,39,0,512.5999999996275,0,1,experiment,NA,NA,2,0.5,0.5,5,4,254,6,NA
fcp-trial,290,1356963,0.0-265.0-0.0,voc_e2,12315,"[{""event"":""fullscreenenter"",""trial"":1,""time"":9400}]",NA,NA,NA,NA,NA,5,#741CD8,#D8271C,10,0,1,38,1,1263.699999999255,37,1,762.5,10,1,experiment,NA,NA,0,0.9,0.1,0,1,255,6,NA
fcp-trial,291,1360154,0.0-266.0-0.0,voc_e2,12315,"[{""event"":""fullscreenenter"",""trial"":1,""time"":9400}]",NA,NA,NA,NA,NA,5,#3386FF,#D89F1C,10,10,1,38,1,931.1999999992549,37,1,748.3000000007451,10,1,experiment,NA,NA,1,0.7,0.3,2,3,256,6,NA
fcp-trial,292,1363129,0.0-267.0-0.0,voc_e2,12315,"[{""event"":""fullscreenenter"",""trial"":1,""time"":9400}]",NA,NA,NA,NA,NA,0,#1CD855,#FA92F8,10,10,0,38,1,780,39,0,682.9000000003725,10,1,experiment,NA,NA,2,0.5,0.5,5,4,257,6,NA
fcp-trial,293,1366053,0.0-268.0-0.0,voc_e2,12315,"[{""event"":""fullscreenenter"",""trial"":1,""time"":9400}]",NA,NA,NA,NA,NA,4,#741CD8,#D8271C,10,0,1,38,1,710.9000000003725,37,1,702.9000000003725,10,1,experiment,NA,NA,0,0.9,0.1,0,1,258,6,NA
fcp-trial,294,1369067,0.0-269.0-0.0,voc_e2,12315,"[{""event"":""fullscreenenter"",""trial"":1,""time"":9400}]",NA,NA,NA,NA,NA,3,#1CD855,#FA92F8,10,0,0,38,1,708.5999999996275,39,0,793.9000000003725,0,1,experiment,NA,NA,2,0.5,0.5,5,4,259,6,NA
fcp-trial,295,1371797,0.0-270.0-0.0,voc_e2,12315,"[{""event"":""fullscreenenter"",""trial"":1,""time"":9400}]",NA,NA,NA,NA,NA,3,#D8271C,#741CD8,0,10,0,38,1,599.6000000014901,39,0,620.4000000003725,10,1,experiment,NA,NA,0,0.1,0.9,1,0,260,6,NA
fcp-trial,296,1375537,0.0-271.0-0.0,voc_e2,12315,"[{""event"":""fullscreenenter"",""trial"":1,""time"":9400}]",NA,NA,NA,NA,NA,4,#D89F1C,#3386FF,0,10,0,38,1,1390.800000000745,39,0,838,10,1,experiment,NA,NA,1,0.3,0.7,3,2,261,6,NA
fcp-trial,297,1379917,0.0-272.0-0.0,voc_e2,12315,"[{""event"":""fullscreenenter"",""trial"":1,""time"":9400}]",NA,NA,NA,NA,NA,6,#FA92F8,#1CD855,10,10,1,40,0,1088.5,39,0,1781.199999999255,10,0,experiment,NA,NA,2,0.5,0.5,4,5,262,6,NA
fcp-trial,298,1383997,0.0-273.0-0.0,voc_e2,12315,"[{""event"":""fullscreenenter"",""trial"":1,""time"":9400}]",NA,NA,NA,NA,NA,6,#741CD8,#D8271C,10,0,1,38,1,897.4000000003725,37,1,1676.300000000745,10,1,experiment,NA,NA,0,0.9,0.1,0,1,263,6,NA
fcp-trial,299,1386885,0.0-274.0-0.0,voc_e2,12315,"[{""event"":""fullscreenenter"",""trial"":1,""time"":9400}]",NA,NA,NA,NA,NA,2,#741CD8,#D8271C,10,0,1,38,1,684.3000000007451,37,1,692.9000000003725,10,1,experiment,NA,NA,0,0.9,0.1,0,1,264,6,NA
fcp-trial,300,1389800,0.0-275.0-0.0,voc_e2,12315,"[{""event"":""fullscreenenter"",""trial"":1,""time"":9400}]",NA,NA,NA,NA,NA,2,#FA92F8,#1CD855,10,0,1,38,1,665.1000000014901,39,0,741.4000000003725,0,0,experiment,NA,NA,2,0.5,0.5,4,5,265,6,NA
fcp-trial,301,1394334,0.0-276.0-0.0,voc_e2,12315,"[{""event"":""fullscreenenter"",""trial"":1,""time"":9400}]",NA,NA,NA,NA,NA,1,#D89F1C,#3386FF,0,10,0,38,1,1145.6000000014901,39,0,1869.10000000149,10,1,experiment,NA,NA,1,0.3,0.7,3,2,266,6,NA
fcp-trial,302,1405363,0.0-277.0-0.0,voc_e2,12315,"[{""event"":""fullscreenenter"",""trial"":1,""time"":9400}]",NA,NA,NA,NA,NA,2,#D89F1C,#3386FF,10,10,0,38,1,8910.799999998882,39,0,603.4000000003725,10,1,experiment,NA,NA,1,0.3,0.7,3,2,267,6,NA
fcp-trial,303,1414528,0.0-278.0-0.0,voc_e2,12315,"[{""event"":""fullscreenenter"",""trial"":1,""time"":9400}]",NA,NA,NA,NA,NA,0,#D8271C,#741CD8,0,10,0,38,1,6933.300000000745,39,0,722.4000000003725,10,1,experiment,NA,NA,0,0.1,0.9,1,0,268,6,NA
fcp-trial,304,1418203,0.0-279.0-0.0,voc_e2,12315,"[{""event"":""fullscreenenter"",""trial"":1,""time"":9400}]",NA,NA,NA,NA,NA,1,#741CD8,#D8271C,10,10,1,38,1,1480.3999999985099,37,1,681.7999999988824,10,1,experiment,NA,NA,0,0.9,0.1,0,1,269,6,NA
fcp-trial,305,1422400,0.0-280.0-0.0,voc_e2,12315,"[{""event"":""fullscreenenter"",""trial"":1,""time"":9400}]",NA,NA,NA,NA,NA,1,#1CD855,#FA92F8,0,0,0,38,1,1374.699999999255,37,1,1309.300000000745,0,0,experiment,NA,NA,2,0.5,0.5,5,4,270,6,NA
fcp-trial,306,1426258,0.0-281.0-0.0,voc_e2,12315,"[{""event"":""fullscreenenter"",""trial"":1,""time"":9400}]",NA,NA,NA,NA,NA,5,#1CD855,#FA92F8,0,10,0,40,0,1615.7000000011176,37,1,729.6999999992549,0,0,experiment,NA,NA,2,0.5,0.5,5,4,271,7,NA
fcp-trial,307,1429453,0.0-282.0-0.0,voc_e2,12315,"[{""event"":""fullscreenenter"",""trial"":1,""time"":9400}]",NA,NA,NA,NA,NA,3,#D89F1C,#3386FF,10,10,0,38,1,969,39,0,718.3999999985099,10,1,experiment,NA,NA,1,0.3,0.7,3,2,272,7,NA
fcp-trial,308,1436321,0.0-283.0-0.0,voc_e2,12315,"[{""event"":""fullscreenenter"",""trial"":1,""time"":9400}]",NA,NA,NA,NA,NA,6,#D89F1C,#3386FF,0,10,0,38,1,4953.799999998882,39,0,402.9000000003726,10,1,experiment,NA,NA,1,0.3,0.7,3,2,273,7,NA
fcp-trial,309,1438969,0.0-284.0-0.0,voc_e2,12315,"[{""event"":""fullscreenenter"",""trial"":1,""time"":9400}]",NA,NA,NA,NA,NA,1,#D89F1C,#3386FF,0,0,0,38,1,696.0999999996275,39,0,442.5,0,1,experiment,NA,NA,1,0.3,0.7,3,2,274,7,NA
fcp-trial,310,1441911,0.0-285.0-0.0,voc_e2,12315,"[{""event"":""fullscreenenter"",""trial"":1,""time"":9400}]",NA,NA,NA,NA,NA,0,#1CD855,#FA92F8,0,10,0,38,1,952.5,37,1,479.30000000074506,0,0,experiment,NA,NA,2,0.5,0.5,5,4,275,7,NA
fcp-trial,311,1444995,0.0-286.0-0.0,voc_e2,12315,"[{""event"":""fullscreenenter"",""trial"":1,""time"":9400}]",NA,NA,NA,NA,NA,6,#D8271C,#741CD8,0,10,0,38,1,1161.2000000011176,39,0,410.5999999996274,10,1,experiment,NA,NA,0,0.1,0.9,1,0,276,7,NA
fcp-trial,312,1449868,0.0-287.0-0.0,voc_e2,12315,"[{""event"":""fullscreenenter"",""trial"":1,""time"":9400}]",NA,NA,NA,NA,NA,4,#D89F1C,#3386FF,0,10,0,38,1,2220.0999999996275,39,0,1140.9000000003723,10,1,experiment,NA,NA,1,0.3,0.7,3,2,277,7,NA
fcp-trial,313,1452218,0.0-288.0-0.0,voc_e2,12315,"[{""event"":""fullscreenenter"",""trial"":1,""time"":9400}]",NA,NA,NA,NA,NA,1,#1CD855,#FA92F8,0,0,0,38,1,568.8999999985099,39,0,271,0,1,experiment,NA,NA,2,0.5,0.5,5,4,278,7,NA
fcp-trial,314,1454896,0.0-289.0-0.0,voc_e2,12315,"[{""event"":""fullscreenenter"",""trial"":1,""time"":9400}]",NA,NA,NA,NA,NA,4,#741CD8,#D8271C,10,0,1,38,1,688.3999999985099,37,1,480.1000000014901,10,1,experiment,NA,NA,0,0.9,0.1,0,1,279,7,NA
fcp-trial,315,1458246,0.0-290.0-0.0,voc_e2,12315,"[{""event"":""fullscreenenter"",""trial"":1,""time"":9400}]",NA,NA,NA,NA,NA,2,#1CD855,#FA92F8,0,0,0,38,1,1285.5,37,1,553.2999999988824,0,0,experiment,NA,NA,2,0.5,0.5,5,4,280,7,NA
fcp-trial,316,1461365,0.0-291.0-0.0,voc_e2,12315,"[{""event"":""fullscreenenter"",""trial"":1,""time"":9400}]",NA,NA,NA,NA,NA,0,#3386FF,#D89F1C,10,10,1,38,1,1306.7999999988824,37,1,300.90000000037253,10,1,experiment,NA,NA,1,0.7,0.3,2,3,281,7,NA
fcp-trial,317,1465120,0.0-292.0-0.0,voc_e2,12315,"[{""event"":""fullscreenenter"",""trial"":1,""time"":9400}]",NA,NA,NA,NA,NA,5,#1CD855,#FA92F8,0,0,0,38,1,1739.9000000003725,39,0,507,0,1,experiment,NA,NA,2,0.5,0.5,5,4,282,7,NA
fcp-trial,318,1468851,0.0-293.0-0.0,voc_e2,12315,"[{""event"":""fullscreenenter"",""trial"":1,""time"":9400}]",NA,NA,NA,NA,NA,3,#3386FF,#D89F1C,0,0,1,40,0,1666,37,1,552.4000000003725,0,1,experiment,NA,NA,1,0.7,0.3,2,3,283,7,NA
fcp-trial,319,1472040,0.0-294.0-0.0,voc_e2,12315,"[{""event"":""fullscreenenter"",""trial"":1,""time"":9400}]",NA,NA,NA,NA,NA,1,#D8271C,#741CD8,0,10,0,38,1,1024.699999999255,39,0,653.0999999996275,10,1,experiment,NA,NA,0,0.1,0.9,1,0,284,7,NA
fcp-trial,320,1475719,0.0-295.0-0.0,voc_e2,12315,"[{""event"":""fullscreenenter"",""trial"":1,""time"":9400}]",NA,NA,NA,NA,NA,5,#D8271C,#741CD8,0,10,0,40,0,1337.3999999985099,39,0,832.4000000003725,10,1,experiment,NA,NA,0,0.1,0.9,1,0,285,7,NA
fcp-trial,321,1479247,0.0-296.0-0.0,voc_e2,12315,"[{""event"":""fullscreenenter"",""trial"":1,""time"":9400}]",NA,NA,NA,NA,NA,2,#3386FF,#D89F1C,0,0,1,38,1,1112.7999999988824,39,0,903.8000000007452,0,0,experiment,NA,NA,1,0.7,0.3,2,3,286,7,NA
fcp-trial,322,1482764,0.0-297.0-0.0,voc_e2,12315,"[{""event"":""fullscreenenter"",""trial"":1,""time"":9400}]",NA,NA,NA,NA,NA,3,#1CD855,#FA92F8,0,10,0,38,1,1249.199999999255,37,1,756.0999999996275,0,0,experiment,NA,NA,2,0.5,0.5,5,4,287,7,NA
fcp-trial,323,1485992,0.0-298.0-0.0,voc_e2,12315,"[{""event"":""fullscreenenter"",""trial"":1,""time"":9400}]",NA,NA,NA,NA,NA,3,#D8271C,#741CD8,0,10,0,38,1,1239.5,39,0,477.5,10,1,experiment,NA,NA,0,0.1,0.9,1,0,288,7,NA
fcp-trial,324,1489573,0.0-299.0-0.0,voc_e2,12315,"[{""event"":""fullscreenenter"",""trial"":1,""time"":9400}]",NA,NA,NA,NA,NA,0,#D8271C,#741CD8,0,10,0,38,1,1606.7000000011176,39,0,463.0999999996274,10,1,experiment,NA,NA,0,0.1,0.9,1,0,289,7,NA
fcp-trial,325,1492731,0.0-300.0-0.0,voc_e2,12315,"[{""event"":""fullscreenenter"",""trial"":1,""time"":9400}]",NA,NA,NA,NA,NA,2,#741CD8,#D8271C,10,0,1,38,1,1257.1000000014901,37,1,391.2999999988824,10,1,experiment,NA,NA,0,0.9,0.1,0,1,290,7,NA
fcp-trial,326,1495928,0.0-301.0-0.0,voc_e2,12315,"[{""event"":""fullscreenenter"",""trial"":1,""time"":9400}]",NA,NA,NA,NA,NA,5,#D89F1C,#3386FF,0,10,0,38,1,1210.3999999985099,39,0,474.30000000074506,10,1,experiment,NA,NA,1,0.3,0.7,3,2,291,7,NA
fcp-trial,327,1499277,0.0-302.0-0.0,voc_e2,12315,"[{""event"":""fullscreenenter"",""trial"":1,""time"":9400}]",NA,NA,NA,NA,NA,4,#1CD855,#FA92F8,10,10,0,40,0,1209.699999999255,37,1,628,10,0,experiment,NA,NA,2,0.5,0.5,5,4,292,7,NA
fcp-trial,328,1503696,0.0-303.0-0.0,voc_e2,12315,"[{""event"":""fullscreenenter"",""trial"":1,""time"":9400}]",NA,NA,NA,NA,NA,6,#FA92F8,#1CD855,0,0,1,40,0,1333.5,39,0,1578.199999999255,0,0,experiment,NA,NA,2,0.5,0.5,4,5,293,7,NA
fcp-trial,329,1509294,0.0-304.0-0.0,voc_e2,12315,"[{""event"":""fullscreenenter"",""trial"":1,""time"":9400}]",NA,NA,NA,NA,NA,6,#D89F1C,#3386FF,0,0,0,40,0,3100.0999999996275,37,1,988.5,0,0,experiment,NA,NA,1,0.3,0.7,3,2,294,7,NA
fcp-trial,330,1512770,0.0-305.0-0.0,voc_e2,12315,"[{""event"":""fullscreenenter"",""trial"":1,""time"":9400}]",NA,NA,NA,NA,NA,2,#3386FF,#D89F1C,10,0,1,38,1,1091.2000000011176,37,1,872.2000000011176,10,1,experiment,NA,NA,1,0.7,0.3,2,3,295,7,NA
fcp-trial,331,1516393,0.0-306.0-0.0,voc_e2,12315,"[{""event"":""fullscreenenter"",""trial"":1,""time"":9400}]",NA,NA,NA,NA,NA,2,#FA92F8,#1CD855,0,0,1,38,1,1361.7000000011176,37,1,748.8000000007451,0,1,experiment,NA,NA,2,0.5,0.5,4,5,296,7,NA
fcp-trial,332,1519263,0.0-307.0-0.0,voc_e2,12315,"[{""event"":""fullscreenenter"",""trial"":1,""time"":9400}]",NA,NA,NA,NA,NA,5,#D8271C,#741CD8,0,10,0,38,1,666.5999999996275,39,0,691.1000000014901,10,1,experiment,NA,NA,0,0.1,0.9,1,0,297,7,NA
fcp-trial,333,1522462,0.0-308.0-0.0,voc_e2,12315,"[{""event"":""fullscreenenter"",""trial"":1,""time"":9400}]",NA,NA,NA,NA,NA,5,#D89F1C,#3386FF,10,10,0,38,1,1244.9000000003725,39,0,445,10,1,experiment,NA,NA,1,0.3,0.7,3,2,298,7,NA
fcp-trial,334,1526291,0.0-309.0-0.0,voc_e2,12315,"[{""event"":""fullscreenenter"",""trial"":1,""time"":9400}]",NA,NA,NA,NA,NA,5,#FA92F8,#1CD855,10,10,1,40,0,1103.7999999988824,37,1,1215.0999999996277,10,1,experiment,NA,NA,2,0.5,0.5,4,5,299,7,NA
fcp-trial,335,1529482,0.0-310.0-0.0,voc_e2,12315,"[{""event"":""fullscreenenter"",""trial"":1,""time"":9400}]",NA,NA,NA,NA,NA,6,#FA92F8,#1CD855,10,10,1,40,0,580.8000000007451,37,1,1101.0999999996277,10,1,experiment,NA,NA,2,0.5,0.5,4,5,300,7,NA
fcp-trial,336,1532603,0.0-311.0-0.0,voc_e2,12315,"[{""event"":""fullscreenenter"",""trial"":1,""time"":9400}]",NA,NA,NA,NA,NA,4,#3386FF,#D89F1C,10,10,1,40,0,1070.7000000011176,39,0,541.6999999992549,10,0,experiment,NA,NA,1,0.7,0.3,2,3,301,7,NA
fcp-trial,337,1535784,0.0-312.0-0.0,voc_e2,12315,"[{""event"":""fullscreenenter"",""trial"":1,""time"":9400}]",NA,NA,NA,NA,NA,4,#741CD8,#D8271C,10,0,1,38,1,1292.5,39,0,376.6000000014901,0,0,experiment,NA,NA,0,0.9,0.1,0,1,302,7,NA
fcp-trial,338,1538660,0.0-313.0-0.0,voc_e2,12315,"[{""event"":""fullscreenenter"",""trial"":1,""time"":9400}]",NA,NA,NA,NA,NA,1,#741CD8,#D8271C,10,0,1,38,1,975.7999999988824,37,1,389.1000000014901,10,1,experiment,NA,NA,0,0.9,0.1,0,1,303,7,NA
fcp-trial,339,1542577,0.0-314.0-0.0,voc_e2,12315,"[{""event"":""fullscreenenter"",""trial"":1,""time"":9400}]",NA,NA,NA,NA,NA,6,#741CD8,#D8271C,10,0,1,40,0,1929.699999999255,39,0,475.7000000011176,0,0,experiment,NA,NA,0,0.9,0.1,0,1,304,7,NA
fcp-trial,340,1545764,0.0-315.0-0.0,voc_e2,12315,"[{""event"":""fullscreenenter"",""trial"":1,""time"":9400}]",NA,NA,NA,NA,NA,1,#FA92F8,#1CD855,0,0,1,38,1,713.8000000007451,37,1,965.2999999988824,0,1,experiment,NA,NA,2,0.5,0.5,4,5,305,7,NA
fcp-trial,341,1548826,0.0-316.0-0.0,voc_e2,12315,"[{""event"":""fullscreenenter"",""trial"":1,""time"":9400}]",NA,NA,NA,NA,NA,0,#3386FF,#D89F1C,0,0,1,38,1,1045.199999999255,37,1,507.30000000074506,0,1,experiment,NA,NA,1,0.7,0.3,2,3,306,7,NA
fcp-trial,342,1553393,0.0-317.0-0.0,voc_e2,12315,"[{""event"":""fullscreenenter"",""trial"":1,""time"":9400}]",NA,NA,NA,NA,NA,3,#FA92F8,#1CD855,10,10,1,38,1,1945.9000000003725,37,1,1111.5999999996277,10,1,experiment,NA,NA,2,0.5,0.5,4,5,307,7,NA
fcp-trial,343,1558036,0.0-318.0-0.0,voc_e2,12315,"[{""event"":""fullscreenenter"",""trial"":1,""time"":9400}]",NA,NA,NA,NA,NA,3,#D8271C,#741CD8,0,10,0,38,1,2178.0999999996275,39,0,954.0999999996276,10,1,experiment,NA,NA,0,0.1,0.9,1,0,308,7,NA
fcp-trial,344,1562064,0.0-319.0-0.0,voc_e2,12315,"[{""event"":""fullscreenenter"",""trial"":1,""time"":9400}]",NA,NA,NA,NA,NA,1,#3386FF,#D89F1C,10,10,1,38,1,1573.7999999988824,37,1,941.6999999992548,10,1,experiment,NA,NA,1,0.7,0.3,2,3,309,7,NA
fcp-trial,345,1564987,0.0-320.0-0.0,voc_e2,12315,"[{""event"":""fullscreenenter"",""trial"":1,""time"":9400}]",NA,NA,NA,NA,NA,3,#D89F1C,#3386FF,0,10,0,38,1,432.59999999962747,39,0,978.4000000003724,10,1,experiment,NA,NA,1,0.3,0.7,3,2,310,7,NA
fcp-trial,346,1569412,0.0-321.0-0.0,voc_e2,12315,"[{""event"":""fullscreenenter"",""trial"":1,""time"":9400}]",NA,NA,NA,NA,NA,0,#1CD855,#FA92F8,10,0,0,38,1,1959.9000000003725,37,1,955.8000000007452,10,0,experiment,NA,NA,2,0.5,0.5,5,4,311,7,NA
fcp-trial,347,1573233,0.0-322.0-0.0,voc_e2,12315,"[{""event"":""fullscreenenter"",""trial"":1,""time"":9400}]",NA,NA,NA,NA,NA,4,#FA92F8,#1CD855,0,0,1,38,1,1487.7000000011176,37,1,821.3000000007451,0,1,experiment,NA,NA,2,0.5,0.5,4,5,312,7,NA
fcp-trial,348,1576277,0.0-323.0-0.0,voc_e2,12315,"[{""event"":""fullscreenenter"",""trial"":1,""time"":9400}]",NA,NA,NA,NA,NA,0,#D8271C,#741CD8,0,10,0,38,1,1174.300000000745,39,0,360.7000000011176,10,1,experiment,NA,NA,0,0.1,0.9,1,0,313,7,NA
fcp-trial,349,1579230,0.0-324.0-0.0,voc_e2,12315,"[{""event"":""fullscreenenter"",""trial"":1,""time"":9400}]",NA,NA,NA,NA,NA,6,#D89F1C,#3386FF,0,0,0,38,1,946.5,39,0,493.5999999996274,0,1,experiment,NA,NA,1,0.3,0.7,3,2,314,7,NA
fcp-trial,350,1581876,0.0-325.0-0.0,voc_e2,12315,"[{""event"":""fullscreenenter"",""trial"":1,""time"":9400}]",NA,NA,NA,NA,NA,2,#741CD8,#D8271C,10,0,1,38,1,774.9000000003725,37,1,357.40000000037253,10,1,experiment,NA,NA,0,0.9,0.1,0,1,315,7,NA
audio-instructions,351,1589747,0.0-326.0,voc_e2,12315,"[{""event"":""fullscreenenter"",""trial"":1,""time"":9400}]",NA,1487.2999999988824,static/audio/finished.wav,NA,0,NA,NA,NA,NA,NA,NA,NA,NA,NA,NA,NA,NA,NA,NA,NA,NA,NA,NA,NA,NA,NA,NA,NA,NA,NA
audio-instructions,352,1601715,0.0-327.0-0.0,voc_e2,12315,"[{""event"":""fullscreenenter"",""trial"":1,""time"":9400}]",NA,1136.5,static/audio/explicit1.wav,NA,0,NA,NA,NA,NA,NA,NA,NA,NA,NA,NA,NA,NA,NA,NA,NA,NA,NA,NA,NA,NA,NA,NA,NA,NA,NA
audio-instructions,353,1610836,0.0-327.0-1.0,voc_e2,12315,"[{""event"":""fullscreenenter"",""trial"":1,""time"":9400}]",NA,1529.9000000003723,static/audio/explicit2.wav,NA,0,NA,NA,NA,NA,NA,NA,NA,NA,NA,NA,NA,NA,NA,NA,NA,NA,NA,NA,NA,NA,NA,NA,NA,NA,NA
image-slider-response,354,1618297,0.0-328.0,voc_e2,12315,"[{""event"":""fullscreenenter"",""trial"":1,""time"":9400}]",NA,7458.5999999996275,static/img/machines/machine5.png,NA,NA,NA,NA,NA,NA,NA,NA,NA,NA,NA,NA,NA,NA,NA,NA,explicit,NA,NA,NA,NA,NA,NA,NA,NA,NA,5
image-slider-response,355,1625869,0.0-329.0,voc_e2,12315,"[{""event"":""fullscreenenter"",""trial"":1,""time"":9400}]",NA,7571,static/img/machines/machine4.png,NA,NA,NA,NA,NA,NA,NA,NA,NA,NA,NA,NA,NA,NA,NA,NA,explicit,NA,NA,NA,NA,NA,NA,NA,NA,NA,7
image-slider-response,356,1635519,0.0-330.0,voc_e2,12315,"[{""event"":""fullscreenenter"",""trial"":1,""time"":9400}]",NA,9648.39999999851,static/img/machines/machine6.png,NA,NA,NA,NA,NA,NA,NA,NA,NA,NA,NA,NA,NA,NA,NA,NA,explicit,NA,NA,NA,NA,NA,NA,NA,NA,NA,6
image-slider-response,357,1641173,0.0-331.0,voc_e2,12315,"[{""event"":""fullscreenenter"",""trial"":1,""time"":9400}]",NA,5652.89999999851,static/img/machines/machine3.png,NA,NA,NA,NA,NA,NA,NA,NA,NA,NA,NA,NA,NA,NA,NA,NA,explicit,NA,NA,NA,NA,NA,NA,NA,NA,NA,7
image-slider-response,358,1645582,0.0-332.0,voc_e2,12315,"[{""event"":""fullscreenenter"",""trial"":1,""time"":9400}]",NA,4407.5,static/img/machines/machine1.png,NA,NA,NA,NA,NA,NA,NA,NA,NA,NA,NA,NA,NA,NA,NA,NA,explicit,NA,NA,NA,NA,NA,NA,NA,NA,NA,3
image-slider-response,359,1649787,0.0-333.0,voc_e2,12315,"[{""event"":""fullscreenenter"",""trial"":1,""time"":9400}]",NA,4203.5,static/img/machines/machine2.png,NA,NA,NA,NA,NA,NA,NA,NA,NA,NA,NA,NA,NA,NA,NA,NA,explicit,NA,NA,NA,NA,NA,NA,NA,NA,NA,9
