trial_type,trial_index,time_elapsed,internal_node_id,task_version,subject_id,interactions,success,rt,stimulus,key_press,button_pressed,offer,arcade_color_L,arcade_color_R,arcade_outcome_L,arcade_outcome_R,correct,stage_1_key,stage_1_choice,stage_1_rt,stage_2_key,stage_2_choice,stage_2_rt,stage_3_outcome,accuracy,phase,responses,num_errors,context,reward_prob_L,reward_prob_R,arcade_id_L,arcade_id_R,trial,block,response
pavlovia,0,11,0.0-0.0,voc_e2,12332,[],NA,NA,NA,NA,NA,NA,NA,NA,NA,NA,NA,NA,NA,NA,NA,NA,NA,NA,NA,NA,NA,NA,NA,NA,NA,NA,NA,NA,NA,NA
fullscreen,1,4360,0.0-1.0,voc_e2,12332,"[{""event"":""fullscreenenter"",""trial"":1,""time"":3374}]",TRUE,NA,NA,NA,NA,NA,NA,NA,NA,NA,NA,NA,NA,NA,NA,NA,NA,NA,NA,NA,NA,NA,NA,NA,NA,NA,NA,NA,NA,NA
audio-keyboard-response,2,8763,0.0-2.0,voc_e2,12332,"[{""event"":""fullscreenenter"",""trial"":1,""time"":3374}]",NA,4101,static/audio/beep_loop.wav,32,NA,NA,NA,NA,NA,NA,NA,NA,NA,NA,NA,NA,NA,NA,NA,NA,NA,NA,NA,NA,NA,NA,NA,NA,NA,NA
audio-test,3,11650,0.0-3.0,voc_e2,12332,"[{""event"":""fullscreenenter"",""trial"":1,""time"":3374}]",NA,NA,static/audio/turtle.wav,NA,3,NA,NA,NA,NA,NA,NA,NA,NA,NA,NA,NA,NA,NA,NA,NA,NA,NA,NA,NA,NA,NA,NA,NA,NA,NA
audio-test,4,13921,0.0-4.0,voc_e2,12332,"[{""event"":""fullscreenenter"",""trial"":1,""time"":3374}]",NA,NA,static/audio/shark.wav,NA,2,NA,NA,NA,NA,NA,NA,NA,NA,NA,NA,NA,NA,NA,NA,NA,NA,NA,NA,NA,NA,NA,NA,NA,NA,NA
audio-instructions,5,21040,0.0-5.0-0.0,voc_e2,12332,"[{""event"":""fullscreenenter"",""trial"":1,""time"":3374}]",NA,1330.2000000476835,static/audio/instructions1.wav,NA,0,NA,NA,NA,NA,NA,NA,NA,NA,NA,NA,NA,NA,NA,NA,NA,NA,NA,NA,NA,NA,NA,NA,NA,NA,NA
audio-instructions,6,31802,0.0-5.0-1.0,voc_e2,12332,"[{""event"":""fullscreenenter"",""trial"":1,""time"":3374}]",NA,4012.200000047684,static/audio/instructions2.wav,NA,0,NA,NA,NA,NA,NA,NA,NA,NA,NA,NA,NA,NA,NA,NA,NA,NA,NA,NA,NA,NA,NA,NA,NA,NA,NA
audio-instructions,7,39095,0.0-5.0-2.0,voc_e2,12332,"[{""event"":""fullscreenenter"",""trial"":1,""time"":3374}]",NA,1485.0999999046326,static/audio/instructions3.wav,NA,0,NA,NA,NA,NA,NA,NA,NA,NA,NA,NA,NA,NA,NA,NA,NA,NA,NA,NA,NA,NA,NA,NA,NA,NA,NA
audio-instructions,8,54456,0.0-5.0-3.0,voc_e2,12332,"[{""event"":""fullscreenenter"",""trial"":1,""time"":3374}]",NA,2136.600000023842,static/audio/instructions4.wav,NA,0,NA,NA,NA,NA,NA,NA,NA,NA,NA,NA,NA,NA,NA,NA,NA,NA,NA,NA,NA,NA,NA,NA,NA,NA,NA
audio-instructions,9,65983,0.0-5.0-4.0,voc_e2,12332,"[{""event"":""fullscreenenter"",""trial"":1,""time"":3374}]",NA,2144.1999999284744,static/audio/instructions5.wav,NA,0,NA,NA,NA,NA,NA,NA,NA,NA,NA,NA,NA,NA,NA,NA,NA,NA,NA,NA,NA,NA,NA,NA,NA,NA,NA
fcp-practice,10,68839,0.0-5.0-5.0-0.0,voc_e2,12332,"[{""event"":""fullscreenenter"",""trial"":1,""time"":3374}]",NA,NA,NA,NA,NA,NA,#EDC948,#46d3c8,10,0,1,null,null,null,37,1,1345.3000000715256,10,1,practice,NA,NA,NA,NA,NA,NA,NA,NA,NA,NA
fcp-practice,11,71170,0.0-5.0-5.0-1.0,voc_e2,12332,"[{""event"":""fullscreenenter"",""trial"":1,""time"":3374}]",NA,NA,NA,NA,NA,NA,#EDC948,#46d3c8,10,0,1,null,null,null,37,1,821.6000000238419,10,1,practice,NA,NA,NA,NA,NA,NA,NA,NA,NA,NA
fcp-practice,12,73356,0.0-5.0-5.0-2.0,voc_e2,12332,"[{""event"":""fullscreenenter"",""trial"":1,""time"":3374}]",NA,NA,NA,NA,NA,NA,#EDC948,#46d3c8,0,10,1,null,null,null,37,1,668.0999999046326,0,1,practice,NA,NA,NA,NA,NA,NA,NA,NA,NA,NA
fcp-practice,13,75225,0.0-5.0-5.0-3.0,voc_e2,12332,"[{""event"":""fullscreenenter"",""trial"":1,""time"":3374}]",NA,NA,NA,NA,NA,NA,#EDC948,#46d3c8,10,0,1,null,null,null,37,1,352.2999999523163,10,1,practice,NA,NA,NA,NA,NA,NA,NA,NA,NA,NA
fcp-practice,14,77148,0.0-5.0-5.0-4.0,voc_e2,12332,"[{""event"":""fullscreenenter"",""trial"":1,""time"":3374}]",NA,NA,NA,NA,NA,NA,#EDC948,#46d3c8,10,0,1,null,null,null,37,1,416.60000002384186,10,1,practice,NA,NA,NA,NA,NA,NA,NA,NA,NA,NA
audio-instructions,15,96362,0.0-5.0-6.0,voc_e2,12332,"[{""event"":""fullscreenenter"",""trial"":1,""time"":3374}]",NA,1201.899999976158,static/audio/instructions6.wav,NA,0,NA,NA,NA,NA,NA,NA,NA,NA,NA,NA,NA,NA,NA,NA,NA,NA,NA,NA,NA,NA,NA,NA,NA,NA,NA
audio-instructions,16,117863,0.0-5.0-7.0,voc_e2,12332,"[{""event"":""fullscreenenter"",""trial"":1,""time"":3374}]",NA,2304.5,static/audio/instructions7.wav,NA,0,NA,NA,NA,NA,NA,NA,NA,NA,NA,NA,NA,NA,NA,NA,NA,NA,NA,NA,NA,NA,NA,NA,NA,NA,NA
audio-instructions,17,127958,0.0-5.0-8.0,voc_e2,12332,"[{""event"":""fullscreenenter"",""trial"":1,""time"":3374}]",NA,620,static/audio/instructions8.wav,NA,0,NA,NA,NA,NA,NA,NA,NA,NA,NA,NA,NA,NA,NA,NA,NA,NA,NA,NA,NA,NA,NA,NA,NA,NA,NA
fcp-comprehension,18,152173,0.0-5.0-9.0,voc_e2,12332,"[{""event"":""fullscreenenter"",""trial"":1,""time"":3374}]",NA,24212.60000002384,NA,NA,NA,NA,NA,NA,NA,NA,NA,NA,NA,NA,NA,NA,NA,NA,NA,NA,"false,true",1,NA,NA,NA,NA,NA,NA,NA,NA
audio-instructions,19,157391,0.0-5.1-0.1,voc_e2,12332,"[{""event"":""fullscreenenter"",""trial"":1,""time"":3374}]",NA,442.39999997615814,static/audio/instructions1.wav,NA,0,NA,NA,NA,NA,NA,NA,NA,NA,NA,NA,NA,NA,NA,NA,NA,NA,NA,NA,NA,NA,NA,NA,NA,NA,NA
audio-instructions,20,165317,0.0-5.1-1.1,voc_e2,12332,"[{""event"":""fullscreenenter"",""trial"":1,""time"":3374}]",NA,1178.100000023842,static/audio/instructions2.wav,NA,0,NA,NA,NA,NA,NA,NA,NA,NA,NA,NA,NA,NA,NA,NA,NA,NA,NA,NA,NA,NA,NA,NA,NA,NA,NA
audio-instructions,21,172209,0.0-5.1-2.1,voc_e2,12332,"[{""event"":""fullscreenenter"",""trial"":1,""time"":3374}]",NA,1080.600000023842,static/audio/instructions3.wav,NA,0,NA,NA,NA,NA,NA,NA,NA,NA,NA,NA,NA,NA,NA,NA,NA,NA,NA,NA,NA,NA,NA,NA,NA,NA,NA
audio-instructions,22,185885,0.0-5.1-3.1,voc_e2,12332,"[{""event"":""fullscreenenter"",""trial"":1,""time"":3374}]",NA,444.1999999284744,static/audio/instructions4.wav,NA,0,NA,NA,NA,NA,NA,NA,NA,NA,NA,NA,NA,NA,NA,NA,NA,NA,NA,NA,NA,NA,NA,NA,NA,NA,NA
audio-instructions,23,195677,0.0-5.1-4.1,voc_e2,12332,"[{""event"":""fullscreenenter"",""trial"":1,""time"":3374}]",NA,406.2999999523163,static/audio/instructions5.wav,NA,0,NA,NA,NA,NA,NA,NA,NA,NA,NA,NA,NA,NA,NA,NA,NA,NA,NA,NA,NA,NA,NA,NA,NA,NA,NA
fcp-practice,24,198188,0.0-5.1-5.1-0.1,voc_e2,12332,"[{""event"":""fullscreenenter"",""trial"":1,""time"":3374}]",NA,NA,NA,NA,NA,NA,#EDC948,#46d3c8,10,0,1,null,null,null,37,1,994.399999976158,10,1,practice,NA,NA,NA,NA,NA,NA,NA,NA,NA,NA
fcp-practice,25,199998,0.0-5.1-5.1-1.1,voc_e2,12332,"[{""event"":""fullscreenenter"",""trial"":1,""time"":3374}]",NA,NA,NA,NA,NA,NA,#EDC948,#46d3c8,10,0,1,null,null,null,37,1,300.40000009536743,10,1,practice,NA,NA,NA,NA,NA,NA,NA,NA,NA,NA
fcp-practice,26,201825,0.0-5.1-5.1-2.1,voc_e2,12332,"[{""event"":""fullscreenenter"",""trial"":1,""time"":3374}]",NA,NA,NA,NA,NA,NA,#EDC948,#46d3c8,0,10,1,null,null,null,37,1,322.10000002384186,0,1,practice,NA,NA,NA,NA,NA,NA,NA,NA,NA,NA
fcp-practice,27,203678,0.0-5.1-5.1-3.1,voc_e2,12332,"[{""event"":""fullscreenenter"",""trial"":1,""time"":3374}]",NA,NA,NA,NA,NA,NA,#EDC948,#46d3c8,10,0,1,null,null,null,37,1,346.6999999284744,10,1,practice,NA,NA,NA,NA,NA,NA,NA,NA,NA,NA
fcp-practice,28,205519,0.0-5.1-5.1-4.1,voc_e2,12332,"[{""event"":""fullscreenenter"",""trial"":1,""time"":3374}]",NA,NA,NA,NA,NA,NA,#EDC948,#46d3c8,10,0,1,null,null,null,37,1,334,10,1,practice,NA,NA,NA,NA,NA,NA,NA,NA,NA,NA
audio-instructions,29,224687,0.0-5.1-6.1,voc_e2,12332,"[{""event"":""fullscreenenter"",""trial"":1,""time"":3374}]",NA,1155.9000000953674,static/audio/instructions6.wav,NA,0,NA,NA,NA,NA,NA,NA,NA,NA,NA,NA,NA,NA,NA,NA,NA,NA,NA,NA,NA,NA,NA,NA,NA,NA,NA
audio-instructions,30,244343,0.0-5.1-7.1,voc_e2,12332,"[{""event"":""fullscreenenter"",""trial"":1,""time"":3374}]",NA,462.60000002384186,static/audio/instructions7.wav,NA,0,NA,NA,NA,NA,NA,NA,NA,NA,NA,NA,NA,NA,NA,NA,NA,NA,NA,NA,NA,NA,NA,NA,NA,NA,NA
audio-instructions,31,256703,0.0-5.1-8.1,voc_e2,12332,"[{""event"":""fullscreenenter"",""trial"":1,""time"":3374}]",NA,2882.600000023842,static/audio/instructions8.wav,NA,0,NA,NA,NA,NA,NA,NA,NA,NA,NA,NA,NA,NA,NA,NA,NA,NA,NA,NA,NA,NA,NA,NA,NA,NA,NA
fcp-comprehension,32,262291,0.0-5.1-9.1,voc_e2,12332,"[{""event"":""fullscreenenter"",""trial"":1,""time"":3374}]",NA,5585.100000023842,NA,NA,NA,NA,NA,NA,NA,NA,NA,NA,NA,NA,NA,NA,NA,NA,NA,NA,"true,true",0,NA,NA,NA,NA,NA,NA,NA,NA
audio-instructions,33,268563,0.0-6.0-0.0,voc_e2,12332,"[{""event"":""fullscreenenter"",""trial"":1,""time"":3374}]",NA,723.2000000476837,static/audio/instructions9.wav,NA,0,NA,NA,NA,NA,NA,NA,NA,NA,NA,NA,NA,NA,NA,NA,NA,NA,NA,NA,NA,NA,NA,NA,NA,NA,NA
audio-instructions,34,281167,0.0-6.0-1.0,voc_e2,12332,"[{""event"":""fullscreenenter"",""trial"":1,""time"":3374}]",NA,485.60000002384186,static/audio/instructions10.wav,NA,0,NA,NA,NA,NA,NA,NA,NA,NA,NA,NA,NA,NA,NA,NA,NA,NA,NA,NA,NA,NA,NA,NA,NA,NA,NA
fcp-trial,35,291433,0.0-6.0-2.0,voc_e2,12332,"[{""event"":""fullscreenenter"",""trial"":1,""time"":3374}]",NA,NA,NA,NA,NA,0,#EDC948,#46d3c8,10,10,1,38,1,5258.700000047684,37,1,3455.6999999284744,10,1,practice,NA,NA,NA,NA,NA,NA,NA,NA,NA,NA
audio-instructions,36,304653,0.0-6.0-3.0,voc_e2,12332,"[{""event"":""fullscreenenter"",""trial"":1,""time"":3374}]",NA,2212,static/audio/instructions11.wav,NA,0,NA,NA,NA,NA,NA,NA,NA,NA,NA,NA,NA,NA,NA,NA,NA,NA,NA,NA,NA,NA,NA,NA,NA,NA,NA
fcp-trial,37,308736,0.0-6.0-4.0,voc_e2,12332,"[{""event"":""fullscreenenter"",""trial"":1,""time"":3374}]",NA,NA,NA,NA,NA,6,#EDC948,#46d3c8,10,10,1,40,0,1050.7999999523163,39,0,1509.6999999284744,10,0,practice,NA,NA,NA,NA,NA,NA,NA,NA,NA,NA
audio-instructions,38,328133,0.0-6.0-5.0,voc_e2,12332,"[{""event"":""fullscreenenter"",""trial"":1,""time"":3374}]",NA,710.3000000715256,static/audio/instructions12.wav,NA,0,NA,NA,NA,NA,NA,NA,NA,NA,NA,NA,NA,NA,NA,NA,NA,NA,NA,NA,NA,NA,NA,NA,NA,NA,NA
audio-instructions,39,336878,0.0-6.0-6.0,voc_e2,12332,"[{""event"":""fullscreenenter"",""trial"":1,""time"":3374}]",NA,1146.4000000953674,static/audio/instructions13.wav,NA,0,NA,NA,NA,NA,NA,NA,NA,NA,NA,NA,NA,NA,NA,NA,NA,NA,NA,NA,NA,NA,NA,NA,NA,NA,NA
audio-instructions,40,346927,0.0-6.0-7.0,voc_e2,12332,"[{""event"":""fullscreenenter"",""trial"":1,""time"":3374}]",NA,1605.5,static/audio/instructions14.wav,NA,0,NA,NA,NA,NA,NA,NA,NA,NA,NA,NA,NA,NA,NA,NA,NA,NA,NA,NA,NA,NA,NA,NA,NA,NA,NA
audio-instructions,41,354578,0.0-7.0-0.0,voc_e2,12332,"[{""event"":""fullscreenenter"",""trial"":1,""time"":3374}]",NA,736.3999999761581,static/audio/instructions15.wav,NA,0,NA,NA,NA,NA,NA,NA,NA,NA,NA,NA,NA,NA,NA,NA,NA,NA,NA,NA,NA,NA,NA,NA,NA,NA,NA
audio-instructions,42,362994,0.0-7.0-1.0,voc_e2,12332,"[{""event"":""fullscreenenter"",""trial"":1,""time"":3374}]",NA,1592.399999976158,static/audio/instructions16.wav,NA,0,NA,NA,NA,NA,NA,NA,NA,NA,NA,NA,NA,NA,NA,NA,NA,NA,NA,NA,NA,NA,NA,NA,NA,NA,NA
audio-instructions,43,371133,0.0-7.0-2.0,voc_e2,12332,"[{""event"":""fullscreenenter"",""trial"":1,""time"":3374}]",NA,461.2999999523163,static/audio/instructions17.wav,NA,0,NA,NA,NA,NA,NA,NA,NA,NA,NA,NA,NA,NA,NA,NA,NA,NA,NA,NA,NA,NA,NA,NA,NA,NA,NA
audio-instructions,44,380018,0.0-7.0-3.0,voc_e2,12332,"[{""event"":""fullscreenenter"",""trial"":1,""time"":3374}]",NA,1116.100000023842,static/audio/instructions18.wav,NA,0,NA,NA,NA,NA,NA,NA,NA,NA,NA,NA,NA,NA,NA,NA,NA,NA,NA,NA,NA,NA,NA,NA,NA,NA,NA
audio-instructions,45,388902,0.0-7.0-4.0,voc_e2,12332,"[{""event"":""fullscreenenter"",""trial"":1,""time"":3374}]",NA,2149.399999976158,static/audio/instructions19.wav,NA,0,NA,NA,NA,NA,NA,NA,NA,NA,NA,NA,NA,NA,NA,NA,NA,NA,NA,NA,NA,NA,NA,NA,NA,NA,NA
fcp-comprehension,46,404732,0.0-7.0-5.0,voc_e2,12332,"[{""event"":""fullscreenenter"",""trial"":1,""time"":3374}]",NA,15828.399999976158,NA,NA,NA,NA,NA,NA,NA,NA,NA,NA,NA,NA,NA,NA,NA,NA,NA,NA,"false,false,false,true",0,NA,NA,NA,NA,NA,NA,NA,NA
audio-instructions,47,415928,0.0-8.0,voc_e2,12332,"[{""event"":""fullscreenenter"",""trial"":1,""time"":3374}]",NA,1975.899999976158,static/audio/ready.wav,NA,0,NA,NA,NA,NA,NA,NA,NA,NA,NA,NA,NA,NA,NA,NA,NA,NA,NA,NA,NA,NA,NA,NA,NA,NA,NA
fcp-trial,48,423320,0.0-9.0-0.0,voc_e2,12332,"[{""event"":""fullscreenenter"",""trial"":1,""time"":3374}]",NA,NA,NA,NA,NA,4,#1CD855,#FA92F8,10,0,1,40,0,4775.899999976158,37,1,1106.7000000476835,10,1,experiment,NA,NA,0,0.9,0.1,0,1,1,1,NA
fcp-trial,49,428190,0.0-10.0-0.0,voc_e2,12332,"[{""event"":""fullscreenenter"",""trial"":1,""time"":3374}]",NA,NA,NA,NA,NA,6,#3386FF,#D89F1C,0,0,0,40,0,2613.399999976158,39,0,741.3999999761581,0,1,experiment,NA,NA,1,0.3,0.7,3,2,2,1,NA
fcp-trial,50,436530,0.0-11.0-0.0,voc_e2,12332,"[{""event"":""fullscreenenter"",""trial"":1,""time"":3374}]",NA,NA,NA,NA,NA,2,#D8271C,#741CD8,0,10,1,40,0,6244.399999976158,37,1,576.3999999761581,0,1,experiment,NA,NA,2,0.5,0.5,4,5,3,1,NA
fcp-trial,51,441990,0.0-12.0-0.0,voc_e2,12332,"[{""event"":""fullscreenenter"",""trial"":1,""time"":3374}]",NA,NA,NA,NA,NA,2,#3386FF,#D89F1C,0,0,0,40,0,3333.7999999523163,37,1,615.5,0,0,experiment,NA,NA,1,0.3,0.7,3,2,4,1,NA
fcp-trial,52,445969,0.0-13.0-0.0,voc_e2,12332,"[{""event"":""fullscreenenter"",""trial"":1,""time"":3374}]",NA,NA,NA,NA,NA,5,#741CD8,#D8271C,0,0,0,40,0,1870.8999999761581,37,1,599.1000000238419,0,0,experiment,NA,NA,2,0.5,0.5,5,4,5,1,NA
fcp-trial,53,451269,0.0-14.0-0.0,voc_e2,12332,"[{""event"":""fullscreenenter"",""trial"":1,""time"":3374}]",NA,NA,NA,NA,NA,5,#FA92F8,#1CD855,0,10,0,40,0,3373.7999999523163,39,0,418.7000000476837,10,1,experiment,NA,NA,0,0.1,0.9,1,0,6,1,NA
fcp-trial,54,456778,0.0-15.0-0.0,voc_e2,12332,"[{""event"":""fullscreenenter"",""trial"":1,""time"":3374}]",NA,NA,NA,NA,NA,6,#FA92F8,#1CD855,0,10,0,38,1,3294,39,0,708.7999999523163,10,1,experiment,NA,NA,0,0.1,0.9,1,0,7,1,NA
fcp-trial,55,462319,0.0-16.0-0.0,voc_e2,12332,"[{""event"":""fullscreenenter"",""trial"":1,""time"":3374}]",NA,NA,NA,NA,NA,0,#3386FF,#D89F1C,0,10,0,38,1,3544.7000000476837,37,1,488.60000002384186,0,0,experiment,NA,NA,1,0.3,0.7,3,2,8,1,NA
fcp-trial,56,467856,0.0-17.0-0.0,voc_e2,12332,"[{""event"":""fullscreenenter"",""trial"":1,""time"":3374}]",NA,NA,NA,NA,NA,1,#D89F1C,#3386FF,10,10,1,38,1,3614.7000000476837,37,1,405.39999997615814,10,1,experiment,NA,NA,1,0.7,0.3,2,3,9,1,NA
fcp-trial,57,474039,0.0-18.0-0.0,voc_e2,12332,"[{""event"":""fullscreenenter"",""trial"":1,""time"":3374}]",NA,NA,NA,NA,NA,4,#741CD8,#D8271C,10,10,0,40,0,4025,39,0,649.7999999523163,10,1,experiment,NA,NA,2,0.5,0.5,5,4,10,1,NA
fcp-trial,58,480598,0.0-19.0-0.0,voc_e2,12332,"[{""event"":""fullscreenenter"",""trial"":1,""time"":3374}]",NA,NA,NA,NA,NA,0,#1CD855,#FA92F8,10,0,1,38,1,4535.600000023842,37,1,518.5,10,1,experiment,NA,NA,0,0.9,0.1,0,1,11,1,NA
fcp-trial,59,484878,0.0-20.0-0.0,voc_e2,12332,"[{""event"":""fullscreenenter"",""trial"":1,""time"":3374}]",NA,NA,NA,NA,NA,6,#D8271C,#741CD8,0,10,1,40,0,2315.100000023842,37,1,457.5,0,1,experiment,NA,NA,2,0.5,0.5,4,5,12,1,NA
fcp-trial,60,490260,0.0-21.0-0.0,voc_e2,12332,"[{""event"":""fullscreenenter"",""trial"":1,""time"":3374}]",NA,NA,NA,NA,NA,1,#1CD855,#FA92F8,0,0,1,38,1,3584.7000000476837,37,1,290.39999997615814,0,1,experiment,NA,NA,0,0.9,0.1,0,1,13,1,NA
fcp-trial,61,495410,0.0-22.0-0.0,voc_e2,12332,"[{""event"":""fullscreenenter"",""trial"":1,""time"":3374}]",NA,NA,NA,NA,NA,3,#3386FF,#D89F1C,0,10,0,38,1,3282,39,0,359,10,1,experiment,NA,NA,1,0.3,0.7,3,2,14,1,NA
fcp-trial,62,500400,0.0-23.0-0.0,voc_e2,12332,"[{""event"":""fullscreenenter"",""trial"":1,""time"":3374}]",NA,NA,NA,NA,NA,0,#741CD8,#D8271C,0,0,0,38,1,3141.899999976158,39,0,341,0,1,experiment,NA,NA,2,0.5,0.5,5,4,15,1,NA
fcp-trial,63,504438,0.0-24.0-0.0,voc_e2,12332,"[{""event"":""fullscreenenter"",""trial"":1,""time"":3374}]",NA,NA,NA,NA,NA,5,#3386FF,#D89F1C,0,10,0,38,1,2145.4000000953674,39,0,386.2999999523163,10,1,experiment,NA,NA,1,0.3,0.7,3,2,16,1,NA
fcp-trial,64,510070,0.0-25.0-0.0,voc_e2,12332,"[{""event"":""fullscreenenter"",""trial"":1,""time"":3374}]",NA,NA,NA,NA,NA,1,#741CD8,#D8271C,0,0,0,40,0,3685.0999999046326,37,1,439.10000002384186,0,0,experiment,NA,NA,2,0.5,0.5,5,4,17,1,NA
fcp-trial,65,514760,0.0-26.0-0.0,voc_e2,12332,"[{""event"":""fullscreenenter"",""trial"":1,""time"":3374}]",NA,NA,NA,NA,NA,3,#FA92F8,#1CD855,0,10,0,38,1,2003.6000000238419,39,0,1178.899999976158,10,1,experiment,NA,NA,0,0.1,0.9,1,0,18,1,NA
fcp-trial,66,517939,0.0-27.0-0.0,voc_e2,12332,"[{""event"":""fullscreenenter"",""trial"":1,""time"":3374}]",NA,NA,NA,NA,NA,2,#1CD855,#FA92F8,10,0,1,38,1,1194.7999999523163,37,1,477.6999999284744,10,1,experiment,NA,NA,0,0.9,0.1,0,1,19,1,NA
fcp-trial,67,523190,0.0-28.0-0.0,voc_e2,12332,"[{""event"":""fullscreenenter"",""trial"":1,""time"":3374}]",NA,NA,NA,NA,NA,3,#741CD8,#D8271C,10,0,0,40,0,3204.5,39,0,538.6000000238419,0,1,experiment,NA,NA,2,0.5,0.5,5,4,20,1,NA
fcp-trial,68,527379,0.0-29.0-0.0,voc_e2,12332,"[{""event"":""fullscreenenter"",""trial"":1,""time"":3374}]",NA,NA,NA,NA,NA,4,#D89F1C,#3386FF,0,0,1,38,1,2384.6999999284744,37,1,298,0,1,experiment,NA,NA,1,0.7,0.3,2,3,21,1,NA
fcp-trial,69,531509,0.0-30.0-0.0,voc_e2,12332,"[{""event"":""fullscreenenter"",""trial"":1,""time"":3374}]",NA,NA,NA,NA,NA,5,#1CD855,#FA92F8,10,0,1,38,1,2244.5,37,1,378.7000000476837,10,1,experiment,NA,NA,0,0.9,0.1,0,1,22,1,NA
fcp-trial,70,536211,0.0-31.0-0.0,voc_e2,12332,"[{""event"":""fullscreenenter"",""trial"":1,""time"":3374}]",NA,NA,NA,NA,NA,2,#D8271C,#741CD8,10,0,1,40,0,2694.7000000476837,37,1,500.5,10,1,experiment,NA,NA,2,0.5,0.5,4,5,23,1,NA
fcp-trial,71,541130,0.0-32.0-0.0,voc_e2,12332,"[{""event"":""fullscreenenter"",""trial"":1,""time"":3374}]",NA,NA,NA,NA,NA,5,#3386FF,#D89F1C,0,10,0,38,1,2963.8000000715256,39,0,449.2999999523163,10,1,experiment,NA,NA,1,0.3,0.7,3,2,24,1,NA
fcp-trial,72,545130,0.0-33.0-0.0,voc_e2,12332,"[{""event"":""fullscreenenter"",""trial"":1,""time"":3374}]",NA,NA,NA,NA,NA,0,#D8271C,#741CD8,10,10,1,38,1,2144.2000000476837,39,0,349.10000002384186,10,0,experiment,NA,NA,2,0.5,0.5,4,5,25,1,NA
fcp-trial,73,548901,0.0-34.0-0.0,voc_e2,12332,"[{""event"":""fullscreenenter"",""trial"":1,""time"":3374}]",NA,NA,NA,NA,NA,4,#D8271C,#741CD8,10,10,1,38,1,1903,39,0,361.2999999523163,10,0,experiment,NA,NA,2,0.5,0.5,4,5,26,1,NA
fcp-trial,74,553039,0.0-35.0-0.0,voc_e2,12332,"[{""event"":""fullscreenenter"",""trial"":1,""time"":3374}]",NA,NA,NA,NA,NA,0,#FA92F8,#1CD855,0,10,0,38,1,2033.5,39,0,598.1000000238419,10,1,experiment,NA,NA,0,0.1,0.9,1,0,27,1,NA
fcp-trial,75,556559,0.0-36.0-0.0,voc_e2,12332,"[{""event"":""fullscreenenter"",""trial"":1,""time"":3374}]",NA,NA,NA,NA,NA,0,#D89F1C,#3386FF,10,10,1,38,1,1645.1000000238419,37,1,368.2999999523163,10,1,experiment,NA,NA,1,0.7,0.3,2,3,28,1,NA
fcp-trial,76,559040,0.0-37.0-0.0,voc_e2,12332,"[{""event"":""fullscreenenter"",""trial"":1,""time"":3374}]",NA,NA,NA,NA,NA,6,#D89F1C,#3386FF,0,0,1,38,1,435.2000000476837,37,1,539.2000000476837,0,1,experiment,NA,NA,1,0.7,0.3,2,3,29,1,NA
fcp-trial,77,561599,0.0-38.0-0.0,voc_e2,12332,"[{""event"":""fullscreenenter"",""trial"":1,""time"":3374}]",NA,NA,NA,NA,NA,5,#D8271C,#741CD8,10,0,1,38,1,745.2000000476837,39,0,306.60000002384186,0,0,experiment,NA,NA,2,0.5,0.5,4,5,30,1,NA
fcp-trial,78,564110,0.0-39.0-0.0,voc_e2,12332,"[{""event"":""fullscreenenter"",""trial"":1,""time"":3374}]",NA,NA,NA,NA,NA,1,#D8271C,#741CD8,0,10,1,38,1,695.6000000238419,39,0,308.89999997615814,10,0,experiment,NA,NA,2,0.5,0.5,4,5,31,1,NA
fcp-trial,79,566569,0.0-40.0-0.0,voc_e2,12332,"[{""event"":""fullscreenenter"",""trial"":1,""time"":3374}]",NA,NA,NA,NA,NA,2,#1CD855,#FA92F8,10,0,1,38,1,646.2999999523163,37,1,306.2999999523163,10,1,experiment,NA,NA,0,0.9,0.1,0,1,32,1,NA
fcp-trial,80,568931,0.0-41.0-0.0,voc_e2,12332,"[{""event"":""fullscreenenter"",""trial"":1,""time"":3374}]",NA,NA,NA,NA,NA,4,#1CD855,#FA92F8,10,10,1,38,1,564.6999999284744,37,1,290.5,10,1,experiment,NA,NA,0,0.9,0.1,0,1,33,1,NA
fcp-trial,81,571370,0.0-42.0-0.0,voc_e2,12332,"[{""event"":""fullscreenenter"",""trial"":1,""time"":3374}]",NA,NA,NA,NA,NA,4,#D89F1C,#3386FF,10,0,1,38,1,672.6999999284744,37,1,259,10,1,experiment,NA,NA,1,0.7,0.3,2,3,34,1,NA
fcp-trial,82,574409,0.0-43.0-0.0,voc_e2,12332,"[{""event"":""fullscreenenter"",""trial"":1,""time"":3374}]",NA,NA,NA,NA,NA,3,#1CD855,#FA92F8,10,0,1,38,1,884.3999999761581,37,1,648.7999999523163,10,1,experiment,NA,NA,0,0.9,0.1,0,1,35,1,NA
fcp-trial,83,576702,0.0-44.0-0.0,voc_e2,12332,"[{""event"":""fullscreenenter"",""trial"":1,""time"":3374}]",NA,NA,NA,NA,NA,6,#741CD8,#D8271C,10,0,0,38,1,464.59999990463257,37,1,320.89999997615814,10,0,experiment,NA,NA,2,0.5,0.5,5,4,36,1,NA
fcp-trial,84,579050,0.0-45.0-0.0,voc_e2,12332,"[{""event"":""fullscreenenter"",""trial"":1,""time"":3374}]",NA,NA,NA,NA,NA,1,#3386FF,#D89F1C,0,10,0,38,1,521.6000000238419,39,0,318.8000000715256,10,1,experiment,NA,NA,1,0.3,0.7,3,2,37,1,NA
fcp-trial,85,581822,0.0-46.0-0.0,voc_e2,12332,"[{""event"":""fullscreenenter"",""trial"":1,""time"":3374}]",NA,NA,NA,NA,NA,1,#1CD855,#FA92F8,10,10,1,38,1,992.5,37,1,271.40000009536743,10,1,experiment,NA,NA,0,0.9,0.1,0,1,38,1,NA
fcp-trial,86,584121,0.0-47.0-0.0,voc_e2,12332,"[{""event"":""fullscreenenter"",""trial"":1,""time"":3374}]",NA,NA,NA,NA,NA,3,#741CD8,#D8271C,10,0,0,38,1,422.2999999523163,37,1,369.89999997615814,10,0,experiment,NA,NA,2,0.5,0.5,5,4,39,1,NA
fcp-trial,87,586393,0.0-48.0-0.0,voc_e2,12332,"[{""event"":""fullscreenenter"",""trial"":1,""time"":3374}]",NA,NA,NA,NA,NA,3,#3386FF,#D89F1C,0,0,0,38,1,391.2000000476837,39,0,371.2999999523163,0,1,experiment,NA,NA,1,0.3,0.7,3,2,40,1,NA
fcp-trial,88,588710,0.0-49.0-0.0,voc_e2,12332,"[{""event"":""fullscreenenter"",""trial"":1,""time"":3374}]",NA,NA,NA,NA,NA,2,#D89F1C,#3386FF,10,0,1,38,1,391.6999999284744,37,1,418.7000000476837,10,1,experiment,NA,NA,1,0.7,0.3,2,3,41,1,NA
fcp-trial,89,591099,0.0-50.0-0.0,voc_e2,12332,"[{""event"":""fullscreenenter"",""trial"":1,""time"":3374}]",NA,NA,NA,NA,NA,6,#FA92F8,#1CD855,0,10,0,38,1,534.1999999284744,39,0,349,10,1,experiment,NA,NA,0,0.1,0.9,1,0,42,1,NA
fcp-trial,90,593580,0.0-51.0-0.0,voc_e2,12332,"[{""event"":""fullscreenenter"",""trial"":1,""time"":3374}]",NA,NA,NA,NA,NA,4,#D89F1C,#3386FF,0,10,1,38,1,355.2999999523163,37,1,619.5999999046326,0,1,experiment,NA,NA,1,0.7,0.3,2,3,43,1,NA
fcp-trial,91,596039,0.0-52.0-0.0,voc_e2,12332,"[{""event"":""fullscreenenter"",""trial"":1,""time"":3374}]",NA,NA,NA,NA,NA,0,#D8271C,#741CD8,10,10,1,38,1,297,39,0,656.3999999761581,10,0,experiment,NA,NA,2,0.5,0.5,4,5,44,1,NA
fcp-trial,92,598479,0.0-53.0-0.0,voc_e2,12332,"[{""event"":""fullscreenenter"",""trial"":1,""time"":3374}]",NA,NA,NA,NA,NA,2,#1CD855,#FA92F8,10,0,1,38,1,544.5999999046326,37,1,388.5,10,1,experiment,NA,NA,0,0.9,0.1,0,1,45,1,NA
fcp-trial,93,600870,0.0-54.0-0.0,voc_e2,12332,"[{""event"":""fullscreenenter"",""trial"":1,""time"":3374}]",NA,NA,NA,NA,NA,5,#D8271C,#741CD8,0,10,1,38,1,444.2999999523163,39,0,438.89999997615814,10,0,experiment,NA,NA,2,0.5,0.5,4,5,46,2,NA
fcp-trial,94,603080,0.0-55.0-0.0,voc_e2,12332,"[{""event"":""fullscreenenter"",""trial"":1,""time"":3374}]",NA,NA,NA,NA,NA,4,#1CD855,#FA92F8,10,0,1,38,1,334.10000002384186,37,1,368.7000000476837,10,1,experiment,NA,NA,0,0.9,0.1,0,1,47,2,NA
fcp-trial,95,605560,0.0-56.0-0.0,voc_e2,12332,"[{""event"":""fullscreenenter"",""trial"":1,""time"":3374}]",NA,NA,NA,NA,NA,5,#3386FF,#D89F1C,0,10,0,38,1,664.2000000476837,39,0,309,10,1,experiment,NA,NA,1,0.3,0.7,3,2,48,2,NA
fcp-trial,96,608420,0.0-57.0-0.0,voc_e2,12332,"[{""event"":""fullscreenenter"",""trial"":1,""time"":3374}]",NA,NA,NA,NA,NA,0,#FA92F8,#1CD855,0,10,0,38,1,924.2000000476837,39,0,428.89999997615814,10,1,experiment,NA,NA,0,0.1,0.9,1,0,49,2,NA
fcp-trial,97,611211,0.0-58.0-0.0,voc_e2,12332,"[{""event"":""fullscreenenter"",""trial"":1,""time"":3374}]",NA,NA,NA,NA,NA,2,#3386FF,#D89F1C,0,0,0,38,1,891.9000000953674,39,0,390.39999997615814,0,1,experiment,NA,NA,1,0.3,0.7,3,2,50,2,NA
fcp-trial,98,613760,0.0-59.0-0.0,voc_e2,12332,"[{""event"":""fullscreenenter"",""trial"":1,""time"":3374}]",NA,NA,NA,NA,NA,1,#D8271C,#741CD8,10,10,1,38,1,613,39,0,429.8000000715256,10,0,experiment,NA,NA,2,0.5,0.5,4,5,51,2,NA
fcp-trial,99,616330,0.0-60.0-0.0,voc_e2,12332,"[{""event"":""fullscreenenter"",""trial"":1,""time"":3374}]",NA,NA,NA,NA,NA,6,#741CD8,#D8271C,0,0,0,38,1,654.5,37,1,407.7000000476837,0,0,experiment,NA,NA,2,0.5,0.5,5,4,52,2,NA
fcp-trial,100,619469,0.0-61.0-0.0,voc_e2,12332,"[{""event"":""fullscreenenter"",""trial"":1,""time"":3374}]",NA,NA,NA,NA,NA,1,#FA92F8,#1CD855,0,10,0,38,1,1284.1999999284744,39,0,348.7999999523163,10,1,experiment,NA,NA,0,0.1,0.9,1,0,53,2,NA
fcp-trial,101,621979,0.0-62.0-0.0,voc_e2,12332,"[{""event"":""fullscreenenter"",""trial"":1,""time"":3374}]",NA,NA,NA,NA,NA,3,#D8271C,#741CD8,10,0,1,38,1,525.6000000238419,39,0,476.7000000476837,0,0,experiment,NA,NA,2,0.5,0.5,4,5,54,2,NA
fcp-trial,102,624301,0.0-63.0-0.0,voc_e2,12332,"[{""event"":""fullscreenenter"",""trial"":1,""time"":3374}]",NA,NA,NA,NA,NA,1,#D89F1C,#3386FF,10,0,1,38,1,464.60000002384186,37,1,349.10000002384186,10,1,experiment,NA,NA,1,0.7,0.3,2,3,55,2,NA
fcp-trial,103,626580,0.0-64.0-0.0,voc_e2,12332,"[{""event"":""fullscreenenter"",""trial"":1,""time"":3374}]",NA,NA,NA,NA,NA,2,#D8271C,#741CD8,0,0,1,38,1,365.7000000476837,39,0,405.5,0,0,experiment,NA,NA,2,0.5,0.5,4,5,56,2,NA
fcp-trial,104,628941,0.0-65.0-0.0,voc_e2,12332,"[{""event"":""fullscreenenter"",""trial"":1,""time"":3374}]",NA,NA,NA,NA,NA,6,#1CD855,#FA92F8,10,0,1,38,1,273.8000000715256,37,1,580.4000000953674,10,1,experiment,NA,NA,0,0.9,0.1,0,1,57,2,NA
fcp-trial,105,631791,0.0-66.0-0.0,voc_e2,12332,"[{""event"":""fullscreenenter"",""trial"":1,""time"":3374}]",NA,NA,NA,NA,NA,0,#3386FF,#D89F1C,10,10,0,38,1,963.2000000476837,39,0,379.7000000476837,10,1,experiment,NA,NA,1,0.3,0.7,3,2,58,2,NA
fcp-trial,106,634279,0.0-67.0-0.0,voc_e2,12332,"[{""event"":""fullscreenenter"",""trial"":1,""time"":3374}]",NA,NA,NA,NA,NA,3,#D89F1C,#3386FF,10,0,1,38,1,534,37,1,447.89999997615814,10,1,experiment,NA,NA,1,0.7,0.3,2,3,59,2,NA
fcp-trial,107,637660,0.0-68.0-0.0,voc_e2,12332,"[{""event"":""fullscreenenter"",""trial"":1,""time"":3374}]",NA,NA,NA,NA,NA,5,#1CD855,#FA92F8,10,0,1,38,1,1246,39,0,629.5,0,0,experiment,NA,NA,0,0.9,0.1,0,1,60,2,NA
fcp-trial,108,641450,0.0-69.0-0.0,voc_e2,12332,"[{""event"":""fullscreenenter"",""trial"":1,""time"":3374}]",NA,NA,NA,NA,NA,4,#741CD8,#D8271C,10,10,0,38,1,1423.7000000476837,37,1,858.9000000953674,10,0,experiment,NA,NA,2,0.5,0.5,5,4,61,2,NA
fcp-trial,109,645650,0.0-70.0-0.0,voc_e2,12332,"[{""event"":""fullscreenenter"",""trial"":1,""time"":3374}]",NA,NA,NA,NA,NA,6,#D89F1C,#3386FF,10,0,1,38,1,2353.899999976158,37,1,338.8000000715256,10,1,experiment,NA,NA,1,0.7,0.3,2,3,62,2,NA
fcp-trial,110,647929,0.0-71.0-0.0,voc_e2,12332,"[{""event"":""fullscreenenter"",""trial"":1,""time"":3374}]",NA,NA,NA,NA,NA,3,#FA92F8,#1CD855,0,10,0,38,1,455.3000000715256,37,1,317.60000002384186,0,0,experiment,NA,NA,0,0.1,0.9,1,0,63,2,NA
fcp-trial,111,651240,0.0-72.0-0.0,voc_e2,12332,"[{""event"":""fullscreenenter"",""trial"":1,""time"":3374}]",NA,NA,NA,NA,NA,2,#D8271C,#741CD8,10,10,1,38,1,535.8999999761581,39,0,1267,10,0,experiment,NA,NA,2,0.5,0.5,4,5,64,2,NA
fcp-trial,112,653541,0.0-73.0-0.0,voc_e2,12332,"[{""event"":""fullscreenenter"",""trial"":1,""time"":3374}]",NA,NA,NA,NA,NA,0,#741CD8,#D8271C,10,10,0,38,1,425.5,37,1,368,10,0,experiment,NA,NA,2,0.5,0.5,5,4,65,2,NA
fcp-trial,113,656110,0.0-74.0-0.0,voc_e2,12332,"[{""event"":""fullscreenenter"",""trial"":1,""time"":3374}]",NA,NA,NA,NA,NA,1,#D89F1C,#3386FF,0,0,1,38,1,534,37,1,528.2999999523163,0,1,experiment,NA,NA,1,0.7,0.3,2,3,66,2,NA
fcp-trial,114,658411,0.0-75.0-0.0,voc_e2,12332,"[{""event"":""fullscreenenter"",""trial"":1,""time"":3374}]",NA,NA,NA,NA,NA,6,#1CD855,#FA92F8,10,0,1,38,1,335.10000002384186,37,1,459.40000009536743,10,1,experiment,NA,NA,0,0.9,0.1,0,1,67,2,NA
fcp-trial,115,661361,0.0-76.0-0.0,voc_e2,12332,"[{""event"":""fullscreenenter"",""trial"":1,""time"":3374}]",NA,NA,NA,NA,NA,1,#741CD8,#D8271C,0,0,0,38,1,525.2000000476837,37,1,917,0,0,experiment,NA,NA,2,0.5,0.5,5,4,68,2,NA
fcp-trial,116,663930,0.0-77.0-0.0,voc_e2,12332,"[{""event"":""fullscreenenter"",""trial"":1,""time"":3374}]",NA,NA,NA,NA,NA,3,#D89F1C,#3386FF,0,0,1,38,1,404.10000002384186,37,1,659,0,1,experiment,NA,NA,1,0.7,0.3,2,3,69,2,NA
fcp-trial,117,666320,0.0-78.0-0.0,voc_e2,12332,"[{""event"":""fullscreenenter"",""trial"":1,""time"":3374}]",NA,NA,NA,NA,NA,3,#FA92F8,#1CD855,0,10,0,38,1,405,39,0,478.40000009536743,10,1,experiment,NA,NA,0,0.1,0.9,1,0,70,2,NA
fcp-trial,118,668920,0.0-79.0-0.0,voc_e2,12332,"[{""event"":""fullscreenenter"",""trial"":1,""time"":3374}]",NA,NA,NA,NA,NA,4,#3386FF,#D89F1C,0,10,0,38,1,315.10000002384186,39,0,773.2000000476837,10,1,experiment,NA,NA,1,0.3,0.7,3,2,71,2,NA
fcp-trial,119,671620,0.0-80.0-0.0,voc_e2,12332,"[{""event"":""fullscreenenter"",""trial"":1,""time"":3374}]",NA,NA,NA,NA,NA,5,#D8271C,#741CD8,0,10,1,38,1,476.39999997615814,39,0,717.8999999761581,10,0,experiment,NA,NA,2,0.5,0.5,4,5,72,2,NA
fcp-trial,120,673810,0.0-81.0-0.0,voc_e2,12332,"[{""event"":""fullscreenenter"",""trial"":1,""time"":3374}]",NA,NA,NA,NA,NA,2,#FA92F8,#1CD855,0,10,0,38,1,315,39,0,369.10000002384186,10,1,experiment,NA,NA,0,0.1,0.9,1,0,73,2,NA
fcp-trial,121,676171,0.0-82.0-0.0,voc_e2,12332,"[{""event"":""fullscreenenter"",""trial"":1,""time"":3374}]",NA,NA,NA,NA,NA,0,#3386FF,#D89F1C,10,10,0,38,1,474,39,0,380.39999997615814,10,1,experiment,NA,NA,1,0.3,0.7,3,2,74,2,NA
fcp-trial,122,678730,0.0-83.0-0.0,voc_e2,12332,"[{""event"":""fullscreenenter"",""trial"":1,""time"":3374}]",NA,NA,NA,NA,NA,5,#3386FF,#D89F1C,0,10,0,38,1,514.6000000238419,39,0,537.3999999761581,10,1,experiment,NA,NA,1,0.3,0.7,3,2,75,2,NA
fcp-trial,123,681250,0.0-84.0-0.0,voc_e2,12332,"[{""event"":""fullscreenenter"",""trial"":1,""time"":3374}]",NA,NA,NA,NA,NA,4,#FA92F8,#1CD855,0,10,0,38,1,605.3999999761581,39,0,409.10000002384186,10,1,experiment,NA,NA,0,0.1,0.9,1,0,76,2,NA
fcp-trial,124,684621,0.0-85.0-0.0,voc_e2,12332,"[{""event"":""fullscreenenter"",""trial"":1,""time"":3374}]",NA,NA,NA,NA,NA,3,#D8271C,#741CD8,10,0,1,38,1,1164.5,39,0,698.5999999046326,0,0,experiment,NA,NA,2,0.5,0.5,4,5,77,2,NA
fcp-trial,125,687250,0.0-86.0-0.0,voc_e2,12332,"[{""event"":""fullscreenenter"",""trial"":1,""time"":3374}]",NA,NA,NA,NA,NA,0,#FA92F8,#1CD855,0,10,0,38,1,653.3000000715256,39,0,469.10000002384186,10,1,experiment,NA,NA,0,0.1,0.9,1,0,78,2,NA
fcp-trial,126,690460,0.0-87.0-0.0,voc_e2,12332,"[{""event"":""fullscreenenter"",""trial"":1,""time"":3374}]",NA,NA,NA,NA,NA,6,#741CD8,#D8271C,10,0,0,40,0,1126.8999999761581,37,1,576.3999999761581,10,0,experiment,NA,NA,2,0.5,0.5,5,4,79,2,NA
fcp-trial,127,694483,0.0-88.0-0.0,voc_e2,12332,"[{""event"":""fullscreenenter"",""trial"":1,""time"":3374}]",NA,NA,NA,NA,NA,6,#3386FF,#D89F1C,10,10,0,38,1,2212.8000000715256,39,0,300.89999997615814,10,1,experiment,NA,NA,1,0.3,0.7,3,2,80,2,NA
fcp-trial,128,698380,0.0-89.0-0.0,voc_e2,12332,"[{""event"":""fullscreenenter"",""trial"":1,""time"":3374}]",NA,NA,NA,NA,NA,4,#D8271C,#741CD8,0,10,1,40,0,1482.7000000476837,37,1,907.399999976158,0,1,experiment,NA,NA,2,0.5,0.5,4,5,81,2,NA
fcp-trial,129,701402,0.0-90.0-0.0,voc_e2,12332,"[{""event"":""fullscreenenter"",""trial"":1,""time"":3374}]",NA,NA,NA,NA,NA,1,#FA92F8,#1CD855,0,10,0,38,1,1256.6000000238419,39,0,256.8000000715256,10,1,experiment,NA,NA,0,0.1,0.9,1,0,82,2,NA
fcp-trial,130,706261,0.0-91.0-0.0,voc_e2,12332,"[{""event"":""fullscreenenter"",""trial"":1,""time"":3374}]",NA,NA,NA,NA,NA,2,#D89F1C,#3386FF,10,0,1,38,1,2791.9000000953674,37,1,558.8999999761581,10,1,experiment,NA,NA,1,0.7,0.3,2,3,83,2,NA
fcp-trial,131,709022,0.0-92.0-0.0,voc_e2,12332,"[{""event"":""fullscreenenter"",""trial"":1,""time"":3374}]",NA,NA,NA,NA,NA,5,#FA92F8,#1CD855,0,10,0,38,1,803.6000000238419,39,0,449.5,10,1,experiment,NA,NA,0,0.1,0.9,1,0,84,2,NA
fcp-trial,132,711492,0.0-93.0-0.0,voc_e2,12332,"[{""event"":""fullscreenenter"",""trial"":1,""time"":3374}]",NA,NA,NA,NA,NA,3,#1CD855,#FA92F8,10,0,1,38,1,533.6999999284744,37,1,429.3000000715256,10,1,experiment,NA,NA,0,0.9,0.1,0,1,85,2,NA
fcp-trial,133,714050,0.0-94.0-0.0,voc_e2,12332,"[{""event"":""fullscreenenter"",""trial"":1,""time"":3374}]",NA,NA,NA,NA,NA,0,#D89F1C,#3386FF,10,10,1,38,1,602.8999999761581,37,1,447,10,1,experiment,NA,NA,1,0.7,0.3,2,3,86,2,NA
fcp-trial,134,718472,0.0-95.0-0.0,voc_e2,12332,"[{""event"":""fullscreenenter"",""trial"":1,""time"":3374}]",NA,NA,NA,NA,NA,2,#D8271C,#741CD8,10,10,1,38,1,2026.4000000953674,39,0,888,10,0,experiment,NA,NA,2,0.5,0.5,4,5,87,2,NA
fcp-trial,135,722381,0.0-96.0-0.0,voc_e2,12332,"[{""event"":""fullscreenenter"",""trial"":1,""time"":3374}]",NA,NA,NA,NA,NA,6,#1CD855,#FA92F8,10,0,1,40,0,1965.6000000238419,37,1,438.1999999284744,10,1,experiment,NA,NA,0,0.9,0.1,0,1,88,2,NA
fcp-trial,136,725601,0.0-97.0-0.0,voc_e2,12332,"[{""event"":""fullscreenenter"",""trial"":1,""time"":3374}]",NA,NA,NA,NA,NA,6,#3386FF,#D89F1C,10,0,0,40,0,1104,37,1,607.6000000238419,10,0,experiment,NA,NA,1,0.3,0.7,3,2,89,2,NA
fcp-trial,137,728782,0.0-98.0-0.0,voc_e2,12332,"[{""event"":""fullscreenenter"",""trial"":1,""time"":3374}]",NA,NA,NA,NA,NA,0,#741CD8,#D8271C,0,10,0,38,1,1332.7000000476837,37,1,339.10000002384186,0,0,experiment,NA,NA,2,0.5,0.5,5,4,90,2,NA
fcp-trial,138,731792,0.0-99.0-0.0,voc_e2,12332,"[{""event"":""fullscreenenter"",""trial"":1,""time"":3374}]",NA,NA,NA,NA,NA,3,#741CD8,#D8271C,10,0,0,38,1,1144.6999999284744,37,1,360.60000002384186,10,0,experiment,NA,NA,2,0.5,0.5,5,4,91,3,NA
fcp-trial,139,734621,0.0-100.0-0.0,voc_e2,12332,"[{""event"":""fullscreenenter"",""trial"":1,""time"":3374}]",NA,NA,NA,NA,NA,2,#FA92F8,#1CD855,0,10,0,38,1,984.1999999284744,39,0,337.60000002384186,10,1,experiment,NA,NA,0,0.1,0.9,1,0,92,3,NA
fcp-trial,140,738092,0.0-101.0-0.0,voc_e2,12332,"[{""event"":""fullscreenenter"",""trial"":1,""time"":3374}]",NA,NA,NA,NA,NA,1,#D89F1C,#3386FF,0,0,1,38,1,1614.7000000476837,37,1,348.10000002384186,0,1,experiment,NA,NA,1,0.7,0.3,2,3,93,3,NA
fcp-trial,141,741411,0.0-102.0-0.0,voc_e2,12332,"[{""event"":""fullscreenenter"",""trial"":1,""time"":3374}]",NA,NA,NA,NA,NA,5,#D89F1C,#3386FF,0,0,1,40,0,1335,39,0,477.59999990463257,0,0,experiment,NA,NA,1,0.7,0.3,2,3,94,3,NA
fcp-trial,142,747961,0.0-103.0-0.0,voc_e2,12332,"[{""event"":""fullscreenenter"",""trial"":1,""time"":3374}]",NA,NA,NA,NA,NA,5,#D8271C,#741CD8,10,10,1,40,0,4654.700000047684,37,1,388.39999997615814,10,1,experiment,NA,NA,2,0.5,0.5,4,5,95,3,NA
fcp-trial,143,751652,0.0-104.0-0.0,voc_e2,12332,"[{""event"":""fullscreenenter"",""trial"":1,""time"":3374}]",NA,NA,NA,NA,NA,2,#3386FF,#D89F1C,0,0,0,38,1,1314.5,39,0,864.6999999284744,0,1,experiment,NA,NA,1,0.3,0.7,3,2,96,3,NA
fcp-trial,144,755663,0.0-105.0-0.0,voc_e2,12332,"[{""event"":""fullscreenenter"",""trial"":1,""time"":3374}]",NA,NA,NA,NA,NA,4,#1CD855,#FA92F8,10,0,1,38,1,2104.1999999284744,37,1,398.39999997615814,10,1,experiment,NA,NA,0,0.9,0.1,0,1,97,3,NA
fcp-trial,145,759731,0.0-106.0-0.0,voc_e2,12332,"[{""event"":""fullscreenenter"",""trial"":1,""time"":3374}]",NA,NA,NA,NA,NA,3,#D89F1C,#3386FF,0,0,1,38,1,2174.399999976158,37,1,387.89999997615814,0,1,experiment,NA,NA,1,0.7,0.3,2,3,98,3,NA
fcp-trial,146,763442,0.0-107.0-0.0,voc_e2,12332,"[{""event"":""fullscreenenter"",""trial"":1,""time"":3374}]",NA,NA,NA,NA,NA,4,#D8271C,#741CD8,10,0,1,40,0,1695.7999999523163,37,1,508.60000002384186,10,1,experiment,NA,NA,2,0.5,0.5,4,5,99,3,NA
fcp-trial,147,766602,0.0-108.0-0.0,voc_e2,12332,"[{""event"":""fullscreenenter"",""trial"":1,""time"":3374}]",NA,NA,NA,NA,NA,0,#FA92F8,#1CD855,0,0,0,38,1,1293.5999999046326,39,0,358.2000000476837,0,1,experiment,NA,NA,0,0.1,0.9,1,0,100,3,NA
fcp-trial,148,769782,0.0-109.0-0.0,voc_e2,12332,"[{""event"":""fullscreenenter"",""trial"":1,""time"":3374}]",NA,NA,NA,NA,NA,1,#1CD855,#FA92F8,10,0,1,38,1,704.3000000715256,37,1,970,10,1,experiment,NA,NA,0,0.9,0.1,0,1,101,3,NA
fcp-trial,149,772631,0.0-110.0-0.0,voc_e2,12332,"[{""event"":""fullscreenenter"",""trial"":1,""time"":3374}]",NA,NA,NA,NA,NA,6,#741CD8,#D8271C,0,0,0,40,0,851.7000000476837,39,0,489.10000002384186,0,1,experiment,NA,NA,2,0.5,0.5,5,4,102,3,NA
fcp-trial,150,776224,0.0-111.0-0.0,voc_e2,12332,"[{""event"":""fullscreenenter"",""trial"":1,""time"":3374}]",NA,NA,NA,NA,NA,4,#D89F1C,#3386FF,0,0,1,38,1,1524.8999999761581,37,1,561,0,1,experiment,NA,NA,1,0.7,0.3,2,3,103,3,NA
fcp-trial,151,779552,0.0-112.0-0.0,voc_e2,12332,"[{""event"":""fullscreenenter"",""trial"":1,""time"":3374}]",NA,NA,NA,NA,NA,5,#1CD855,#FA92F8,10,0,1,40,0,1202.5,39,0,618.8000000715256,0,0,experiment,NA,NA,0,0.9,0.1,0,1,104,3,NA
fcp-trial,152,783542,0.0-113.0-0.0,voc_e2,12332,"[{""event"":""fullscreenenter"",""trial"":1,""time"":3374}]",NA,NA,NA,NA,NA,1,#741CD8,#D8271C,10,10,0,38,1,1515.2999999523163,37,1,967.399999976158,10,0,experiment,NA,NA,2,0.5,0.5,5,4,105,3,NA
audio-instructions,153,790853,0.0-114.0,voc_e2,12332,"[{""event"":""fullscreenenter"",""trial"":1,""time"":3374}]",NA,2492.2999999523163,static/audio/pause.wav,NA,0,NA,NA,NA,NA,NA,NA,NA,NA,NA,NA,NA,NA,NA,NA,NA,NA,NA,NA,NA,NA,NA,NA,NA,NA,NA
fcp-trial,154,795264,0.0-115.0-0.0,voc_e2,12332,"[{""event"":""fullscreenenter"",""trial"":1,""time"":3374}]",NA,NA,NA,NA,NA,3,#D8271C,#741CD8,10,10,1,38,1,2544.600000023842,39,0,339.1999999284744,10,0,experiment,NA,NA,2,0.5,0.5,4,5,106,3,NA
fcp-trial,155,799483,0.0-116.0-0.0,voc_e2,12332,"[{""event"":""fullscreenenter"",""trial"":1,""time"":3374}]",NA,NA,NA,NA,NA,4,#D89F1C,#3386FF,10,0,1,38,1,2372.399999976158,37,1,323.2999999523163,10,1,experiment,NA,NA,1,0.7,0.3,2,3,107,3,NA
fcp-trial,156,803870,0.0-117.0-0.0,voc_e2,12332,"[{""event"":""fullscreenenter"",""trial"":1,""time"":3374}]",NA,NA,NA,NA,NA,4,#FA92F8,#1CD855,0,10,0,38,1,2522.7999999523163,39,0,340.39999997615814,10,1,experiment,NA,NA,0,0.1,0.9,1,0,108,3,NA
fcp-trial,157,806939,0.0-118.0-0.0,voc_e2,12332,"[{""event"":""fullscreenenter"",""trial"":1,""time"":3374}]",NA,NA,NA,NA,NA,2,#D8271C,#741CD8,0,10,1,38,1,1086.8999999761581,37,1,453.89999997615814,0,1,experiment,NA,NA,2,0.5,0.5,4,5,109,3,NA
fcp-trial,158,810342,0.0-119.0-0.0,voc_e2,12332,"[{""event"":""fullscreenenter"",""trial"":1,""time"":3374}]",NA,NA,NA,NA,NA,6,#D8271C,#741CD8,10,10,1,40,0,1428.7000000476837,37,1,466.39999997615814,10,1,experiment,NA,NA,2,0.5,0.5,4,5,110,3,NA
fcp-trial,159,813911,0.0-120.0-0.0,voc_e2,12332,"[{""event"":""fullscreenenter"",""trial"":1,""time"":3374}]",NA,NA,NA,NA,NA,6,#D89F1C,#3386FF,0,10,1,40,0,1633.6999999284744,37,1,410.5,0,1,experiment,NA,NA,1,0.7,0.3,2,3,111,3,NA
fcp-trial,160,817390,0.0-121.0-0.0,voc_e2,12332,"[{""event"":""fullscreenenter"",""trial"":1,""time"":3374}]",NA,NA,NA,NA,NA,3,#1CD855,#FA92F8,10,0,1,38,1,1316.3999999761581,37,1,641.7999999523163,10,1,experiment,NA,NA,0,0.9,0.1,0,1,112,3,NA
fcp-trial,161,820903,0.0-122.0-0.0,voc_e2,12332,"[{""event"":""fullscreenenter"",""trial"":1,""time"":3374}]",NA,NA,NA,NA,NA,1,#D89F1C,#3386FF,10,10,1,38,1,1586.6000000238419,37,1,419.39999997615814,10,1,experiment,NA,NA,1,0.7,0.3,2,3,113,3,NA
fcp-trial,162,824202,0.0-123.0-0.0,voc_e2,12332,"[{""event"":""fullscreenenter"",""trial"":1,""time"":3374}]",NA,NA,NA,NA,NA,5,#D8271C,#741CD8,0,0,1,40,0,1276.5,39,0,516,0,0,experiment,NA,NA,2,0.5,0.5,4,5,114,3,NA
fcp-trial,163,828842,0.0-124.0-0.0,voc_e2,12332,"[{""event"":""fullscreenenter"",""trial"":1,""time"":3374}]",NA,NA,NA,NA,NA,0,#3386FF,#D89F1C,10,10,0,38,1,2185.1999999284744,39,0,947.8000000715256,10,1,experiment,NA,NA,1,0.3,0.7,3,2,115,3,NA
fcp-trial,164,832892,0.0-125.0-0.0,voc_e2,12332,"[{""event"":""fullscreenenter"",""trial"":1,""time"":3374}]",NA,NA,NA,NA,NA,1,#741CD8,#D8271C,0,10,0,38,1,1115,37,1,1428.899999976158,0,0,experiment,NA,NA,2,0.5,0.5,5,4,116,3,NA
fcp-trial,165,836063,0.0-126.0-0.0,voc_e2,12332,"[{""event"":""fullscreenenter"",""trial"":1,""time"":3374}]",NA,NA,NA,NA,NA,5,#1CD855,#FA92F8,10,0,1,40,0,1274.7999999523163,37,1,389.60000002384186,10,1,experiment,NA,NA,0,0.9,0.1,0,1,117,3,NA
fcp-trial,166,839562,0.0-127.0-0.0,voc_e2,12332,"[{""event"":""fullscreenenter"",""trial"":1,""time"":3374}]",NA,NA,NA,NA,NA,4,#741CD8,#D8271C,10,10,0,40,0,1544.6000000238419,37,1,447.60000002384186,10,0,experiment,NA,NA,2,0.5,0.5,5,4,118,3,NA
fcp-trial,167,842582,0.0-128.0-0.0,voc_e2,12332,"[{""event"":""fullscreenenter"",""trial"":1,""time"":3374}]",NA,NA,NA,NA,NA,6,#1CD855,#FA92F8,10,0,1,40,0,1046.1999999284744,39,0,466.5,0,0,experiment,NA,NA,0,0.9,0.1,0,1,119,3,NA
fcp-trial,168,846083,0.0-129.0-0.0,voc_e2,12332,"[{""event"":""fullscreenenter"",""trial"":1,""time"":3374}]",NA,NA,NA,NA,NA,3,#D89F1C,#3386FF,10,0,1,38,1,1526.7999999523163,37,1,468.7000000476837,10,1,experiment,NA,NA,1,0.7,0.3,2,3,120,3,NA
fcp-trial,169,849254,0.0-130.0-0.0,voc_e2,12332,"[{""event"":""fullscreenenter"",""trial"":1,""time"":3374}]",NA,NA,NA,NA,NA,2,#D89F1C,#3386FF,10,0,1,38,1,1213.6000000238419,37,1,450.5,10,1,experiment,NA,NA,1,0.7,0.3,2,3,121,3,NA
fcp-trial,170,852543,0.0-131.0-0.0,voc_e2,12332,"[{""event"":""fullscreenenter"",""trial"":1,""time"":3374}]",NA,NA,NA,NA,NA,0,#741CD8,#D8271C,0,10,0,38,1,1272.7000000476837,37,1,509.39999997615814,0,0,experiment,NA,NA,2,0.5,0.5,5,4,122,3,NA
fcp-trial,171,859112,0.0-132.0-0.0,voc_e2,12332,"[{""event"":""fullscreenenter"",""trial"":1,""time"":3374}]",NA,NA,NA,NA,NA,1,#FA92F8,#1CD855,0,10,0,38,1,4375.299999952316,39,0,687,10,1,experiment,NA,NA,0,0.1,0.9,1,0,123,3,NA
fcp-trial,172,862952,0.0-133.0-0.0,voc_e2,12332,"[{""event"":""fullscreenenter"",""trial"":1,""time"":3374}]",NA,NA,NA,NA,NA,2,#FA92F8,#1CD855,0,10,0,38,1,1996.3000000715256,39,0,336.7999999523163,10,1,experiment,NA,NA,0,0.1,0.9,1,0,124,3,NA
fcp-trial,173,865472,0.0-134.0-0.0,voc_e2,12332,"[{""event"":""fullscreenenter"",""trial"":1,""time"":3374}]",NA,NA,NA,NA,NA,0,#1CD855,#FA92F8,10,0,1,38,1,594.3999999761581,37,1,418.5,10,1,experiment,NA,NA,0,0.9,0.1,0,1,125,3,NA
fcp-trial,174,868742,0.0-135.0-0.0,voc_e2,12332,"[{""event"":""fullscreenenter"",""trial"":1,""time"":3374}]",NA,NA,NA,NA,NA,5,#3386FF,#D89F1C,0,10,0,40,0,1314.2000000476837,37,1,449,0,0,experiment,NA,NA,1,0.3,0.7,3,2,126,3,NA
fcp-trial,175,872113,0.0-136.0-0.0,voc_e2,12332,"[{""event"":""fullscreenenter"",""trial"":1,""time"":3374}]",NA,NA,NA,NA,NA,0,#1CD855,#FA92F8,10,0,1,38,1,1544.2000000476837,37,1,318.5,10,1,experiment,NA,NA,0,0.9,0.1,0,1,127,3,NA
fcp-trial,176,875093,0.0-137.0-0.0,voc_e2,12332,"[{""event"":""fullscreenenter"",""trial"":1,""time"":3374}]",NA,NA,NA,NA,NA,5,#D8271C,#741CD8,0,0,1,40,0,1002.3000000715256,37,1,467.60000002384186,0,1,experiment,NA,NA,2,0.5,0.5,4,5,128,3,NA
fcp-trial,177,878163,0.0-138.0-0.0,voc_e2,12332,"[{""event"":""fullscreenenter"",""trial"":1,""time"":3374}]",NA,NA,NA,NA,NA,4,#1CD855,#FA92F8,10,0,1,38,1,123.60000002384186,37,1,1437.7000000476835,10,1,experiment,NA,NA,0,0.9,0.1,0,1,129,3,NA
fcp-trial,178,881842,0.0-139.0-0.0,voc_e2,12332,"[{""event"":""fullscreenenter"",""trial"":1,""time"":3374}]",NA,NA,NA,NA,NA,4,#D89F1C,#3386FF,10,0,1,38,1,1842.8999999761581,37,1,324.7999999523163,10,1,experiment,NA,NA,1,0.7,0.3,2,3,130,3,NA
fcp-trial,179,885452,0.0-140.0-0.0,voc_e2,12332,"[{""event"":""fullscreenenter"",""trial"":1,""time"":3374}]",NA,NA,NA,NA,NA,0,#3386FF,#D89F1C,10,10,0,38,1,1795.3999999761581,39,0,307.5,10,1,experiment,NA,NA,1,0.3,0.7,3,2,131,3,NA
fcp-trial,180,889052,0.0-141.0-0.0,voc_e2,12332,"[{""event"":""fullscreenenter"",""trial"":1,""time"":3374}]",NA,NA,NA,NA,NA,0,#D8271C,#741CD8,0,0,1,38,1,1364.7999999523163,39,0,726.1000000238419,0,0,experiment,NA,NA,2,0.5,0.5,4,5,132,3,NA
fcp-trial,181,891642,0.0-142.0-0.0,voc_e2,12332,"[{""event"":""fullscreenenter"",""trial"":1,""time"":3374}]",NA,NA,NA,NA,NA,2,#3386FF,#D89F1C,0,10,0,38,1,307.39999997615814,39,0,776.2000000476837,10,1,experiment,NA,NA,1,0.3,0.7,3,2,133,3,NA
fcp-trial,182,894533,0.0-143.0-0.0,voc_e2,12332,"[{""event"":""fullscreenenter"",""trial"":1,""time"":3374}]",NA,NA,NA,NA,NA,6,#FA92F8,#1CD855,0,10,0,38,1,714.6000000238419,39,0,669.3999999761581,10,1,experiment,NA,NA,0,0.1,0.9,1,0,134,3,NA
fcp-trial,183,897712,0.0-144.0-0.0,voc_e2,12332,"[{""event"":""fullscreenenter"",""trial"":1,""time"":3374}]",NA,NA,NA,NA,NA,5,#FA92F8,#1CD855,0,10,0,40,0,1184.2999999523163,37,1,487.40000009536743,0,0,experiment,NA,NA,0,0.1,0.9,1,0,135,3,NA
fcp-trial,184,901256,0.0-145.0-0.0,voc_e2,12332,"[{""event"":""fullscreenenter"",""trial"":1,""time"":3374}]",NA,NA,NA,NA,NA,3,#741CD8,#D8271C,0,10,0,38,1,1614.5999999046326,37,1,422.3000000715256,0,0,experiment,NA,NA,2,0.5,0.5,5,4,136,4,NA
fcp-trial,185,904233,0.0-146.0-0.0,voc_e2,12332,"[{""event"":""fullscreenenter"",""trial"":1,""time"":3374}]",NA,NA,NA,NA,NA,1,#D8271C,#741CD8,10,10,1,38,1,1011.1000000238419,39,0,458.60000002384186,10,0,experiment,NA,NA,2,0.5,0.5,4,5,137,4,NA
fcp-trial,186,907563,0.0-147.0-0.0,voc_e2,12332,"[{""event"":""fullscreenenter"",""trial"":1,""time"":3374}]",NA,NA,NA,NA,NA,1,#D89F1C,#3386FF,10,0,1,38,1,1163.6000000238419,37,1,656.8999999761581,10,1,experiment,NA,NA,1,0.7,0.3,2,3,138,4,NA
fcp-trial,187,910633,0.0-148.0-0.0,voc_e2,12332,"[{""event"":""fullscreenenter"",""trial"":1,""time"":3374}]",NA,NA,NA,NA,NA,5,#3386FF,#D89F1C,10,0,0,40,0,1143.1000000238419,37,1,420.1999999284744,10,0,experiment,NA,NA,1,0.3,0.7,3,2,139,4,NA
fcp-trial,188,914152,0.0-149.0-0.0,voc_e2,12332,"[{""event"":""fullscreenenter"",""trial"":1,""time"":3374}]",NA,NA,NA,NA,NA,2,#FA92F8,#1CD855,0,10,0,38,1,1643.8000000715256,39,0,367.10000002384186,10,1,experiment,NA,NA,0,0.1,0.9,1,0,140,4,NA
fcp-trial,189,916999,0.0-150.0-0.0,voc_e2,12332,"[{""event"":""fullscreenenter"",""trial"":1,""time"":3374}]",NA,NA,NA,NA,NA,6,#741CD8,#D8271C,0,10,0,40,0,934.5,39,0,399.39999997615814,10,1,experiment,NA,NA,2,0.5,0.5,5,4,141,4,NA
fcp-trial,190,920502,0.0-151.0-0.0,voc_e2,12332,"[{""event"":""fullscreenenter"",""trial"":1,""time"":3374}]",NA,NA,NA,NA,NA,4,#741CD8,#D8271C,10,10,0,38,1,1368.8999999761581,37,1,627.4000000953674,10,0,experiment,NA,NA,2,0.5,0.5,5,4,142,4,NA
fcp-trial,191,924223,0.0-152.0-0.0,voc_e2,12332,"[{""event"":""fullscreenenter"",""trial"":1,""time"":3374}]",NA,NA,NA,NA,NA,1,#FA92F8,#1CD855,0,10,0,38,1,1875.1999999284744,39,0,338.6999999284744,10,1,experiment,NA,NA,0,0.1,0.9,1,0,143,4,NA
fcp-trial,192,927332,0.0-153.0-0.0,voc_e2,12332,"[{""event"":""fullscreenenter"",""trial"":1,""time"":3374}]",NA,NA,NA,NA,NA,6,#D89F1C,#3386FF,10,10,1,40,0,1184.6000000238419,37,1,419.09999990463257,10,1,experiment,NA,NA,1,0.7,0.3,2,3,144,4,NA
fcp-trial,193,931823,0.0-154.0-0.0,voc_e2,12332,"[{""event"":""fullscreenenter"",""trial"":1,""time"":3374}]",NA,NA,NA,NA,NA,3,#D89F1C,#3386FF,10,0,1,38,1,1415.6999999284744,37,1,1566.2999999523165,10,1,experiment,NA,NA,1,0.7,0.3,2,3,145,4,NA
fcp-trial,194,935595,0.0-155.0-0.0,voc_e2,12332,"[{""event"":""fullscreenenter"",""trial"":1,""time"":3374}]",NA,NA,NA,NA,NA,2,#741CD8,#D8271C,10,0,0,38,1,1651.8000000715256,37,1,612.1999999284744,10,0,experiment,NA,NA,2,0.5,0.5,5,4,146,4,NA
fcp-trial,195,938697,0.0-156.0-0.0,voc_e2,12332,"[{""event"":""fullscreenenter"",""trial"":1,""time"":3374}]",NA,NA,NA,NA,NA,3,#1CD855,#FA92F8,0,0,1,38,1,992.5,37,1,588.6000000238419,0,1,experiment,NA,NA,0,0.9,0.1,0,1,147,4,NA
fcp-trial,196,942663,0.0-157.0-0.0,voc_e2,12332,"[{""event"":""fullscreenenter"",""trial"":1,""time"":3374}]",NA,NA,NA,NA,NA,2,#FA92F8,#1CD855,0,10,0,38,1,2110.0999999046326,39,0,346.39999997615814,10,1,experiment,NA,NA,0,0.1,0.9,1,0,148,4,NA
fcp-trial,197,945762,0.0-158.0-0.0,voc_e2,12332,"[{""event"":""fullscreenenter"",""trial"":1,""time"":3374}]",NA,NA,NA,NA,NA,4,#3386FF,#D89F1C,0,10,0,40,0,1031.8999999761581,37,1,559.2999999523163,0,0,experiment,NA,NA,1,0.3,0.7,3,2,149,4,NA
fcp-trial,198,950106,0.0-159.0-0.0,voc_e2,12332,"[{""event"":""fullscreenenter"",""trial"":1,""time"":3374}]",NA,NA,NA,NA,NA,3,#3386FF,#D89F1C,0,0,0,38,1,1705.1000000238419,39,0,1130.2999999523165,0,1,experiment,NA,NA,1,0.3,0.7,3,2,150,4,NA
fcp-trial,199,954343,0.0-160.0-0.0,voc_e2,12332,"[{""event"":""fullscreenenter"",""trial"":1,""time"":3374}]",NA,NA,NA,NA,NA,1,#FA92F8,#1CD855,0,10,0,38,1,1402.7000000476837,39,0,1328.100000023842,10,1,experiment,NA,NA,0,0.1,0.9,1,0,151,4,NA
fcp-trial,200,959704,0.0-161.0-0.0,voc_e2,12332,"[{""event"":""fullscreenenter"",""trial"":1,""time"":3374}]",NA,NA,NA,NA,NA,0,#D89F1C,#3386FF,0,0,1,38,1,1284.5,37,1,2568,0,1,experiment,NA,NA,1,0.7,0.3,2,3,152,4,NA
fcp-trial,201,963144,0.0-162.0-0.0,voc_e2,12332,"[{""event"":""fullscreenenter"",""trial"":1,""time"":3374}]",NA,NA,NA,NA,NA,3,#741CD8,#D8271C,10,0,0,38,1,1343.5,37,1,590.2000000476837,10,0,experiment,NA,NA,2,0.5,0.5,5,4,153,4,NA
fcp-trial,202,966463,0.0-163.0-0.0,voc_e2,12332,"[{""event"":""fullscreenenter"",""trial"":1,""time"":3374}]",NA,NA,NA,NA,NA,2,#3386FF,#D89F1C,0,0,0,38,1,1411.8999999761581,39,0,398.60000002384186,0,1,experiment,NA,NA,1,0.3,0.7,3,2,154,4,NA
fcp-trial,203,970203,0.0-164.0-0.0,voc_e2,12332,"[{""event"":""fullscreenenter"",""trial"":1,""time"":3374}]",NA,NA,NA,NA,NA,4,#1CD855,#FA92F8,10,0,1,38,1,1864.8999999761581,37,1,367.6999999284744,10,1,experiment,NA,NA,0,0.9,0.1,0,1,155,4,NA
fcp-trial,204,973285,0.0-165.0-0.0,voc_e2,12332,"[{""event"":""fullscreenenter"",""trial"":1,""time"":3374}]",NA,NA,NA,NA,NA,6,#741CD8,#D8271C,0,0,0,40,0,1046.2000000476837,37,1,528.6999999284744,0,0,experiment,NA,NA,2,0.5,0.5,5,4,156,4,NA
fcp-trial,205,977477,0.0-166.0-0.0,voc_e2,12332,"[{""event"":""fullscreenenter"",""trial"":1,""time"":3374}]",NA,NA,NA,NA,NA,0,#FA92F8,#1CD855,0,10,0,38,1,2291.100000023842,39,0,392.60000002384186,10,1,experiment,NA,NA,0,0.1,0.9,1,0,157,4,NA
fcp-trial,206,980403,0.0-167.0-0.0,voc_e2,12332,"[{""event"":""fullscreenenter"",""trial"":1,""time"":3374}]",NA,NA,NA,NA,NA,6,#FA92F8,#1CD855,0,10,0,40,0,790.3999999761581,37,1,627.3000000715256,0,0,experiment,NA,NA,0,0.1,0.9,1,0,158,4,NA
fcp-trial,207,984884,0.0-168.0-0.0,voc_e2,12332,"[{""event"":""fullscreenenter"",""trial"":1,""time"":3374}]",NA,NA,NA,NA,NA,5,#D89F1C,#3386FF,0,0,1,40,0,2544.899999976158,39,0,428.1999999284744,0,0,experiment,NA,NA,1,0.7,0.3,2,3,159,4,NA
fcp-trial,208,987765,0.0-169.0-0.0,voc_e2,12332,"[{""event"":""fullscreenenter"",""trial"":1,""time"":3374}]",NA,NA,NA,NA,NA,2,#D8271C,#741CD8,0,10,1,38,1,832.6999999284744,39,0,541.2999999523163,10,0,experiment,NA,NA,2,0.5,0.5,4,5,160,4,NA
fcp-trial,209,992663,0.0-170.0-0.0,voc_e2,12332,"[{""event"":""fullscreenenter"",""trial"":1,""time"":3374}]",NA,NA,NA,NA,NA,3,#1CD855,#FA92F8,10,0,1,38,1,3072.399999976158,37,1,317.8000000715256,10,1,experiment,NA,NA,0,0.9,0.1,0,1,161,4,NA
fcp-trial,210,996643,0.0-171.0-0.0,voc_e2,12332,"[{""event"":""fullscreenenter"",""trial"":1,""time"":3374}]",NA,NA,NA,NA,NA,0,#741CD8,#D8271C,0,0,0,38,1,2205.0999999046326,37,1,267,0,0,experiment,NA,NA,2,0.5,0.5,5,4,162,4,NA
fcp-trial,211,1000043,0.0-172.0-0.0,voc_e2,12332,"[{""event"":""fullscreenenter"",""trial"":1,""time"":3374}]",NA,NA,NA,NA,NA,1,#D89F1C,#3386FF,10,0,1,38,1,834.1000000238419,37,1,1059.2999999523165,10,1,experiment,NA,NA,1,0.7,0.3,2,3,163,4,NA
fcp-trial,212,1004613,0.0-173.0-0.0,voc_e2,12332,"[{""event"":""fullscreenenter"",""trial"":1,""time"":3374}]",NA,NA,NA,NA,NA,1,#D8271C,#741CD8,10,0,1,38,1,1864.3999999761581,39,0,1199.2999999523165,0,0,experiment,NA,NA,2,0.5,0.5,4,5,164,4,NA
fcp-trial,213,1007455,0.0-174.0-0.0,voc_e2,12332,"[{""event"":""fullscreenenter"",""trial"":1,""time"":3374}]",NA,NA,NA,NA,NA,6,#D89F1C,#3386FF,0,10,1,40,0,935.8000000715256,37,1,397.7999999523163,0,1,experiment,NA,NA,1,0.7,0.3,2,3,165,4,NA
fcp-trial,214,1010564,0.0-175.0-0.0,voc_e2,12332,"[{""event"":""fullscreenenter"",""trial"":1,""time"":3374}]",NA,NA,NA,NA,NA,5,#FA92F8,#1CD855,0,10,0,40,0,1183.2999999523163,37,1,419.2999999523163,0,0,experiment,NA,NA,0,0.1,0.9,1,0,166,4,NA
fcp-trial,215,1013453,0.0-176.0-0.0,voc_e2,12332,"[{""event"":""fullscreenenter"",""trial"":1,""time"":3374}]",NA,NA,NA,NA,NA,4,#D8271C,#741CD8,10,10,1,38,1,1053.5,39,0,328.8000000715256,10,0,experiment,NA,NA,2,0.5,0.5,4,5,167,4,NA
fcp-trial,216,1016104,0.0-177.0-0.0,voc_e2,12332,"[{""event"":""fullscreenenter"",""trial"":1,""time"":3374}]",NA,NA,NA,NA,NA,5,#741CD8,#D8271C,10,10,0,40,0,784.5,37,1,359,10,0,experiment,NA,NA,2,0.5,0.5,5,4,168,4,NA
fcp-trial,217,1019104,0.0-178.0-0.0,voc_e2,12332,"[{""event"":""fullscreenenter"",""trial"":1,""time"":3374}]",NA,NA,NA,NA,NA,1,#1CD855,#FA92F8,10,10,1,38,1,761.6000000238419,37,1,727.3999999761581,10,1,experiment,NA,NA,0,0.9,0.1,0,1,169,4,NA
fcp-trial,218,1022224,0.0-179.0-0.0,voc_e2,12332,"[{""event"":""fullscreenenter"",""trial"":1,""time"":3374}]",NA,NA,NA,NA,NA,4,#741CD8,#D8271C,10,0,0,38,1,1314.5,37,1,297.5,10,0,experiment,NA,NA,2,0.5,0.5,5,4,170,4,NA
fcp-trial,219,1025174,0.0-180.0-0.0,voc_e2,12332,"[{""event"":""fullscreenenter"",""trial"":1,""time"":3374}]",NA,NA,NA,NA,NA,1,#741CD8,#D8271C,0,10,0,38,1,904.5,37,1,539.7000000476837,0,0,experiment,NA,NA,2,0.5,0.5,5,4,171,4,NA
fcp-trial,220,1028253,0.0-181.0-0.0,voc_e2,12332,"[{""event"":""fullscreenenter"",""trial"":1,""time"":3374}]",NA,NA,NA,NA,NA,6,#FA92F8,#1CD855,0,10,0,40,0,1064,37,1,509.2999999523163,0,0,experiment,NA,NA,0,0.1,0.9,1,0,172,4,NA
fcp-trial,221,1032863,0.0-182.0-0.0,voc_e2,12332,"[{""event"":""fullscreenenter"",""trial"":1,""time"":3374}]",NA,NA,NA,NA,NA,0,#3386FF,#D89F1C,10,10,0,38,1,1655.5999999046326,39,0,1446.2999999523165,10,1,experiment,NA,NA,1,0.3,0.7,3,2,173,4,NA
fcp-trial,222,1036265,0.0-183.0-0.0,voc_e2,12332,"[{""event"":""fullscreenenter"",""trial"":1,""time"":3374}]",NA,NA,NA,NA,NA,3,#D8271C,#741CD8,10,0,1,38,1,945.3999999761581,39,0,949.399999976158,0,0,experiment,NA,NA,2,0.5,0.5,4,5,174,4,NA
fcp-trial,223,1040143,0.0-184.0-0.0,voc_e2,12332,"[{""event"":""fullscreenenter"",""trial"":1,""time"":3374}]",NA,NA,NA,NA,NA,2,#D89F1C,#3386FF,10,0,1,38,1,2082.600000023842,37,1,289.5,10,1,experiment,NA,NA,1,0.7,0.3,2,3,175,4,NA
fcp-trial,224,1043344,0.0-185.0-0.0,voc_e2,12332,"[{""event"":""fullscreenenter"",""trial"":1,""time"":3374}]",NA,NA,NA,NA,NA,0,#1CD855,#FA92F8,10,0,1,38,1,837.5,37,1,856,10,1,experiment,NA,NA,0,0.9,0.1,0,1,176,4,NA
fcp-trial,225,1046264,0.0-186.0-0.0,voc_e2,12332,"[{""event"":""fullscreenenter"",""trial"":1,""time"":3374}]",NA,NA,NA,NA,NA,3,#D89F1C,#3386FF,10,0,1,38,1,984.3999999761581,37,1,428.89999997615814,10,1,experiment,NA,NA,1,0.7,0.3,2,3,177,4,NA
fcp-trial,226,1048924,0.0-187.0-0.0,voc_e2,12332,"[{""event"":""fullscreenenter"",""trial"":1,""time"":3374}]",NA,NA,NA,NA,NA,4,#D89F1C,#3386FF,0,0,1,38,1,323.39999997615814,37,1,829.6000000238419,0,1,experiment,NA,NA,1,0.7,0.3,2,3,178,4,NA
fcp-trial,227,1053144,0.0-188.0-0.0,voc_e2,12332,"[{""event"":""fullscreenenter"",""trial"":1,""time"":3374}]",NA,NA,NA,NA,NA,5,#741CD8,#D8271C,0,0,0,40,0,1003.3000000715256,39,0,1701.7999999523165,0,1,experiment,NA,NA,2,0.5,0.5,5,4,179,4,NA
fcp-trial,228,1056474,0.0-189.0-0.0,voc_e2,12332,"[{""event"":""fullscreenenter"",""trial"":1,""time"":3374}]",NA,NA,NA,NA,NA,6,#3386FF,#D89F1C,10,10,0,40,0,1223.5,39,0,598.6999999284744,10,1,experiment,NA,NA,1,0.3,0.7,3,2,180,4,NA
fcp-trial,229,1060043,0.0-190.0-0.0,voc_e2,12332,"[{""event"":""fullscreenenter"",""trial"":1,""time"":3374}]",NA,NA,NA,NA,NA,4,#FA92F8,#1CD855,0,10,0,38,1,1423.6000000238419,39,0,640.1000000238419,10,1,experiment,NA,NA,0,0.1,0.9,1,0,181,5,NA
fcp-trial,230,1063255,0.0-191.0-0.0,voc_e2,12332,"[{""event"":""fullscreenenter"",""trial"":1,""time"":3374}]",NA,NA,NA,NA,NA,1,#3386FF,#D89F1C,0,10,0,38,1,1264.6999999284744,39,0,440,10,1,experiment,NA,NA,1,0.3,0.7,3,2,182,5,NA
fcp-trial,231,1070714,0.0-192.0-0.0,voc_e2,12332,"[{""event"":""fullscreenenter"",""trial"":1,""time"":3374}]",NA,NA,NA,NA,NA,3,#FA92F8,#1CD855,0,10,0,38,1,4004,39,0,1947.7000000476835,10,1,experiment,NA,NA,0,0.1,0.9,1,0,183,5,NA
fcp-trial,232,1074525,0.0-193.0-0.0,voc_e2,12332,"[{""event"":""fullscreenenter"",""trial"":1,""time"":3374}]",NA,NA,NA,NA,NA,2,#741CD8,#D8271C,10,0,0,38,1,1795.2000000476837,37,1,510.09999990463257,10,0,experiment,NA,NA,2,0.5,0.5,5,4,184,5,NA
fcp-trial,233,1080696,0.0-194.0-0.0,voc_e2,12332,"[{""event"":""fullscreenenter"",""trial"":1,""time"":3374}]",NA,NA,NA,NA,NA,5,#1CD855,#FA92F8,10,0,1,40,0,4204,37,1,459.6999999284744,10,1,experiment,NA,NA,0,0.9,0.1,0,1,185,5,NA
fcp-trial,234,1084855,0.0-195.0-0.0,voc_e2,12332,"[{""event"":""fullscreenenter"",""trial"":1,""time"":3374}]",NA,NA,NA,NA,NA,5,#3386FF,#D89F1C,0,10,0,40,0,1702.8000000715256,37,1,948.899999976158,0,0,experiment,NA,NA,1,0.3,0.7,3,2,186,5,NA
fcp-trial,235,1089034,0.0-196.0-0.0,voc_e2,12332,"[{""event"":""fullscreenenter"",""trial"":1,""time"":3374}]",NA,NA,NA,NA,NA,2,#1CD855,#FA92F8,10,10,1,38,1,1243.8999999761581,37,1,1429.600000023842,10,1,experiment,NA,NA,0,0.9,0.1,0,1,187,5,NA
fcp-trial,236,1092385,0.0-197.0-0.0,voc_e2,12332,"[{""event"":""fullscreenenter"",""trial"":1,""time"":3374}]",NA,NA,NA,NA,NA,6,#741CD8,#D8271C,0,0,0,40,0,1274.3000000715256,39,0,568.7000000476837,0,1,experiment,NA,NA,2,0.5,0.5,5,4,188,5,NA
fcp-trial,237,1098585,0.0-198.0-0.0,voc_e2,12332,"[{""event"":""fullscreenenter"",""trial"":1,""time"":3374}]",NA,NA,NA,NA,NA,0,#D8271C,#741CD8,0,10,1,38,1,1793.2000000476837,39,0,2898.7999999523163,10,0,experiment,NA,NA,2,0.5,0.5,4,5,189,5,NA
fcp-trial,238,1101978,0.0-199.0-0.0,voc_e2,12332,"[{""event"":""fullscreenenter"",""trial"":1,""time"":3374}]",NA,NA,NA,NA,NA,6,#D89F1C,#3386FF,10,10,1,40,0,1304.1999999284744,39,0,582.3999999761581,10,0,experiment,NA,NA,1,0.7,0.3,2,3,190,5,NA
fcp-trial,239,1106016,0.0-200.0-0.0,voc_e2,12332,"[{""event"":""fullscreenenter"",""trial"":1,""time"":3374}]",NA,NA,NA,NA,NA,5,#741CD8,#D8271C,10,10,0,40,0,1951.1000000238419,37,1,581.5,10,0,experiment,NA,NA,2,0.5,0.5,5,4,191,5,NA
fcp-trial,240,1108799,0.0-201.0-0.0,voc_e2,12332,"[{""event"":""fullscreenenter"",""trial"":1,""time"":3374}]",NA,NA,NA,NA,NA,6,#1CD855,#FA92F8,10,0,1,40,0,803.1000000238419,39,0,459.5,0,0,experiment,NA,NA,0,0.9,0.1,0,1,192,5,NA
fcp-trial,241,1111767,0.0-202.0-0.0,voc_e2,12332,"[{""event"":""fullscreenenter"",""trial"":1,""time"":3374}]",NA,NA,NA,NA,NA,0,#FA92F8,#1CD855,0,10,0,38,1,1070,39,0,391.2999999523163,10,1,experiment,NA,NA,0,0.1,0.9,1,0,193,5,NA
fcp-trial,242,1114765,0.0-203.0-0.0,voc_e2,12332,"[{""event"":""fullscreenenter"",""trial"":1,""time"":3374}]",NA,NA,NA,NA,NA,0,#D89F1C,#3386FF,0,0,1,38,1,921.6999999284744,37,1,569.1000000238419,0,1,experiment,NA,NA,1,0.7,0.3,2,3,194,5,NA
fcp-trial,243,1117355,0.0-204.0-0.0,voc_e2,12332,"[{""event"":""fullscreenenter"",""trial"":1,""time"":3374}]",NA,NA,NA,NA,NA,6,#D8271C,#741CD8,0,0,1,40,0,595.5999999046326,39,0,488.09999990463257,0,0,experiment,NA,NA,2,0.5,0.5,4,5,195,5,NA
fcp-trial,244,1120765,0.0-205.0-0.0,voc_e2,12332,"[{""event"":""fullscreenenter"",""trial"":1,""time"":3374}]",NA,NA,NA,NA,NA,4,#741CD8,#D8271C,0,0,0,38,1,1504.6999999284744,37,1,398.89999997615814,0,0,experiment,NA,NA,2,0.5,0.5,5,4,196,5,NA
fcp-trial,245,1125284,0.0-206.0-0.0,voc_e2,12332,"[{""event"":""fullscreenenter"",""trial"":1,""time"":3374}]",NA,NA,NA,NA,NA,3,#1CD855,#FA92F8,10,0,1,38,1,1314.3000000715256,37,1,1698.2999999523165,10,1,experiment,NA,NA,0,0.9,0.1,0,1,197,5,NA
fcp-trial,246,1128925,0.0-207.0-0.0,voc_e2,12332,"[{""event"":""fullscreenenter"",""trial"":1,""time"":3374}]",NA,NA,NA,NA,NA,5,#FA92F8,#1CD855,0,0,0,40,0,1266.3999999761581,37,1,867.3000000715256,0,0,experiment,NA,NA,0,0.1,0.9,1,0,198,5,NA
fcp-trial,247,1133555,0.0-208.0-0.0,voc_e2,12332,"[{""event"":""fullscreenenter"",""trial"":1,""time"":3374}]",NA,NA,NA,NA,NA,1,#D89F1C,#3386FF,10,0,1,38,1,2552.600000023842,37,1,568.5,10,1,experiment,NA,NA,1,0.7,0.3,2,3,199,5,NA
fcp-trial,248,1137875,0.0-209.0-0.0,voc_e2,12332,"[{""event"":""fullscreenenter"",""trial"":1,""time"":3374}]",NA,NA,NA,NA,NA,2,#3386FF,#D89F1C,0,10,0,38,1,2314.5,39,0,499.8000000715256,10,1,experiment,NA,NA,1,0.3,0.7,3,2,200,5,NA
fcp-trial,249,1141005,0.0-210.0-0.0,voc_e2,12332,"[{""event"":""fullscreenenter"",""trial"":1,""time"":3374}]",NA,NA,NA,NA,NA,0,#D8271C,#741CD8,0,0,1,38,1,696,39,0,927,0,0,experiment,NA,NA,2,0.5,0.5,4,5,201,5,NA
fcp-trial,250,1145516,0.0-211.0-0.0,voc_e2,12332,"[{""event"":""fullscreenenter"",""trial"":1,""time"":3374}]",NA,NA,NA,NA,NA,2,#1CD855,#FA92F8,10,0,1,38,1,2584.7000000476837,37,1,418.89999997615814,10,1,experiment,NA,NA,0,0.9,0.1,0,1,202,5,NA
fcp-trial,251,1151784,0.0-212.0-0.0,voc_e2,12332,"[{""event"":""fullscreenenter"",""trial"":1,""time"":3374}]",NA,NA,NA,NA,NA,4,#D89F1C,#3386FF,10,0,1,38,1,4355.299999952316,37,1,406,10,1,experiment,NA,NA,1,0.7,0.3,2,3,203,5,NA
fcp-trial,252,1155936,0.0-213.0-0.0,voc_e2,12332,"[{""event"":""fullscreenenter"",""trial"":1,""time"":3374}]",NA,NA,NA,NA,NA,1,#741CD8,#D8271C,0,10,0,38,1,2007.5,37,1,637.2000000476837,0,0,experiment,NA,NA,2,0.5,0.5,5,4,204,5,NA
fcp-trial,253,1159767,0.0-214.0-0.0,voc_e2,12332,"[{""event"":""fullscreenenter"",""trial"":1,""time"":3374}]",NA,NA,NA,NA,NA,3,#D8271C,#741CD8,0,10,1,40,0,1492.7999999523163,39,0,832.5,10,0,experiment,NA,NA,2,0.5,0.5,4,5,205,5,NA
fcp-trial,254,1163236,0.0-215.0-0.0,voc_e2,12332,"[{""event"":""fullscreenenter"",""trial"":1,""time"":3374}]",NA,NA,NA,NA,NA,2,#D8271C,#741CD8,10,0,1,38,1,1493.5,39,0,469.5,0,0,experiment,NA,NA,2,0.5,0.5,4,5,206,5,NA
fcp-trial,255,1167436,0.0-216.0-0.0,voc_e2,12332,"[{""event"":""fullscreenenter"",""trial"":1,""time"":3374}]",NA,NA,NA,NA,NA,4,#1CD855,#FA92F8,10,0,1,38,1,2272.9000000953674,37,1,419.39999997615814,10,1,experiment,NA,NA,0,0.9,0.1,0,1,207,5,NA
fcp-trial,256,1170586,0.0-217.0-0.0,voc_e2,12332,"[{""event"":""fullscreenenter"",""trial"":1,""time"":3374}]",NA,NA,NA,NA,NA,5,#3386FF,#D89F1C,0,10,0,40,0,1252.6000000238419,39,0,388.2000000476837,10,1,experiment,NA,NA,1,0.3,0.7,3,2,208,5,NA
fcp-trial,257,1174466,0.0-218.0-0.0,voc_e2,12332,"[{""event"":""fullscreenenter"",""trial"":1,""time"":3374}]",NA,NA,NA,NA,NA,1,#FA92F8,#1CD855,0,10,0,38,1,1224.6999999284744,39,0,1149.5,10,1,experiment,NA,NA,0,0.1,0.9,1,0,209,5,NA
fcp-trial,258,1178466,0.0-219.0-0.0,voc_e2,12332,"[{""event"":""fullscreenenter"",""trial"":1,""time"":3374}]",NA,NA,NA,NA,NA,3,#3386FF,#D89F1C,0,10,0,38,1,2154,39,0,339,10,1,experiment,NA,NA,1,0.3,0.7,3,2,210,5,NA
audio-instructions,259,1214404,0.0-220.0,voc_e2,12332,"[{""event"":""fullscreenenter"",""trial"":1,""time"":3374}]",NA,31127.10000002384,static/audio/pause.wav,NA,0,NA,NA,NA,NA,NA,NA,NA,NA,NA,NA,NA,NA,NA,NA,NA,NA,NA,NA,NA,NA,NA,NA,NA,NA,NA
fcp-trial,260,1218135,0.0-221.0-0.0,voc_e2,12332,"[{""event"":""fullscreenenter"",""trial"":1,""time"":3374}]",NA,NA,NA,NA,NA,5,#1CD855,#FA92F8,10,0,1,40,0,1778.7000000476837,39,0,449.10000002384186,0,0,experiment,NA,NA,0,0.9,0.1,0,1,211,5,NA
fcp-trial,261,1221826,0.0-222.0-0.0,voc_e2,12332,"[{""event"":""fullscreenenter"",""trial"":1,""time"":3374}]",NA,NA,NA,NA,NA,0,#D8271C,#741CD8,0,0,1,38,1,1404.6000000238419,39,0,780.3000000715256,0,0,experiment,NA,NA,2,0.5,0.5,4,5,212,5,NA
fcp-trial,262,1225015,0.0-223.0-0.0,voc_e2,12332,"[{""event"":""fullscreenenter"",""trial"":1,""time"":3374}]",NA,NA,NA,NA,NA,4,#3386FF,#D89F1C,10,10,0,40,0,995,37,1,687,10,0,experiment,NA,NA,1,0.3,0.7,3,2,213,5,NA
fcp-trial,263,1228115,0.0-224.0-0.0,voc_e2,12332,"[{""event"":""fullscreenenter"",""trial"":1,""time"":3374}]",NA,NA,NA,NA,NA,1,#3386FF,#D89F1C,0,0,0,38,1,1177.0999999046326,39,0,406.39999997615814,0,1,experiment,NA,NA,1,0.3,0.7,3,2,214,5,NA
fcp-trial,264,1232385,0.0-225.0-0.0,voc_e2,12332,"[{""event"":""fullscreenenter"",""trial"":1,""time"":3374}]",NA,NA,NA,NA,NA,4,#741CD8,#D8271C,10,0,0,40,0,1835,39,0,929.600000023842,0,1,experiment,NA,NA,2,0.5,0.5,5,4,215,5,NA
fcp-trial,265,1235636,0.0-226.0-0.0,voc_e2,12332,"[{""event"":""fullscreenenter"",""trial"":1,""time"":3374}]",NA,NA,NA,NA,NA,3,#FA92F8,#1CD855,0,10,0,38,1,1315.1000000238419,39,0,430.5,10,1,experiment,NA,NA,0,0.1,0.9,1,0,216,5,NA
fcp-trial,266,1238346,0.0-227.0-0.0,voc_e2,12332,"[{""event"":""fullscreenenter"",""trial"":1,""time"":3374}]",NA,NA,NA,NA,NA,6,#D8271C,#741CD8,0,0,1,40,0,647.8999999761581,39,0,554.8999999761581,0,0,experiment,NA,NA,2,0.5,0.5,4,5,217,5,NA
fcp-trial,267,1242386,0.0-228.0-0.0,voc_e2,12332,"[{""event"":""fullscreenenter"",""trial"":1,""time"":3374}]",NA,NA,NA,NA,NA,0,#3386FF,#D89F1C,0,10,0,38,1,1663.5,39,0,868.6999999284744,10,1,experiment,NA,NA,1,0.3,0.7,3,2,218,5,NA
fcp-trial,268,1245366,0.0-229.0-0.0,voc_e2,12332,"[{""event"":""fullscreenenter"",""trial"":1,""time"":3374}]",NA,NA,NA,NA,NA,6,#3386FF,#D89F1C,10,10,0,40,0,773.1999999284744,37,1,698.5,10,0,experiment,NA,NA,1,0.3,0.7,3,2,219,5,NA
fcp-trial,269,1248516,0.0-230.0-0.0,voc_e2,12332,"[{""event"":""fullscreenenter"",""trial"":1,""time"":3374}]",NA,NA,NA,NA,NA,4,#1CD855,#FA92F8,10,0,1,38,1,1065.5,37,1,578.1999999284744,10,1,experiment,NA,NA,0,0.9,0.1,0,1,220,5,NA
fcp-trial,270,1251417,0.0-231.0-0.0,voc_e2,12332,"[{""event"":""fullscreenenter"",""trial"":1,""time"":3374}]",NA,NA,NA,NA,NA,6,#1CD855,#FA92F8,10,0,1,40,0,826.1000000238419,39,0,568.3999999761581,0,0,experiment,NA,NA,0,0.9,0.1,0,1,221,5,NA
fcp-trial,271,1256555,0.0-232.0-0.0,voc_e2,12332,"[{""event"":""fullscreenenter"",""trial"":1,""time"":3374}]",NA,NA,NA,NA,NA,1,#D8271C,#741CD8,0,0,1,38,1,2873.399999976158,39,0,758.4000000953674,0,0,experiment,NA,NA,2,0.5,0.5,4,5,222,5,NA
fcp-trial,272,1260725,0.0-233.0-0.0,voc_e2,12332,"[{""event"":""fullscreenenter"",""trial"":1,""time"":3374}]",NA,NA,NA,NA,NA,3,#3386FF,#D89F1C,10,10,0,38,1,1465.8999999761581,39,0,1197.8000000715256,10,1,experiment,NA,NA,1,0.3,0.7,3,2,223,5,NA
fcp-trial,273,1263967,0.0-234.0-0.0,voc_e2,12332,"[{""event"":""fullscreenenter"",""trial"":1,""time"":3374}]",NA,NA,NA,NA,NA,0,#1CD855,#FA92F8,10,0,1,38,1,1344.5999999046326,37,1,390.1999999284744,10,1,experiment,NA,NA,0,0.9,0.1,0,1,224,5,NA
fcp-trial,274,1266727,0.0-235.0-0.0,voc_e2,12332,"[{""event"":""fullscreenenter"",""trial"":1,""time"":3374}]",NA,NA,NA,NA,NA,1,#FA92F8,#1CD855,0,10,0,38,1,785.2999999523163,39,0,467.7000000476837,10,1,experiment,NA,NA,0,0.1,0.9,1,0,225,5,NA
fcp-trial,275,1270427,0.0-236.0-0.0,voc_e2,12332,"[{""event"":""fullscreenenter"",""trial"":1,""time"":3374}]",NA,NA,NA,NA,NA,2,#D8271C,#741CD8,0,0,1,38,1,1574.5999999046326,39,0,619.1999999284744,0,0,experiment,NA,NA,2,0.5,0.5,4,5,226,6,NA
fcp-trial,276,1273417,0.0-237.0-0.0,voc_e2,12332,"[{""event"":""fullscreenenter"",""trial"":1,""time"":3374}]",NA,NA,NA,NA,NA,2,#D89F1C,#3386FF,10,0,1,38,1,762.6999999284744,37,1,718.8999999761581,10,1,experiment,NA,NA,1,0.7,0.3,2,3,227,6,NA
fcp-trial,277,1276218,0.0-238.0-0.0,voc_e2,12332,"[{""event"":""fullscreenenter"",""trial"":1,""time"":3374}]",NA,NA,NA,NA,NA,2,#1CD855,#FA92F8,10,0,1,38,1,813.8999999761581,37,1,479.7999999523163,10,1,experiment,NA,NA,0,0.9,0.1,0,1,228,6,NA
fcp-trial,278,1280008,0.0-239.0-0.0,voc_e2,12332,"[{""event"":""fullscreenenter"",""trial"":1,""time"":3374}]",NA,NA,NA,NA,NA,3,#741CD8,#D8271C,10,10,0,38,1,1845.3999999761581,37,1,438.7000000476837,10,0,experiment,NA,NA,2,0.5,0.5,5,4,229,6,NA
fcp-trial,279,1284217,0.0-240.0-0.0,voc_e2,12332,"[{""event"":""fullscreenenter"",""trial"":1,""time"":3374}]",NA,NA,NA,NA,NA,5,#D8271C,#741CD8,0,0,1,38,1,2013.6000000238419,39,0,688.2000000476837,0,0,experiment,NA,NA,2,0.5,0.5,4,5,230,6,NA
fcp-trial,280,1287617,0.0-241.0-0.0,voc_e2,12332,"[{""event"":""fullscreenenter"",""trial"":1,""time"":3374}]",NA,NA,NA,NA,NA,5,#D89F1C,#3386FF,0,10,1,40,0,1182.3000000715256,39,0,708.8999999761581,10,0,experiment,NA,NA,1,0.7,0.3,2,3,231,6,NA
fcp-trial,281,1290797,0.0-242.0-0.0,voc_e2,12332,"[{""event"":""fullscreenenter"",""trial"":1,""time"":3374}]",NA,NA,NA,NA,NA,2,#D89F1C,#3386FF,10,10,1,38,1,1255.7999999523163,37,1,417.89999997615814,10,1,experiment,NA,NA,1,0.7,0.3,2,3,232,6,NA
fcp-trial,282,1295687,0.0-243.0-0.0,voc_e2,12332,"[{""event"":""fullscreenenter"",""trial"":1,""time"":3374}]",NA,NA,NA,NA,NA,0,#1CD855,#FA92F8,10,0,1,38,1,1914.6999999284744,37,1,1469.100000023842,10,1,experiment,NA,NA,0,0.9,0.1,0,1,233,6,NA
fcp-trial,283,1300127,0.0-244.0-0.0,voc_e2,12332,"[{""event"":""fullscreenenter"",""trial"":1,""time"":3374}]",NA,NA,NA,NA,NA,4,#1CD855,#FA92F8,10,0,1,38,1,2594.8000000715256,37,1,339.60000002384186,10,1,experiment,NA,NA,0,0.9,0.1,0,1,234,6,NA
fcp-trial,284,1303587,0.0-245.0-0.0,voc_e2,12332,"[{""event"":""fullscreenenter"",""trial"":1,""time"":3374}]",NA,NA,NA,NA,NA,5,#D8271C,#741CD8,0,10,1,40,0,1355.0999999046326,37,1,596.8999999761581,0,1,experiment,NA,NA,2,0.5,0.5,4,5,235,6,NA
fcp-trial,285,1306628,0.0-246.0-0.0,voc_e2,12332,"[{""event"":""fullscreenenter"",""trial"":1,""time"":3374}]",NA,NA,NA,NA,NA,3,#D89F1C,#3386FF,10,0,1,38,1,1055.1999999284744,37,1,478.39999997615814,10,1,experiment,NA,NA,1,0.7,0.3,2,3,236,6,NA
fcp-trial,286,1310067,0.0-247.0-0.0,voc_e2,12332,"[{""event"":""fullscreenenter"",""trial"":1,""time"":3374}]",NA,NA,NA,NA,NA,1,#FA92F8,#1CD855,0,10,0,38,1,1005.3000000715256,39,0,928.0999999046326,10,1,experiment,NA,NA,0,0.1,0.9,1,0,237,6,NA
fcp-trial,287,1313148,0.0-248.0-0.0,voc_e2,12332,"[{""event"":""fullscreenenter"",""trial"":1,""time"":3374}]",NA,NA,NA,NA,NA,6,#741CD8,#D8271C,10,10,0,40,0,1185,37,1,389.5,10,0,experiment,NA,NA,2,0.5,0.5,5,4,238,6,NA
fcp-trial,288,1319729,0.0-249.0-0.0,voc_e2,12332,"[{""event"":""fullscreenenter"",""trial"":1,""time"":3374}]",NA,NA,NA,NA,NA,1,#D89F1C,#3386FF,10,0,1,38,1,3383.399999976158,37,1,1690.7000000476835,10,1,experiment,NA,NA,1,0.7,0.3,2,3,239,6,NA
fcp-trial,289,1322927,0.0-250.0-0.0,voc_e2,12332,"[{""event"":""fullscreenenter"",""trial"":1,""time"":3374}]",NA,NA,NA,NA,NA,6,#D89F1C,#3386FF,10,0,1,40,0,1213.3000000715256,39,0,477.89999997615814,0,0,experiment,NA,NA,1,0.7,0.3,2,3,240,6,NA
fcp-trial,290,1335206,0.0-251.0-0.0,voc_e2,12332,"[{""event"":""fullscreenenter"",""trial"":1,""time"":3374}]",NA,NA,NA,NA,NA,2,#741CD8,#D8271C,0,0,0,38,1,3604.2999999523163,37,1,7167.5,0,0,experiment,NA,NA,2,0.5,0.5,5,4,241,6,NA
fcp-trial,291,1339909,0.0-252.0-0.0,voc_e2,12332,"[{""event"":""fullscreenenter"",""trial"":1,""time"":3374}]",NA,NA,NA,NA,NA,3,#FA92F8,#1CD855,0,10,0,38,1,2766.899999976158,39,0,427.89999997615814,10,1,experiment,NA,NA,0,0.1,0.9,1,0,242,6,NA
fcp-trial,292,1349758,0.0-253.0-0.0,voc_e2,12332,"[{""event"":""fullscreenenter"",""trial"":1,""time"":3374}]",NA,NA,NA,NA,NA,2,#FA92F8,#1CD855,0,0,0,38,1,7633.799999952316,39,0,708.7000000476837,0,1,experiment,NA,NA,0,0.1,0.9,1,0,243,6,NA
fcp-trial,293,1354156,0.0-254.0-0.0,voc_e2,12332,"[{""event"":""fullscreenenter"",""trial"":1,""time"":3374}]",NA,NA,NA,NA,NA,4,#3386FF,#D89F1C,0,10,0,38,1,2313,39,0,578.7000000476837,10,1,experiment,NA,NA,1,0.3,0.7,3,2,244,6,NA
fcp-trial,294,1359158,0.0-255.0-0.0,voc_e2,12332,"[{""event"":""fullscreenenter"",""trial"":1,""time"":3374}]",NA,NA,NA,NA,NA,4,#D8271C,#741CD8,0,10,1,38,1,1684.2999999523163,39,0,1809.600000023842,10,0,experiment,NA,NA,2,0.5,0.5,4,5,245,6,NA
fcp-trial,295,1361717,0.0-256.0-0.0,voc_e2,12332,"[{""event"":""fullscreenenter"",""trial"":1,""time"":3374}]",NA,NA,NA,NA,NA,1,#741CD8,#D8271C,10,10,0,38,1,674,37,1,376.7999999523163,10,0,experiment,NA,NA,2,0.5,0.5,5,4,246,6,NA
fcp-trial,296,1364167,0.0-257.0-0.0,voc_e2,12332,"[{""event"":""fullscreenenter"",""trial"":1,""time"":3374}]",NA,NA,NA,NA,NA,6,#FA92F8,#1CD855,0,10,0,38,1,493.7999999523163,39,0,448.5,10,1,experiment,NA,NA,0,0.1,0.9,1,0,247,6,NA
fcp-trial,297,1367197,0.0-258.0-0.0,voc_e2,12332,"[{""event"":""fullscreenenter"",""trial"":1,""time"":3374}]",NA,NA,NA,NA,NA,0,#3386FF,#D89F1C,10,10,0,38,1,1125.2000000476837,39,0,399.7999999523163,10,1,experiment,NA,NA,1,0.3,0.7,3,2,248,6,NA
fcp-trial,298,1370447,0.0-259.0-0.0,voc_e2,12332,"[{""event"":""fullscreenenter"",""trial"":1,""time"":3374}]",NA,NA,NA,NA,NA,5,#1CD855,#FA92F8,0,0,1,40,0,1254.5,39,0,488.89999997615814,0,0,experiment,NA,NA,0,0.9,0.1,0,1,249,6,NA
fcp-trial,299,1373677,0.0-260.0-0.0,voc_e2,12332,"[{""event"":""fullscreenenter"",""trial"":1,""time"":3374}]",NA,NA,NA,NA,NA,0,#D8271C,#741CD8,0,0,1,38,1,1097,39,0,626.7999999523163,0,0,experiment,NA,NA,2,0.5,0.5,4,5,250,6,NA
fcp-trial,300,1377097,0.0-261.0-0.0,voc_e2,12332,"[{""event"":""fullscreenenter"",""trial"":1,""time"":3374}]",NA,NA,NA,NA,NA,5,#D89F1C,#3386FF,0,10,1,40,0,1393.5,39,0,519.1000000238419,10,0,experiment,NA,NA,1,0.7,0.3,2,3,251,6,NA
fcp-trial,301,1380947,0.0-262.0-0.0,voc_e2,12332,"[{""event"":""fullscreenenter"",""trial"":1,""time"":3374}]",NA,NA,NA,NA,NA,3,#741CD8,#D8271C,0,10,0,38,1,1415.6000000238419,37,1,925.7999999523164,0,0,experiment,NA,NA,2,0.5,0.5,5,4,252,6,NA
fcp-trial,302,1387768,0.0-263.0-0.0,voc_e2,12332,"[{""event"":""fullscreenenter"",""trial"":1,""time"":3374}]",NA,NA,NA,NA,NA,3,#741CD8,#D8271C,10,10,0,38,1,4806.800000071526,37,1,506.6999999284744,10,0,experiment,NA,NA,2,0.5,0.5,5,4,253,6,NA
fcp-trial,303,1391497,0.0-264.0-0.0,voc_e2,12332,"[{""event"":""fullscreenenter"",""trial"":1,""time"":3374}]",NA,NA,NA,NA,NA,5,#741CD8,#D8271C,10,0,0,40,0,1754.2999999523163,37,1,469.5,10,0,experiment,NA,NA,2,0.5,0.5,5,4,254,6,NA
fcp-trial,304,1397558,0.0-265.0-0.0,voc_e2,12332,"[{""event"":""fullscreenenter"",""trial"":1,""time"":3374}]",NA,NA,NA,NA,NA,1,#741CD8,#D8271C,0,10,0,38,1,3915.2000000476837,37,1,637.8999999761581,0,0,experiment,NA,NA,2,0.5,0.5,5,4,255,6,NA
fcp-trial,305,1400918,0.0-266.0-0.0,voc_e2,12332,"[{""event"":""fullscreenenter"",""trial"":1,""time"":3374}]",NA,NA,NA,NA,NA,2,#D89F1C,#3386FF,10,0,1,38,1,1322.3999999761581,37,1,529.8000000715256,10,1,experiment,NA,NA,1,0.7,0.3,2,3,256,6,NA
fcp-trial,306,1405207,0.0-267.0-0.0,voc_e2,12332,"[{""event"":""fullscreenenter"",""trial"":1,""time"":3374}]",NA,NA,NA,NA,NA,0,#FA92F8,#1CD855,0,10,0,38,1,1883.6000000238419,39,0,899,10,1,experiment,NA,NA,0,0.1,0.9,1,0,257,6,NA
fcp-trial,307,1407960,0.0-268.0-0.0,voc_e2,12332,"[{""event"":""fullscreenenter"",""trial"":1,""time"":3374}]",NA,NA,NA,NA,NA,3,#1CD855,#FA92F8,0,0,1,38,1,879.8000000715256,37,1,365.2000000476837,0,1,experiment,NA,NA,0,0.9,0.1,0,1,258,6,NA
fcp-trial,308,1411174,0.0-269.0-0.0,voc_e2,12332,"[{""event"":""fullscreenenter"",""trial"":1,""time"":3374}]",NA,NA,NA,NA,NA,5,#FA92F8,#1CD855,0,10,0,38,1,1342.7999999523163,39,0,358.60000002384186,10,1,experiment,NA,NA,0,0.1,0.9,1,0,259,6,NA
fcp-trial,309,1414042,0.0-270.0-0.0,voc_e2,12332,"[{""event"":""fullscreenenter"",""trial"":1,""time"":3374}]",NA,NA,NA,NA,NA,4,#D8271C,#741CD8,10,0,1,38,1,986.7000000476837,39,0,370.10000002384186,0,0,experiment,NA,NA,2,0.5,0.5,4,5,260,6,NA
fcp-trial,310,1421900,0.0-271.0-0.0,voc_e2,12332,"[{""event"":""fullscreenenter"",""trial"":1,""time"":3374}]",NA,NA,NA,NA,NA,5,#3386FF,#D89F1C,0,10,0,40,0,5979.399999976158,39,0,369.89999997615814,10,1,experiment,NA,NA,1,0.3,0.7,3,2,261,6,NA
fcp-trial,311,1425285,0.0-272.0-0.0,voc_e2,12332,"[{""event"":""fullscreenenter"",""trial"":1,""time"":3374}]",NA,NA,NA,NA,NA,2,#1CD855,#FA92F8,10,0,1,38,1,1372.8999999761581,37,1,498.10000002384186,10,1,experiment,NA,NA,0,0.9,0.1,0,1,262,6,NA
fcp-trial,312,1427860,0.0-273.0-0.0,voc_e2,12332,"[{""event"":""fullscreenenter"",""trial"":1,""time"":3374}]",NA,NA,NA,NA,NA,0,#3386FF,#D89F1C,10,0,0,38,1,679.2999999523163,39,0,388.7999999523163,0,1,experiment,NA,NA,1,0.3,0.7,3,2,263,6,NA
fcp-trial,313,1430960,0.0-274.0-0.0,voc_e2,12332,"[{""event"":""fullscreenenter"",""trial"":1,""time"":3374}]",NA,NA,NA,NA,NA,6,#D8271C,#741CD8,10,0,1,40,0,1174.2999999523163,39,0,419,0,0,experiment,NA,NA,2,0.5,0.5,4,5,264,6,NA
fcp-trial,314,1435679,0.0-275.0-0.0,voc_e2,12332,"[{""event"":""fullscreenenter"",""trial"":1,""time"":3374}]",NA,NA,NA,NA,NA,4,#D89F1C,#3386FF,0,10,1,38,1,2695,37,1,518.4000000953674,0,1,experiment,NA,NA,1,0.7,0.3,2,3,265,6,NA
fcp-trial,315,1442640,0.0-276.0-0.0,voc_e2,12332,"[{""event"":""fullscreenenter"",""trial"":1,""time"":3374}]",NA,NA,NA,NA,NA,4,#FA92F8,#1CD855,0,10,0,38,1,5123.899999976158,39,0,328.2999999523163,10,1,experiment,NA,NA,0,0.1,0.9,1,0,266,6,NA
fcp-trial,316,1446040,0.0-277.0-0.0,voc_e2,12332,"[{""event"":""fullscreenenter"",""trial"":1,""time"":3374}]",NA,NA,NA,NA,NA,2,#741CD8,#D8271C,0,10,0,38,1,1484.5,37,1,406,0,0,experiment,NA,NA,2,0.5,0.5,5,4,267,6,NA
fcp-trial,317,1449189,0.0-278.0-0.0,voc_e2,12332,"[{""event"":""fullscreenenter"",""trial"":1,""time"":3374}]",NA,NA,NA,NA,NA,6,#3386FF,#D89F1C,0,10,0,40,0,1193.8999999761581,37,1,448.89999997615814,0,0,experiment,NA,NA,1,0.3,0.7,3,2,268,6,NA
fcp-trial,318,1452899,0.0-279.0-0.0,voc_e2,12332,"[{""event"":""fullscreenenter"",""trial"":1,""time"":3374}]",NA,NA,NA,NA,NA,1,#D89F1C,#3386FF,10,0,1,38,1,704.2999999523163,37,1,1498.1999999284744,10,1,experiment,NA,NA,1,0.7,0.3,2,3,269,6,NA
fcp-trial,319,1457930,0.0-280.0-0.0,voc_e2,12332,"[{""event"":""fullscreenenter"",""trial"":1,""time"":3374}]",NA,NA,NA,NA,NA,0,#741CD8,#D8271C,10,10,0,38,1,1064.2999999523163,37,1,2459.5,10,0,experiment,NA,NA,2,0.5,0.5,5,4,270,6,NA
fcp-trial,320,1461000,0.0-281.0-0.0,voc_e2,12332,"[{""event"":""fullscreenenter"",""trial"":1,""time"":3374}]",NA,NA,NA,NA,NA,6,#FA92F8,#1CD855,0,10,0,40,0,923.6999999284744,37,1,639.1999999284744,0,0,experiment,NA,NA,0,0.1,0.9,1,0,271,7,NA
fcp-trial,321,1463946,0.0-282.0-0.0,voc_e2,12332,"[{""event"":""fullscreenenter"",""trial"":1,""time"":3374}]",NA,NA,NA,NA,NA,1,#1CD855,#FA92F8,10,0,1,38,1,1092.3999999761581,37,1,330.1999999284744,10,1,experiment,NA,NA,0,0.9,0.1,0,1,272,7,NA
fcp-trial,322,1470530,0.0-283.0-0.0,voc_e2,12332,"[{""event"":""fullscreenenter"",""trial"":1,""time"":3374}]",NA,NA,NA,NA,NA,3,#3386FF,#D89F1C,10,10,0,38,1,1458.1000000238419,39,0,3619.8000000715256,10,1,experiment,NA,NA,1,0.3,0.7,3,2,273,7,NA
fcp-trial,323,1474009,0.0-284.0-0.0,voc_e2,12332,"[{""event"":""fullscreenenter"",""trial"":1,""time"":3374}]",NA,NA,NA,NA,NA,2,#3386FF,#D89F1C,0,0,0,38,1,1212,39,0,757.2000000476837,0,1,experiment,NA,NA,1,0.3,0.7,3,2,274,7,NA
fcp-trial,324,1476829,0.0-285.0-0.0,voc_e2,12332,"[{""event"":""fullscreenenter"",""trial"":1,""time"":3374}]",NA,NA,NA,NA,NA,3,#741CD8,#D8271C,10,0,0,38,1,984.3000000715256,37,1,328.39999997615814,10,0,experiment,NA,NA,2,0.5,0.5,5,4,275,7,NA
fcp-trial,325,1479656,0.0-286.0-0.0,voc_e2,12332,"[{""event"":""fullscreenenter"",""trial"":1,""time"":3374}]",NA,NA,NA,NA,NA,1,#D89F1C,#3386FF,10,0,1,38,1,843.8999999761581,37,1,468.90000009536743,10,1,experiment,NA,NA,1,0.7,0.3,2,3,276,7,NA
fcp-trial,326,1482681,0.0-287.0-0.0,voc_e2,12332,"[{""event"":""fullscreenenter"",""trial"":1,""time"":3374}]",NA,NA,NA,NA,NA,4,#FA92F8,#1CD855,0,10,0,38,1,1230,39,0,286.60000002384186,10,1,experiment,NA,NA,0,0.1,0.9,1,0,277,7,NA
fcp-trial,327,1485961,0.0-288.0-0.0,voc_e2,12332,"[{""event"":""fullscreenenter"",""trial"":1,""time"":3374}]",NA,NA,NA,NA,NA,5,#D8271C,#741CD8,0,10,1,38,1,1463,39,0,310.2999999523163,10,0,experiment,NA,NA,2,0.5,0.5,4,5,278,7,NA
fcp-trial,328,1488889,0.0-289.0-0.0,voc_e2,12332,"[{""event"":""fullscreenenter"",""trial"":1,""time"":3374}]",NA,NA,NA,NA,NA,6,#D8271C,#741CD8,0,10,1,40,0,1003.1000000238419,39,0,419,10,0,experiment,NA,NA,2,0.5,0.5,4,5,279,7,NA
fcp-trial,329,1491815,0.0-290.0-0.0,voc_e2,12332,"[{""event"":""fullscreenenter"",""trial"":1,""time"":3374}]",NA,NA,NA,NA,NA,1,#D8271C,#741CD8,0,10,1,38,1,936.8999999761581,39,0,467.60000002384186,10,0,experiment,NA,NA,2,0.5,0.5,4,5,280,7,NA
fcp-trial,330,1494520,0.0-291.0-0.0,voc_e2,12332,"[{""event"":""fullscreenenter"",""trial"":1,""time"":3374}]",NA,NA,NA,NA,NA,5,#3386FF,#D89F1C,0,10,0,38,1,862.7999999523163,39,0,335.5,10,1,experiment,NA,NA,1,0.3,0.7,3,2,281,7,NA
fcp-trial,331,1497300,0.0-292.0-0.0,voc_e2,12332,"[{""event"":""fullscreenenter"",""trial"":1,""time"":3374}]",NA,NA,NA,NA,NA,3,#1CD855,#FA92F8,10,0,1,38,1,763.8000000715256,37,1,509,10,1,experiment,NA,NA,0,0.9,0.1,0,1,282,7,NA
fcp-trial,332,1500430,0.0-293.0-0.0,voc_e2,12332,"[{""event"":""fullscreenenter"",""trial"":1,""time"":3374}]",NA,NA,NA,NA,NA,2,#1CD855,#FA92F8,10,0,1,38,1,1283.2000000476837,37,1,338.10000002384186,10,1,experiment,NA,NA,0,0.9,0.1,0,1,283,7,NA
fcp-trial,333,1505031,0.0-294.0-0.0,voc_e2,12332,"[{""event"":""fullscreenenter"",""trial"":1,""time"":3374}]",NA,NA,NA,NA,NA,4,#3386FF,#D89F1C,10,10,0,38,1,2173.100000023842,39,0,919.3000000715256,10,1,experiment,NA,NA,1,0.3,0.7,3,2,284,7,NA
fcp-trial,334,1507870,0.0-295.0-0.0,voc_e2,12332,"[{""event"":""fullscreenenter"",""trial"":1,""time"":3374}]",NA,NA,NA,NA,NA,0,#D8271C,#741CD8,0,10,1,38,1,952.3999999761581,39,0,379.60000002384186,10,0,experiment,NA,NA,2,0.5,0.5,4,5,285,7,NA
fcp-trial,335,1510731,0.0-296.0-0.0,voc_e2,12332,"[{""event"":""fullscreenenter"",""trial"":1,""time"":3374}]",NA,NA,NA,NA,NA,6,#D89F1C,#3386FF,10,0,1,40,0,904.6000000238419,37,1,449.60000002384186,10,1,experiment,NA,NA,1,0.7,0.3,2,3,286,7,NA
fcp-trial,336,1513528,0.0-297.0-0.0,voc_e2,12332,"[{""event"":""fullscreenenter"",""trial"":1,""time"":3374}]",NA,NA,NA,NA,NA,6,#FA92F8,#1CD855,0,10,0,40,0,862.7999999523163,39,0,418.8000000715256,10,1,experiment,NA,NA,0,0.1,0.9,1,0,287,7,NA
fcp-trial,337,1516220,0.0-298.0-0.0,voc_e2,12332,"[{""event"":""fullscreenenter"",""trial"":1,""time"":3374}]",NA,NA,NA,NA,NA,1,#FA92F8,#1CD855,0,10,0,38,1,774.7999999523163,39,0,407.89999997615814,10,1,experiment,NA,NA,0,0.1,0.9,1,0,288,7,NA
fcp-trial,338,1519182,0.0-299.0-0.0,voc_e2,12332,"[{""event"":""fullscreenenter"",""trial"":1,""time"":3374}]",NA,NA,NA,NA,NA,5,#FA92F8,#1CD855,0,10,0,40,0,1083.7999999523163,39,0,369.6999999284744,10,1,experiment,NA,NA,0,0.1,0.9,1,0,289,7,NA
fcp-trial,339,1522310,0.0-300.0-0.0,voc_e2,12332,"[{""event"":""fullscreenenter"",""trial"":1,""time"":3374}]",NA,NA,NA,NA,NA,2,#D8271C,#741CD8,10,10,1,38,1,630.5,39,0,989.100000023842,10,0,experiment,NA,NA,2,0.5,0.5,4,5,290,7,NA
fcp-trial,340,1525460,0.0-301.0-0.0,voc_e2,12332,"[{""event"":""fullscreenenter"",""trial"":1,""time"":3374}]",NA,NA,NA,NA,NA,0,#3386FF,#D89F1C,0,10,0,38,1,1144.2999999523163,39,0,498.7999999523163,10,1,experiment,NA,NA,1,0.3,0.7,3,2,291,7,NA
fcp-trial,341,1528249,0.0-302.0-0.0,voc_e2,12332,"[{""event"":""fullscreenenter"",""trial"":1,""time"":3374}]",NA,NA,NA,NA,NA,3,#D89F1C,#3386FF,0,10,1,38,1,885.3999999761581,37,1,397.2000000476837,0,1,experiment,NA,NA,1,0.7,0.3,2,3,292,7,NA
fcp-trial,342,1531361,0.0-303.0-0.0,voc_e2,12332,"[{""event"":""fullscreenenter"",""trial"":1,""time"":3374}]",NA,NA,NA,NA,NA,4,#D8271C,#741CD8,10,10,1,38,1,1274.1000000238419,39,0,329.10000002384186,10,0,experiment,NA,NA,2,0.5,0.5,4,5,293,7,NA
fcp-trial,343,1534400,0.0-304.0-0.0,voc_e2,12332,"[{""event"":""fullscreenenter"",""trial"":1,""time"":3374}]",NA,NA,NA,NA,NA,0,#1CD855,#FA92F8,10,0,1,38,1,1222.7999999523163,37,1,309,10,1,experiment,NA,NA,0,0.9,0.1,0,1,294,7,NA
fcp-trial,344,1537799,0.0-305.0-0.0,voc_e2,12332,"[{""event"":""fullscreenenter"",""trial"":1,""time"":3374}]",NA,NA,NA,NA,NA,4,#D8271C,#741CD8,10,10,1,38,1,1303.6999999284744,39,0,588.2999999523163,10,0,experiment,NA,NA,2,0.5,0.5,4,5,295,7,NA
fcp-trial,345,1541190,0.0-306.0-0.0,voc_e2,12332,"[{""event"":""fullscreenenter"",""trial"":1,""time"":3374}]",NA,NA,NA,NA,NA,0,#FA92F8,#1CD855,0,10,0,38,1,1536.2999999523163,39,0,348.2999999523163,10,1,experiment,NA,NA,0,0.1,0.9,1,0,296,7,NA
fcp-trial,346,1544330,0.0-307.0-0.0,voc_e2,12332,"[{""event"":""fullscreenenter"",""trial"":1,""time"":3374}]",NA,NA,NA,NA,NA,2,#3386FF,#D89F1C,0,10,0,38,1,1304.7999999523163,39,0,328.1999999284744,10,1,experiment,NA,NA,1,0.3,0.7,3,2,297,7,NA
fcp-trial,347,1546969,0.0-308.0-0.0,voc_e2,12332,"[{""event"":""fullscreenenter"",""trial"":1,""time"":3374}]",NA,NA,NA,NA,NA,4,#FA92F8,#1CD855,0,10,0,38,1,683.2999999523163,39,0,448.39999997615814,10,1,experiment,NA,NA,0,0.1,0.9,1,0,298,7,NA
fcp-trial,348,1549460,0.0-309.0-0.0,voc_e2,12332,"[{""event"":""fullscreenenter"",""trial"":1,""time"":3374}]",NA,NA,NA,NA,NA,3,#FA92F8,#1CD855,0,10,0,38,1,615.3999999761581,39,0,358.09999990463257,10,1,experiment,NA,NA,0,0.1,0.9,1,0,299,7,NA
fcp-trial,349,1552440,0.0-310.0-0.0,voc_e2,12332,"[{""event"":""fullscreenenter"",""trial"":1,""time"":3374}]",NA,NA,NA,NA,NA,6,#741CD8,#D8271C,10,0,0,38,1,535,37,1,938.7000000476836,10,0,experiment,NA,NA,2,0.5,0.5,5,4,300,7,NA
fcp-trial,350,1555492,0.0-311.0-0.0,voc_e2,12332,"[{""event"":""fullscreenenter"",""trial"":1,""time"":3374}]",NA,NA,NA,NA,NA,6,#D89F1C,#3386FF,10,0,1,40,0,1063,37,1,480.8000000715256,10,1,experiment,NA,NA,1,0.7,0.3,2,3,301,7,NA
fcp-trial,351,1558144,0.0-312.0-0.0,voc_e2,12332,"[{""event"":""fullscreenenter"",""trial"":1,""time"":3374}]",NA,NA,NA,NA,NA,2,#1CD855,#FA92F8,10,0,1,38,1,652.1000000238419,37,1,488.7999999523163,10,1,experiment,NA,NA,0,0.9,0.1,0,1,302,7,NA
fcp-trial,352,1561440,0.0-313.0-0.0,voc_e2,12332,"[{""event"":""fullscreenenter"",""trial"":1,""time"":3374}]",NA,NA,NA,NA,NA,0,#D89F1C,#3386FF,10,0,1,38,1,570.3000000715256,37,1,1218.5,10,1,experiment,NA,NA,1,0.7,0.3,2,3,303,7,NA
fcp-trial,353,1564060,0.0-314.0-0.0,voc_e2,12332,"[{""event"":""fullscreenenter"",""trial"":1,""time"":3374}]",NA,NA,NA,NA,NA,1,#741CD8,#D8271C,0,10,0,38,1,674.8000000715256,37,1,437.1999999284744,0,0,experiment,NA,NA,2,0.5,0.5,5,4,304,7,NA
fcp-trial,354,1566770,0.0-315.0-0.0,voc_e2,12332,"[{""event"":""fullscreenenter"",""trial"":1,""time"":3374}]",NA,NA,NA,NA,NA,3,#D8271C,#741CD8,0,0,1,38,1,701.3000000715256,39,0,498.40000009536743,0,0,experiment,NA,NA,2,0.5,0.5,4,5,305,7,NA
fcp-trial,355,1569830,0.0-316.0-0.0,voc_e2,12332,"[{""event"":""fullscreenenter"",""trial"":1,""time"":3374}]",NA,NA,NA,NA,NA,3,#D89F1C,#3386FF,0,0,1,38,1,703.8000000715256,37,1,848.7000000476837,0,1,experiment,NA,NA,1,0.7,0.3,2,3,306,7,NA
fcp-trial,356,1572710,0.0-317.0-0.0,voc_e2,12332,"[{""event"":""fullscreenenter"",""trial"":1,""time"":3374}]",NA,NA,NA,NA,NA,1,#FA92F8,#1CD855,0,10,0,38,1,1074.1999999284744,39,0,298.6999999284744,10,1,experiment,NA,NA,0,0.1,0.9,1,0,307,7,NA
fcp-trial,357,1575440,0.0-318.0-0.0,voc_e2,12332,"[{""event"":""fullscreenenter"",""trial"":1,""time"":3374}]",NA,NA,NA,NA,NA,0,#741CD8,#D8271C,0,0,0,38,1,807.7999999523163,37,1,416.10000002384186,0,0,experiment,NA,NA,2,0.5,0.5,5,4,308,7,NA
fcp-trial,358,1578189,0.0-319.0-0.0,voc_e2,12332,"[{""event"":""fullscreenenter"",""trial"":1,""time"":3374}]",NA,NA,NA,NA,NA,2,#D8271C,#741CD8,0,0,1,38,1,904,39,0,329,0,0,experiment,NA,NA,2,0.5,0.5,4,5,309,7,NA
fcp-trial,359,1581070,0.0-320.0-0.0,voc_e2,12332,"[{""event"":""fullscreenenter"",""trial"":1,""time"":3374}]",NA,NA,NA,NA,NA,1,#D89F1C,#3386FF,10,0,1,38,1,1073.2000000476837,37,1,299,10,1,experiment,NA,NA,1,0.7,0.3,2,3,310,7,NA
fcp-trial,360,1584100,0.0-321.0-0.0,voc_e2,12332,"[{""event"":""fullscreenenter"",""trial"":1,""time"":3374}]",NA,NA,NA,NA,NA,6,#1CD855,#FA92F8,10,0,1,40,0,1143.1999999284744,37,1,379,10,1,experiment,NA,NA,0,0.9,0.1,0,1,311,7,NA
fcp-trial,361,1587610,0.0-322.0-0.0,voc_e2,12332,"[{""event"":""fullscreenenter"",""trial"":1,""time"":3374}]",NA,NA,NA,NA,NA,5,#D89F1C,#3386FF,10,10,1,40,0,1664.8000000715256,37,1,338.7999999523163,10,1,experiment,NA,NA,1,0.7,0.3,2,3,312,7,NA
fcp-trial,362,1590980,0.0-323.0-0.0,voc_e2,12332,"[{""event"":""fullscreenenter"",""trial"":1,""time"":3374}]",NA,NA,NA,NA,NA,5,#1CD855,#FA92F8,10,0,1,40,0,1442.1000000238419,37,1,418.2999999523163,10,1,experiment,NA,NA,0,0.9,0.1,0,1,313,7,NA
fcp-trial,363,1593890,0.0-324.0-0.0,voc_e2,12332,"[{""event"":""fullscreenenter"",""trial"":1,""time"":3374}]",NA,NA,NA,NA,NA,5,#741CD8,#D8271C,0,10,0,40,0,943.1000000238419,39,0,458.8000000715256,10,1,experiment,NA,NA,2,0.5,0.5,5,4,314,7,NA
fcp-trial,364,1597221,0.0-325.0-0.0,voc_e2,12332,"[{""event"":""fullscreenenter"",""trial"":1,""time"":3374}]",NA,NA,NA,NA,NA,4,#D89F1C,#3386FF,10,10,1,38,1,934.3999999761581,37,1,887.7000000476837,10,1,experiment,NA,NA,1,0.7,0.3,2,3,315,7,NA
audio-instructions,365,1603886,0.0-326.0,voc_e2,12332,"[{""event"":""fullscreenenter"",""trial"":1,""time"":3374}]",NA,666.7000000476837,static/audio/finished.wav,NA,0,NA,NA,NA,NA,NA,NA,NA,NA,NA,NA,NA,NA,NA,NA,NA,NA,NA,NA,NA,NA,NA,NA,NA,NA,NA
audio-instructions,366,1616628,0.0-327.0-0.0,voc_e2,12332,"[{""event"":""fullscreenenter"",""trial"":1,""time"":3374}]",NA,1908.7000000476835,static/audio/explicit1.wav,NA,0,NA,NA,NA,NA,NA,NA,NA,NA,NA,NA,NA,NA,NA,NA,NA,NA,NA,NA,NA,NA,NA,NA,NA,NA,NA
audio-instructions,367,1624796,0.0-327.0-1.0,voc_e2,12332,"[{""event"":""fullscreenenter"",""trial"":1,""time"":3374}]",NA,567.1000000238419,static/audio/explicit2.wav,NA,0,NA,NA,NA,NA,NA,NA,NA,NA,NA,NA,NA,NA,NA,NA,NA,NA,NA,NA,NA,NA,NA,NA,NA,NA,NA
image-slider-response,368,1636834,0.0-328.0,voc_e2,12332,"[{""event"":""fullscreenenter"",""trial"":1,""time"":3374}]",NA,12034.5,static/img/machines/machine4.png,NA,NA,NA,NA,NA,NA,NA,NA,NA,NA,NA,NA,NA,NA,NA,NA,explicit,NA,NA,NA,NA,NA,NA,NA,NA,NA,6
image-slider-response,369,1642461,0.0-329.0,voc_e2,12332,"[{""event"":""fullscreenenter"",""trial"":1,""time"":3374}]",NA,5624.5,static/img/machines/machine3.png,NA,NA,NA,NA,NA,NA,NA,NA,NA,NA,NA,NA,NA,NA,NA,NA,explicit,NA,NA,NA,NA,NA,NA,NA,NA,NA,3
image-slider-response,370,1646640,0.0-330.0,voc_e2,12332,"[{""event"":""fullscreenenter"",""trial"":1,""time"":3374}]",NA,4176.799999952316,static/img/machines/machine2.png,NA,NA,NA,NA,NA,NA,NA,NA,NA,NA,NA,NA,NA,NA,NA,NA,explicit,NA,NA,NA,NA,NA,NA,NA,NA,NA,5
image-slider-response,371,1649891,0.0-331.0,voc_e2,12332,"[{""event"":""fullscreenenter"",""trial"":1,""time"":3374}]",NA,3248.7999999523163,static/img/machines/machine5.png,NA,NA,NA,NA,NA,NA,NA,NA,NA,NA,NA,NA,NA,NA,NA,NA,explicit,NA,NA,NA,NA,NA,NA,NA,NA,NA,5
image-slider-response,372,1653280,0.0-332.0,voc_e2,12332,"[{""event"":""fullscreenenter"",""trial"":1,""time"":3374}]",NA,3386.899999976158,static/img/machines/machine1.png,NA,NA,NA,NA,NA,NA,NA,NA,NA,NA,NA,NA,NA,NA,NA,NA,explicit,NA,NA,NA,NA,NA,NA,NA,NA,NA,2
image-slider-response,373,1657569,0.0-333.0,voc_e2,12332,"[{""event"":""fullscreenenter"",""trial"":1,""time"":3374}]",NA,4287.299999952316,static/img/machines/machine6.png,NA,NA,NA,NA,NA,NA,NA,NA,NA,NA,NA,NA,NA,NA,NA,NA,explicit,NA,NA,NA,NA,NA,NA,NA,NA,NA,8
