trial_type,trial_index,time_elapsed,internal_node_id,task_version,subject_id,interactions,success,rt,stimulus,key_press,button_pressed,offer,arcade_color_L,arcade_color_R,arcade_outcome_L,arcade_outcome_R,correct,stage_1_key,stage_1_choice,stage_1_rt,stage_2_key,stage_2_choice,stage_2_rt,stage_3_outcome,accuracy,phase,responses,num_errors,context,reward_prob_L,reward_prob_R,arcade_id_L,arcade_id_R,trial,block,response
pavlovia,0,6,0.0-0.0,voc_e2,12010,[],NA,NA,NA,NA,NA,NA,NA,NA,NA,NA,NA,NA,NA,NA,NA,NA,NA,NA,NA,NA,NA,NA,NA,NA,NA,NA,NA,NA,NA,NA
fullscreen,1,3141,0.0-1.0,voc_e2,12010,"[{""event"":""fullscreenenter"",""trial"":1,""time"":2148},{""event"":""fullscreenexit"",""trial"":1,""time"":2348}]",TRUE,NA,NA,NA,NA,NA,NA,NA,NA,NA,NA,NA,NA,NA,NA,NA,NA,NA,NA,NA,NA,NA,NA,NA,NA,NA,NA,NA,NA,NA
audio-keyboard-response,2,5519,0.0-2.0,voc_e2,12010,"[{""event"":""fullscreenenter"",""trial"":1,""time"":2148},{""event"":""fullscreenexit"",""trial"":1,""time"":2348}]",NA,2349,static/audio/beep_loop.wav,32,NA,NA,NA,NA,NA,NA,NA,NA,NA,NA,NA,NA,NA,NA,NA,NA,NA,NA,NA,NA,NA,NA,NA,NA,NA,NA
audio-test,3,8462,0.0-3.0,voc_e2,12010,"[{""event"":""fullscreenenter"",""trial"":1,""time"":2148},{""event"":""fullscreenexit"",""trial"":1,""time"":2348}]",NA,NA,static/audio/turtle.wav,NA,3,NA,NA,NA,NA,NA,NA,NA,NA,NA,NA,NA,NA,NA,NA,NA,NA,NA,NA,NA,NA,NA,NA,NA,NA,NA
audio-test,4,11270,0.0-4.0,voc_e2,12010,"[{""event"":""fullscreenenter"",""trial"":1,""time"":2148},{""event"":""fullscreenexit"",""trial"":1,""time"":2348}]",NA,NA,static/audio/shark.wav,NA,2,NA,NA,NA,NA,NA,NA,NA,NA,NA,NA,NA,NA,NA,NA,NA,NA,NA,NA,NA,NA,NA,NA,NA,NA,NA
audio-instructions,5,19646,0.0-5.0-0.0,voc_e2,12010,"[{""event"":""fullscreenenter"",""trial"":1,""time"":2148},{""event"":""fullscreenexit"",""trial"":1,""time"":2348}]",NA,2593.600000023842,static/audio/instructions1.wav,NA,0,NA,NA,NA,NA,NA,NA,NA,NA,NA,NA,NA,NA,NA,NA,NA,NA,NA,NA,NA,NA,NA,NA,NA,NA,NA
audio-instructions,6,33183,0.0-5.0-1.0,voc_e2,12010,"[{""event"":""fullscreenenter"",""trial"":1,""time"":2148},{""event"":""fullscreenexit"",""trial"":1,""time"":2348}]",NA,6799.699999988079,static/audio/instructions2.wav,NA,0,NA,NA,NA,NA,NA,NA,NA,NA,NA,NA,NA,NA,NA,NA,NA,NA,NA,NA,NA,NA,NA,NA,NA,NA,NA
audio-instructions,7,41999,0.0-5.0-2.0,voc_e2,12010,"[{""event"":""fullscreenenter"",""trial"":1,""time"":2148},{""event"":""fullscreenexit"",""trial"":1,""time"":2348}]",NA,3004.5,static/audio/instructions3.wav,NA,0,NA,NA,NA,NA,NA,NA,NA,NA,NA,NA,NA,NA,NA,NA,NA,NA,NA,NA,NA,NA,NA,NA,NA,NA,NA
audio-instructions,8,56383,0.0-5.0-3.0,voc_e2,12010,"[{""event"":""fullscreenenter"",""trial"":1,""time"":2148},{""event"":""fullscreenexit"",""trial"":1,""time"":2348}]",NA,1158.300000011921,static/audio/instructions4.wav,NA,0,NA,NA,NA,NA,NA,NA,NA,NA,NA,NA,NA,NA,NA,NA,NA,NA,NA,NA,NA,NA,NA,NA,NA,NA,NA
audio-instructions,9,68784,0.0-5.0-4.0,voc_e2,12010,"[{""event"":""fullscreenenter"",""trial"":1,""time"":2148},{""event"":""fullscreenexit"",""trial"":1,""time"":2348}]",NA,3019,static/audio/instructions5.wav,NA,0,NA,NA,NA,NA,NA,NA,NA,NA,NA,NA,NA,NA,NA,NA,NA,NA,NA,NA,NA,NA,NA,NA,NA,NA,NA
fcp-practice,10,71088,0.0-5.0-5.0-0.0,voc_e2,12010,"[{""event"":""fullscreenenter"",""trial"":1,""time"":2148},{""event"":""fullscreenexit"",""trial"":1,""time"":2348}]",NA,NA,NA,NA,NA,NA,#EDC948,#46d3c8,10,0,1,null,null,null,37,1,785.6999999880791,10,1,practice,NA,NA,NA,NA,NA,NA,NA,NA,NA,NA
fcp-practice,11,73669,0.0-5.0-5.0-1.0,voc_e2,12010,"[{""event"":""fullscreenenter"",""trial"":1,""time"":2148},{""event"":""fullscreenexit"",""trial"":1,""time"":2348}]",NA,NA,NA,NA,NA,NA,#EDC948,#46d3c8,10,0,1,null,null,null,37,1,1063.9000000357628,10,1,practice,NA,NA,NA,NA,NA,NA,NA,NA,NA,NA
fcp-practice,12,76143,0.0-5.0-5.0-2.0,voc_e2,12010,"[{""event"":""fullscreenenter"",""trial"":1,""time"":2148},{""event"":""fullscreenexit"",""trial"":1,""time"":2348}]",NA,NA,NA,NA,NA,NA,#EDC948,#46d3c8,0,10,1,null,null,null,37,1,951.5,0,1,practice,NA,NA,NA,NA,NA,NA,NA,NA,NA,NA
fcp-practice,13,78750,0.0-5.0-5.0-3.0,voc_e2,12010,"[{""event"":""fullscreenenter"",""trial"":1,""time"":2148},{""event"":""fullscreenexit"",""trial"":1,""time"":2348}]",NA,NA,NA,NA,NA,NA,#EDC948,#46d3c8,10,0,1,null,null,null,37,1,1097.5,10,1,practice,NA,NA,NA,NA,NA,NA,NA,NA,NA,NA
fcp-practice,14,81360,0.0-5.0-5.0-4.0,voc_e2,12010,"[{""event"":""fullscreenenter"",""trial"":1,""time"":2148},{""event"":""fullscreenexit"",""trial"":1,""time"":2348}]",NA,NA,NA,NA,NA,NA,#EDC948,#46d3c8,10,0,1,null,null,null,37,1,1091.800000011921,10,1,practice,NA,NA,NA,NA,NA,NA,NA,NA,NA,NA
audio-instructions,15,101081,0.0-5.0-6.0,voc_e2,12010,"[{""event"":""fullscreenenter"",""trial"":1,""time"":2148},{""event"":""fullscreenexit"",""trial"":1,""time"":2348}]",NA,1714.300000011921,static/audio/instructions6.wav,NA,0,NA,NA,NA,NA,NA,NA,NA,NA,NA,NA,NA,NA,NA,NA,NA,NA,NA,NA,NA,NA,NA,NA,NA,NA,NA
audio-instructions,16,122682,0.0-5.0-7.0,voc_e2,12010,"[{""event"":""fullscreenenter"",""trial"":1,""time"":2148},{""event"":""fullscreenexit"",""trial"":1,""time"":2348}]",NA,2403.600000023842,static/audio/instructions7.wav,NA,0,NA,NA,NA,NA,NA,NA,NA,NA,NA,NA,NA,NA,NA,NA,NA,NA,NA,NA,NA,NA,NA,NA,NA,NA,NA
audio-instructions,17,133162,0.0-5.0-8.0,voc_e2,12010,"[{""event"":""fullscreenenter"",""trial"":1,""time"":2148},{""event"":""fullscreenexit"",""trial"":1,""time"":2348}]",NA,1013.5999999642372,static/audio/instructions8.wav,NA,0,NA,NA,NA,NA,NA,NA,NA,NA,NA,NA,NA,NA,NA,NA,NA,NA,NA,NA,NA,NA,NA,NA,NA,NA,NA
fcp-comprehension,18,149339,0.0-5.0-9.0,voc_e2,12010,"[{""event"":""fullscreenenter"",""trial"":1,""time"":2148},{""event"":""fullscreenexit"",""trial"":1,""time"":2348}]",NA,16175.899999976158,NA,NA,NA,NA,NA,NA,NA,NA,NA,NA,NA,NA,NA,NA,NA,NA,NA,NA,"false,true",1,NA,NA,NA,NA,NA,NA,NA,NA
audio-instructions,19,154931,0.0-5.1-0.1,voc_e2,12010,"[{""event"":""fullscreenenter"",""trial"":1,""time"":2148},{""event"":""fullscreenexit"",""trial"":1,""time"":2348}]",NA,812.0999999642372,static/audio/instructions1.wav,NA,0,NA,NA,NA,NA,NA,NA,NA,NA,NA,NA,NA,NA,NA,NA,NA,NA,NA,NA,NA,NA,NA,NA,NA,NA,NA
audio-instructions,20,166490,0.0-5.1-1.1,voc_e2,12010,"[{""event"":""fullscreenenter"",""trial"":1,""time"":2148},{""event"":""fullscreenexit"",""trial"":1,""time"":2348}]",NA,4821.300000011921,static/audio/instructions2.wav,NA,0,NA,NA,NA,NA,NA,NA,NA,NA,NA,NA,NA,NA,NA,NA,NA,NA,NA,NA,NA,NA,NA,NA,NA,NA,NA
audio-instructions,21,174250,0.0-5.1-2.1,voc_e2,12010,"[{""event"":""fullscreenenter"",""trial"":1,""time"":2148},{""event"":""fullscreenexit"",""trial"":1,""time"":2348}]",NA,1951.2000000476835,static/audio/instructions3.wav,NA,0,NA,NA,NA,NA,NA,NA,NA,NA,NA,NA,NA,NA,NA,NA,NA,NA,NA,NA,NA,NA,NA,NA,NA,NA,NA
audio-instructions,22,189186,0.0-5.1-3.1,voc_e2,12010,"[{""event"":""fullscreenenter"",""trial"":1,""time"":2148},{""event"":""fullscreenexit"",""trial"":1,""time"":2348}]",NA,1707.300000011921,static/audio/instructions4.wav,NA,0,NA,NA,NA,NA,NA,NA,NA,NA,NA,NA,NA,NA,NA,NA,NA,NA,NA,NA,NA,NA,NA,NA,NA,NA,NA
audio-instructions,23,199923,0.0-5.1-4.1,voc_e2,12010,"[{""event"":""fullscreenenter"",""trial"":1,""time"":2148},{""event"":""fullscreenexit"",""trial"":1,""time"":2348}]",NA,1353.5,static/audio/instructions5.wav,NA,0,NA,NA,NA,NA,NA,NA,NA,NA,NA,NA,NA,NA,NA,NA,NA,NA,NA,NA,NA,NA,NA,NA,NA,NA,NA
fcp-practice,24,202045,0.0-5.1-5.1-0.1,voc_e2,12010,"[{""event"":""fullscreenenter"",""trial"":1,""time"":2148},{""event"":""fullscreenexit"",""trial"":1,""time"":2348}]",NA,NA,NA,NA,NA,NA,#EDC948,#46d3c8,10,0,1,null,null,null,37,1,613.3000000119209,10,1,practice,NA,NA,NA,NA,NA,NA,NA,NA,NA,NA
fcp-practice,25,204030,0.0-5.1-5.1-1.1,voc_e2,12010,"[{""event"":""fullscreenenter"",""trial"":1,""time"":2148},{""event"":""fullscreenexit"",""trial"":1,""time"":2348}]",NA,NA,NA,NA,NA,NA,#EDC948,#46d3c8,10,0,1,null,null,null,37,1,479.7000000476837,10,1,practice,NA,NA,NA,NA,NA,NA,NA,NA,NA,NA
fcp-practice,26,206224,0.0-5.1-5.1-2.1,voc_e2,12010,"[{""event"":""fullscreenenter"",""trial"":1,""time"":2148},{""event"":""fullscreenexit"",""trial"":1,""time"":2348}]",NA,NA,NA,NA,NA,NA,#EDC948,#46d3c8,0,10,1,null,null,null,37,1,670.6999999880791,0,1,practice,NA,NA,NA,NA,NA,NA,NA,NA,NA,NA
fcp-practice,27,208154,0.0-5.1-5.1-3.1,voc_e2,12010,"[{""event"":""fullscreenenter"",""trial"":1,""time"":2148},{""event"":""fullscreenexit"",""trial"":1,""time"":2348}]",NA,NA,NA,NA,NA,NA,#EDC948,#46d3c8,10,0,1,null,null,null,37,1,413.800000011921,10,1,practice,NA,NA,NA,NA,NA,NA,NA,NA,NA,NA
fcp-practice,28,210533,0.0-5.1-5.1-4.1,voc_e2,12010,"[{""event"":""fullscreenenter"",""trial"":1,""time"":2148},{""event"":""fullscreenexit"",""trial"":1,""time"":2348}]",NA,NA,NA,NA,NA,NA,#EDC948,#46d3c8,10,0,1,null,null,null,37,1,858.3000000119209,10,1,practice,NA,NA,NA,NA,NA,NA,NA,NA,NA,NA
audio-instructions,29,232405,0.0-5.1-6.1,voc_e2,12010,"[{""event"":""fullscreenenter"",""trial"":1,""time"":2148},{""event"":""fullscreenexit"",""trial"":1,""time"":2348}]",NA,3862.5,static/audio/instructions6.wav,NA,0,NA,NA,NA,NA,NA,NA,NA,NA,NA,NA,NA,NA,NA,NA,NA,NA,NA,NA,NA,NA,NA,NA,NA,NA,NA
audio-instructions,30,254254,0.0-5.1-7.1,voc_e2,12010,"[{""event"":""fullscreenenter"",""trial"":1,""time"":2148},{""event"":""fullscreenexit"",""trial"":1,""time"":2348}]",NA,2650.099999964237,static/audio/instructions7.wav,NA,0,NA,NA,NA,NA,NA,NA,NA,NA,NA,NA,NA,NA,NA,NA,NA,NA,NA,NA,NA,NA,NA,NA,NA,NA,NA
audio-instructions,31,264478,0.0-5.1-8.1,voc_e2,12010,"[{""event"":""fullscreenenter"",""trial"":1,""time"":2148},{""event"":""fullscreenexit"",""trial"":1,""time"":2348}]",NA,744,static/audio/instructions8.wav,NA,0,NA,NA,NA,NA,NA,NA,NA,NA,NA,NA,NA,NA,NA,NA,NA,NA,NA,NA,NA,NA,NA,NA,NA,NA,NA
fcp-comprehension,32,283095,0.0-5.1-9.1,voc_e2,12010,"[{""event"":""fullscreenenter"",""trial"":1,""time"":2148},{""event"":""fullscreenexit"",""trial"":1,""time"":2348}]",NA,18616.299999952316,NA,NA,NA,NA,NA,NA,NA,NA,NA,NA,NA,NA,NA,NA,NA,NA,NA,NA,"true,true",0,NA,NA,NA,NA,NA,NA,NA,NA
audio-instructions,33,291023,0.0-6.0-0.0,voc_e2,12010,"[{""event"":""fullscreenenter"",""trial"":1,""time"":2148},{""event"":""fullscreenexit"",""trial"":1,""time"":2348}]",NA,2377.800000011921,static/audio/instructions9.wav,NA,0,NA,NA,NA,NA,NA,NA,NA,NA,NA,NA,NA,NA,NA,NA,NA,NA,NA,NA,NA,NA,NA,NA,NA,NA,NA
audio-instructions,34,304728,0.0-6.0-1.0,voc_e2,12010,"[{""event"":""fullscreenenter"",""trial"":1,""time"":2148},{""event"":""fullscreenexit"",""trial"":1,""time"":2348}]",NA,1591.600000023842,static/audio/instructions10.wav,NA,0,NA,NA,NA,NA,NA,NA,NA,NA,NA,NA,NA,NA,NA,NA,NA,NA,NA,NA,NA,NA,NA,NA,NA,NA,NA
fcp-trial,35,308750,0.0-6.0-2.0,voc_e2,12010,"[{""event"":""fullscreenenter"",""trial"":1,""time"":2148},{""event"":""fullscreenexit"",""trial"":1,""time"":2348}]",NA,NA,NA,NA,NA,0,#EDC948,#46d3c8,10,10,1,38,1,891.8999999761581,37,1,1608.699999988079,10,1,practice,NA,NA,NA,NA,NA,NA,NA,NA,NA,NA
audio-instructions,36,321296,0.0-6.0-3.0,voc_e2,12010,"[{""event"":""fullscreenenter"",""trial"":1,""time"":2148},{""event"":""fullscreenexit"",""trial"":1,""time"":2348}]",NA,1540.100000023842,static/audio/instructions11.wav,NA,0,NA,NA,NA,NA,NA,NA,NA,NA,NA,NA,NA,NA,NA,NA,NA,NA,NA,NA,NA,NA,NA,NA,NA,NA,NA
fcp-trial,37,328141,0.0-6.0-4.0,voc_e2,12010,"[{""event"":""fullscreenenter"",""trial"":1,""time"":2148},{""event"":""fullscreenexit"",""trial"":1,""time"":2348}]",NA,NA,NA,NA,NA,6,#EDC948,#46d3c8,10,10,1,40,0,3988.199999988079,39,0,1351.600000023842,10,0,practice,NA,NA,NA,NA,NA,NA,NA,NA,NA,NA
audio-instructions,38,348137,0.0-6.0-5.0,voc_e2,12010,"[{""event"":""fullscreenenter"",""trial"":1,""time"":2148},{""event"":""fullscreenexit"",""trial"":1,""time"":2348}]",NA,1309.7000000476835,static/audio/instructions12.wav,NA,0,NA,NA,NA,NA,NA,NA,NA,NA,NA,NA,NA,NA,NA,NA,NA,NA,NA,NA,NA,NA,NA,NA,NA,NA,NA
audio-instructions,39,356762,0.0-6.0-6.0,voc_e2,12010,"[{""event"":""fullscreenenter"",""trial"":1,""time"":2148},{""event"":""fullscreenexit"",""trial"":1,""time"":2348}]",NA,1023.2999999523164,static/audio/instructions13.wav,NA,0,NA,NA,NA,NA,NA,NA,NA,NA,NA,NA,NA,NA,NA,NA,NA,NA,NA,NA,NA,NA,NA,NA,NA,NA,NA
audio-instructions,40,366194,0.0-6.0-7.0,voc_e2,12010,"[{""event"":""fullscreenenter"",""trial"":1,""time"":2148},{""event"":""fullscreenexit"",""trial"":1,""time"":2348}]",NA,984.899999976158,static/audio/instructions14.wav,NA,0,NA,NA,NA,NA,NA,NA,NA,NA,NA,NA,NA,NA,NA,NA,NA,NA,NA,NA,NA,NA,NA,NA,NA,NA,NA
audio-instructions,41,373826,0.0-7.0-0.0,voc_e2,12010,"[{""event"":""fullscreenenter"",""trial"":1,""time"":2148},{""event"":""fullscreenexit"",""trial"":1,""time"":2348}]",NA,716.8999999761581,static/audio/instructions15.wav,NA,0,NA,NA,NA,NA,NA,NA,NA,NA,NA,NA,NA,NA,NA,NA,NA,NA,NA,NA,NA,NA,NA,NA,NA,NA,NA
audio-instructions,42,381539,0.0-7.0-1.0,voc_e2,12010,"[{""event"":""fullscreenenter"",""trial"":1,""time"":2148},{""event"":""fullscreenexit"",""trial"":1,""time"":2348}]",NA,889.3000000119209,static/audio/instructions16.wav,NA,0,NA,NA,NA,NA,NA,NA,NA,NA,NA,NA,NA,NA,NA,NA,NA,NA,NA,NA,NA,NA,NA,NA,NA,NA,NA
audio-instructions,43,390299,0.0-7.0-2.0,voc_e2,12010,"[{""event"":""fullscreenenter"",""trial"":1,""time"":2148},{""event"":""fullscreenexit"",""trial"":1,""time"":2348}]",NA,1078.399999976158,static/audio/instructions17.wav,NA,0,NA,NA,NA,NA,NA,NA,NA,NA,NA,NA,NA,NA,NA,NA,NA,NA,NA,NA,NA,NA,NA,NA,NA,NA,NA
audio-instructions,44,399003,0.0-7.0-3.0,voc_e2,12010,"[{""event"":""fullscreenenter"",""trial"":1,""time"":2148},{""event"":""fullscreenexit"",""trial"":1,""time"":2348}]",NA,943,static/audio/instructions18.wav,NA,0,NA,NA,NA,NA,NA,NA,NA,NA,NA,NA,NA,NA,NA,NA,NA,NA,NA,NA,NA,NA,NA,NA,NA,NA,NA
audio-instructions,45,406427,0.0-7.0-4.0,voc_e2,12010,"[{""event"":""fullscreenenter"",""trial"":1,""time"":2148},{""event"":""fullscreenexit"",""trial"":1,""time"":2348}]",NA,676.1999999880791,static/audio/instructions19.wav,NA,0,NA,NA,NA,NA,NA,NA,NA,NA,NA,NA,NA,NA,NA,NA,NA,NA,NA,NA,NA,NA,NA,NA,NA,NA,NA
fcp-comprehension,46,468269,0.0-7.0-5.0,voc_e2,12010,"[{""event"":""fullscreenenter"",""trial"":1,""time"":2148},{""event"":""fullscreenexit"",""trial"":1,""time"":2348}]",NA,61841.5,NA,NA,NA,NA,NA,NA,NA,NA,NA,NA,NA,NA,NA,NA,NA,NA,NA,NA,"false,false,false,true",0,NA,NA,NA,NA,NA,NA,NA,NA
audio-instructions,47,480237,0.0-8.0,voc_e2,12010,"[{""event"":""fullscreenenter"",""trial"":1,""time"":2148},{""event"":""fullscreenexit"",""trial"":1,""time"":2348}]",NA,2705.5,static/audio/ready.wav,NA,0,NA,NA,NA,NA,NA,NA,NA,NA,NA,NA,NA,NA,NA,NA,NA,NA,NA,NA,NA,NA,NA,NA,NA,NA,NA
fcp-trial,48,486671,0.0-9.0-0.0,voc_e2,12010,"[{""event"":""fullscreenenter"",""trial"":1,""time"":2148},{""event"":""fullscreenexit"",""trial"":1,""time"":2348}]",NA,NA,NA,NA,NA,0,#3386FF,#D89F1C,10,0,1,38,1,2797,37,1,2125.099999964237,10,1,experiment,NA,NA,0,0.9,0.1,0,1,1,1,NA
fcp-trial,49,492076,0.0-10.0-0.0,voc_e2,12010,"[{""event"":""fullscreenenter"",""trial"":1,""time"":2148},{""event"":""fullscreenexit"",""trial"":1,""time"":2348}]",NA,NA,NA,NA,NA,6,#D8271C,#741CD8,10,10,1,38,1,2048.099999964237,37,1,1830.7999999523165,10,1,experiment,NA,NA,2,0.5,0.5,4,5,2,1,NA
fcp-trial,50,497370,0.0-11.0-0.0,voc_e2,12010,"[{""event"":""fullscreenenter"",""trial"":1,""time"":2148},{""event"":""fullscreenexit"",""trial"":1,""time"":2348}]",NA,NA,NA,NA,NA,5,#741CD8,#D8271C,10,10,0,40,0,1827,39,0,1944.899999976158,10,1,experiment,NA,NA,2,0.5,0.5,5,4,3,1,NA
fcp-trial,51,502997,0.0-12.0-0.0,voc_e2,12010,"[{""event"":""fullscreenenter"",""trial"":1,""time"":2148},{""event"":""fullscreenexit"",""trial"":1,""time"":2348}]",NA,NA,NA,NA,NA,0,#1CD855,#FA92F8,10,0,1,40,0,2703.300000011921,39,0,1402.199999988079,0,0,experiment,NA,NA,1,0.7,0.3,2,3,4,1,NA
fcp-trial,52,506716,0.0-13.0-0.0,voc_e2,12010,"[{""event"":""fullscreenenter"",""trial"":1,""time"":2148},{""event"":""fullscreenexit"",""trial"":1,""time"":2348}]",NA,NA,NA,NA,NA,1,#3386FF,#D89F1C,10,0,1,38,1,1012.5,37,1,1186.899999976158,10,1,experiment,NA,NA,0,0.9,0.1,0,1,5,1,NA
fcp-trial,53,510554,0.0-14.0-0.0,voc_e2,12010,"[{""event"":""fullscreenenter"",""trial"":1,""time"":2148},{""event"":""fullscreenexit"",""trial"":1,""time"":2348}]",NA,NA,NA,NA,NA,4,#FA92F8,#1CD855,0,10,0,38,1,1382.3999999761581,37,1,948.1999999880792,0,0,experiment,NA,NA,1,0.3,0.7,3,2,6,1,NA
fcp-trial,54,515339,0.0-15.0-0.0,voc_e2,12010,"[{""event"":""fullscreenenter"",""trial"":1,""time"":2148},{""event"":""fullscreenexit"",""trial"":1,""time"":2348}]",NA,NA,NA,NA,NA,2,#D8271C,#741CD8,0,10,1,40,0,1608.9000000357628,39,0,1669.2000000476835,10,0,experiment,NA,NA,2,0.5,0.5,4,5,7,1,NA
fcp-trial,55,519516,0.0-16.0-0.0,voc_e2,12010,"[{""event"":""fullscreenenter"",""trial"":1,""time"":2148},{""event"":""fullscreenexit"",""trial"":1,""time"":2348}]",NA,NA,NA,NA,NA,3,#D89F1C,#3386FF,0,10,0,40,0,1520.800000011921,37,1,1149.300000011921,0,0,experiment,NA,NA,0,0.1,0.9,1,0,8,1,NA
fcp-trial,56,523947,0.0-17.0-0.0,voc_e2,12010,"[{""event"":""fullscreenenter"",""trial"":1,""time"":2148},{""event"":""fullscreenexit"",""trial"":1,""time"":2348}]",NA,NA,NA,NA,NA,1,#D8271C,#741CD8,0,10,1,40,0,2066.599999964237,39,0,852.3000000119209,10,0,experiment,NA,NA,2,0.5,0.5,4,5,9,1,NA
fcp-trial,57,527660,0.0-18.0-0.0,voc_e2,12010,"[{""event"":""fullscreenenter"",""trial"":1,""time"":2148},{""event"":""fullscreenexit"",""trial"":1,""time"":2348}]",NA,NA,NA,NA,NA,5,#FA92F8,#1CD855,0,0,0,38,1,776.9000000357628,37,1,1423.5,0,0,experiment,NA,NA,1,0.3,0.7,3,2,10,1,NA
fcp-trial,58,531403,0.0-19.0-0.0,voc_e2,12010,"[{""event"":""fullscreenenter"",""trial"":1,""time"":2148},{""event"":""fullscreenexit"",""trial"":1,""time"":2348}]",NA,NA,NA,NA,NA,2,#FA92F8,#1CD855,10,10,0,38,1,1422.4000000357628,39,0,809,10,1,experiment,NA,NA,1,0.3,0.7,3,2,11,1,NA
fcp-trial,59,537012,0.0-20.0-0.0,voc_e2,12010,"[{""event"":""fullscreenenter"",""trial"":1,""time"":2148},{""event"":""fullscreenexit"",""trial"":1,""time"":2348}]",NA,NA,NA,NA,NA,2,#D89F1C,#3386FF,0,10,0,38,1,2855.5,39,0,1249.2999999523165,10,1,experiment,NA,NA,0,0.1,0.9,1,0,12,1,NA
fcp-trial,60,541421,0.0-21.0-0.0,voc_e2,12010,"[{""event"":""fullscreenenter"",""trial"":1,""time"":2148},{""event"":""fullscreenexit"",""trial"":1,""time"":2348}]",NA,NA,NA,NA,NA,1,#FA92F8,#1CD855,10,10,0,40,0,1901.8999999761581,37,1,999,10,0,experiment,NA,NA,1,0.3,0.7,3,2,13,1,NA
fcp-trial,61,546948,0.0-22.0-0.0,voc_e2,12010,"[{""event"":""fullscreenenter"",""trial"":1,""time"":2148},{""event"":""fullscreenexit"",""trial"":1,""time"":2348}]",NA,NA,NA,NA,NA,4,#741CD8,#D8271C,0,10,0,38,1,2910.7999999523163,39,0,1111.300000011921,10,1,experiment,NA,NA,2,0.5,0.5,5,4,14,1,NA
fcp-trial,62,551150,0.0-23.0-0.0,voc_e2,12010,"[{""event"":""fullscreenenter"",""trial"":1,""time"":2148},{""event"":""fullscreenexit"",""trial"":1,""time"":2348}]",NA,NA,NA,NA,NA,5,#3386FF,#D89F1C,10,0,1,40,0,1696.4000000357628,39,0,990.9000000357628,0,0,experiment,NA,NA,0,0.9,0.1,0,1,15,1,NA
fcp-trial,63,555973,0.0-24.0-0.0,voc_e2,12010,"[{""event"":""fullscreenenter"",""trial"":1,""time"":2148},{""event"":""fullscreenexit"",""trial"":1,""time"":2348}]",NA,NA,NA,NA,NA,3,#741CD8,#D8271C,10,10,0,40,0,2154.5,39,0,1159.399999976158,10,1,experiment,NA,NA,2,0.5,0.5,5,4,16,1,NA
fcp-trial,64,560364,0.0-25.0-0.0,voc_e2,12010,"[{""event"":""fullscreenenter"",""trial"":1,""time"":2148},{""event"":""fullscreenexit"",""trial"":1,""time"":2348}]",NA,NA,NA,NA,NA,3,#FA92F8,#1CD855,10,0,0,38,1,1102.5,39,0,1777,0,1,experiment,NA,NA,1,0.3,0.7,3,2,17,1,NA
fcp-trial,65,565317,0.0-26.0-0.0,voc_e2,12010,"[{""event"":""fullscreenenter"",""trial"":1,""time"":2148},{""event"":""fullscreenexit"",""trial"":1,""time"":2348}]",NA,NA,NA,NA,NA,6,#3386FF,#D89F1C,10,0,1,40,0,2358.5,39,0,1086.4000000357628,0,0,experiment,NA,NA,0,0.9,0.1,0,1,18,1,NA
fcp-trial,66,568565,0.0-27.0-0.0,voc_e2,12010,"[{""event"":""fullscreenenter"",""trial"":1,""time"":2148},{""event"":""fullscreenexit"",""trial"":1,""time"":2348}]",NA,NA,NA,NA,NA,4,#3386FF,#D89F1C,10,0,1,38,1,928.5,37,1,806.2999999523163,10,1,experiment,NA,NA,0,0.9,0.1,0,1,19,1,NA
fcp-trial,67,573310,0.0-28.0-0.0,voc_e2,12010,"[{""event"":""fullscreenenter"",""trial"":1,""time"":2148},{""event"":""fullscreenexit"",""trial"":1,""time"":2348}]",NA,NA,NA,NA,NA,0,#D8271C,#741CD8,0,10,1,38,1,2496.5,39,0,734.5,10,0,experiment,NA,NA,2,0.5,0.5,4,5,20,1,NA
fcp-trial,68,576652,0.0-29.0-0.0,voc_e2,12010,"[{""event"":""fullscreenenter"",""trial"":1,""time"":2148},{""event"":""fullscreenexit"",""trial"":1,""time"":2348}]",NA,NA,NA,NA,NA,6,#FA92F8,#1CD855,0,10,0,40,0,927,39,0,901.3000000119208,10,1,experiment,NA,NA,1,0.3,0.7,3,2,21,1,NA
fcp-trial,69,580431,0.0-30.0-0.0,voc_e2,12010,"[{""event"":""fullscreenenter"",""trial"":1,""time"":2148},{""event"":""fullscreenexit"",""trial"":1,""time"":2348}]",NA,NA,NA,NA,NA,2,#1CD855,#FA92F8,10,10,1,40,0,1493.5,39,0,774.5,10,0,experiment,NA,NA,1,0.7,0.3,2,3,22,1,NA
fcp-trial,70,584021,0.0-31.0-0.0,voc_e2,12010,"[{""event"":""fullscreenenter"",""trial"":1,""time"":2148},{""event"":""fullscreenexit"",""trial"":1,""time"":2348}]",NA,NA,NA,NA,NA,4,#FA92F8,#1CD855,0,10,0,38,1,794.3000000119209,39,0,1287.100000023842,10,1,experiment,NA,NA,1,0.3,0.7,3,2,23,1,NA
fcp-trial,71,587630,0.0-32.0-0.0,voc_e2,12010,"[{""event"":""fullscreenenter"",""trial"":1,""time"":2148},{""event"":""fullscreenexit"",""trial"":1,""time"":2348}]",NA,NA,NA,NA,NA,2,#3386FF,#D89F1C,10,0,1,40,0,1224.3999999761581,37,1,871.5,10,1,experiment,NA,NA,0,0.9,0.1,0,1,24,1,NA
fcp-trial,72,591036,0.0-33.0-0.0,voc_e2,12010,"[{""event"":""fullscreenenter"",""trial"":1,""time"":2148},{""event"":""fullscreenexit"",""trial"":1,""time"":2348}]",NA,NA,NA,NA,NA,3,#D89F1C,#3386FF,0,10,0,40,0,1208.699999988079,39,0,693.1999999880791,10,1,experiment,NA,NA,0,0.1,0.9,1,0,25,1,NA
fcp-trial,73,594065,0.0-34.0-0.0,voc_e2,12010,"[{""event"":""fullscreenenter"",""trial"":1,""time"":2148},{""event"":""fullscreenexit"",""trial"":1,""time"":2348}]",NA,NA,NA,NA,NA,1,#D8271C,#741CD8,10,10,1,38,1,846.5,39,0,673.9000000357628,10,0,experiment,NA,NA,2,0.5,0.5,4,5,26,1,NA
fcp-trial,74,597838,0.0-35.0-0.0,voc_e2,12010,"[{""event"":""fullscreenenter"",""trial"":1,""time"":2148},{""event"":""fullscreenexit"",""trial"":1,""time"":2348}]",NA,NA,NA,NA,NA,4,#D89F1C,#3386FF,0,10,0,40,0,1005.6000000238419,37,1,1254.7999999523165,0,0,experiment,NA,NA,0,0.1,0.9,1,0,27,1,NA
fcp-trial,75,601303,0.0-36.0-0.0,voc_e2,12010,"[{""event"":""fullscreenenter"",""trial"":1,""time"":2148},{""event"":""fullscreenexit"",""trial"":1,""time"":2348}]",NA,NA,NA,NA,NA,1,#FA92F8,#1CD855,0,10,0,40,0,1249.1000000238419,39,0,708.8000000119209,10,1,experiment,NA,NA,1,0.3,0.7,3,2,28,1,NA
fcp-trial,76,604199,0.0-37.0-0.0,voc_e2,12010,"[{""event"":""fullscreenenter"",""trial"":1,""time"":2148},{""event"":""fullscreenexit"",""trial"":1,""time"":2348}]",NA,NA,NA,NA,NA,6,#D89F1C,#3386FF,0,10,0,38,1,757.6999999880791,39,0,628.5,10,1,experiment,NA,NA,0,0.1,0.9,1,0,29,1,NA
fcp-trial,77,606862,0.0-38.0-0.0,voc_e2,12010,"[{""event"":""fullscreenenter"",""trial"":1,""time"":2148},{""event"":""fullscreenexit"",""trial"":1,""time"":2348}]",NA,NA,NA,NA,NA,2,#741CD8,#D8271C,0,0,0,38,1,628.5,39,0,524.7999999523163,0,1,experiment,NA,NA,2,0.5,0.5,5,4,30,1,NA
fcp-trial,78,609638,0.0-39.0-0.0,voc_e2,12010,"[{""event"":""fullscreenenter"",""trial"":1,""time"":2148},{""event"":""fullscreenexit"",""trial"":1,""time"":2348}]",NA,NA,NA,NA,NA,1,#D89F1C,#3386FF,0,10,0,38,1,711.8999999761581,37,1,559.6000000238419,0,0,experiment,NA,NA,0,0.1,0.9,1,0,31,1,NA
fcp-trial,79,613800,0.0-40.0-0.0,voc_e2,12010,"[{""event"":""fullscreenenter"",""trial"":1,""time"":2148},{""event"":""fullscreenexit"",""trial"":1,""time"":2348}]",NA,NA,NA,NA,NA,6,#1CD855,#FA92F8,10,0,1,40,0,1470,37,1,1182.2000000476835,10,1,experiment,NA,NA,1,0.7,0.3,2,3,32,1,NA
fcp-trial,80,617312,0.0-41.0-0.0,voc_e2,12010,"[{""event"":""fullscreenenter"",""trial"":1,""time"":2148},{""event"":""fullscreenexit"",""trial"":1,""time"":2348}]",NA,NA,NA,NA,NA,4,#D8271C,#741CD8,0,0,1,40,0,1343.7000000476837,39,0,654.3999999761581,0,0,experiment,NA,NA,2,0.5,0.5,4,5,33,1,NA
fcp-trial,81,620904,0.0-42.0-0.0,voc_e2,12010,"[{""event"":""fullscreenenter"",""trial"":1,""time"":2148},{""event"":""fullscreenexit"",""trial"":1,""time"":2348}]",NA,NA,NA,NA,NA,5,#741CD8,#D8271C,10,0,0,38,1,789,37,1,1296.5999999642372,10,0,experiment,NA,NA,2,0.5,0.5,5,4,34,1,NA
fcp-trial,82,625224,0.0-43.0-0.0,voc_e2,12010,"[{""event"":""fullscreenenter"",""trial"":1,""time"":2148},{""event"":""fullscreenexit"",""trial"":1,""time"":2348}]",NA,NA,NA,NA,NA,0,#741CD8,#D8271C,0,10,0,40,0,1443.0999999642372,39,0,1366.100000023842,10,1,experiment,NA,NA,2,0.5,0.5,5,4,35,1,NA
fcp-trial,83,628630,0.0-44.0-0.0,voc_e2,12010,"[{""event"":""fullscreenenter"",""trial"":1,""time"":2148},{""event"":""fullscreenexit"",""trial"":1,""time"":2348}]",NA,NA,NA,NA,NA,0,#D89F1C,#3386FF,0,10,0,38,1,1231.7000000476837,37,1,669.5,0,0,experiment,NA,NA,0,0.1,0.9,1,0,36,1,NA
fcp-trial,84,634384,0.0-45.0-0.0,voc_e2,12010,"[{""event"":""fullscreenenter"",""trial"":1,""time"":2148},{""event"":""fullscreenexit"",""trial"":1,""time"":2348}]",NA,NA,NA,NA,NA,5,#1CD855,#FA92F8,10,0,1,38,1,2165.5,37,1,2080,10,1,experiment,NA,NA,1,0.7,0.3,2,3,37,1,NA
fcp-trial,85,638584,0.0-46.0-0.0,voc_e2,12010,"[{""event"":""fullscreenenter"",""trial"":1,""time"":2148},{""event"":""fullscreenexit"",""trial"":1,""time"":2348}]",NA,NA,NA,NA,NA,0,#FA92F8,#1CD855,0,10,0,40,0,1916.800000011921,39,0,774.8000000119209,10,1,experiment,NA,NA,1,0.3,0.7,3,2,38,1,NA
fcp-trial,86,643144,0.0-47.0-0.0,voc_e2,12010,"[{""event"":""fullscreenenter"",""trial"":1,""time"":2148},{""event"":""fullscreenexit"",""trial"":1,""time"":2348}]",NA,NA,NA,NA,NA,3,#D8271C,#741CD8,10,0,1,40,0,2122.400000035763,37,1,926.399999976158,10,1,experiment,NA,NA,2,0.5,0.5,4,5,39,1,NA
fcp-trial,87,646113,0.0-48.0-0.0,voc_e2,12010,"[{""event"":""fullscreenenter"",""trial"":1,""time"":2148},{""event"":""fullscreenexit"",""trial"":1,""time"":2348}]",NA,NA,NA,NA,NA,5,#D89F1C,#3386FF,0,10,0,38,1,661.6999999880791,39,0,798.7000000476837,10,1,experiment,NA,NA,0,0.1,0.9,1,0,40,1,NA
fcp-trial,88,651752,0.0-49.0-0.0,voc_e2,12010,"[{""event"":""fullscreenenter"",""trial"":1,""time"":2148},{""event"":""fullscreenexit"",""trial"":1,""time"":2348}]",NA,NA,NA,NA,NA,3,#1CD855,#FA92F8,0,0,1,38,1,2495.099999964237,37,1,1630.699999988079,0,1,experiment,NA,NA,1,0.7,0.3,2,3,41,1,NA
fcp-trial,89,655625,0.0-50.0-0.0,voc_e2,12010,"[{""event"":""fullscreenenter"",""trial"":1,""time"":2148},{""event"":""fullscreenexit"",""trial"":1,""time"":2348}]",NA,NA,NA,NA,NA,6,#741CD8,#D8271C,10,0,0,40,0,1408.1000000238419,37,1,950.5,10,0,experiment,NA,NA,2,0.5,0.5,5,4,42,1,NA
fcp-trial,90,658921,0.0-51.0-0.0,voc_e2,12010,"[{""event"":""fullscreenenter"",""trial"":1,""time"":2148},{""event"":""fullscreenexit"",""trial"":1,""time"":2348}]",NA,NA,NA,NA,NA,4,#D89F1C,#3386FF,0,10,0,40,0,1054.5,37,1,726.6999999880791,0,0,experiment,NA,NA,0,0.1,0.9,1,0,43,1,NA
fcp-trial,91,662000,0.0-52.0-0.0,voc_e2,12010,"[{""event"":""fullscreenenter"",""trial"":1,""time"":2148},{""event"":""fullscreenexit"",""trial"":1,""time"":2348}]",NA,NA,NA,NA,NA,0,#1CD855,#FA92F8,10,10,1,38,1,789.9000000357628,39,0,774.7000000476837,10,0,experiment,NA,NA,1,0.7,0.3,2,3,44,1,NA
fcp-trial,92,665664,0.0-53.0-0.0,voc_e2,12010,"[{""event"":""fullscreenenter"",""trial"":1,""time"":2148},{""event"":""fullscreenexit"",""trial"":1,""time"":2348}]",NA,NA,NA,NA,NA,2,#FA92F8,#1CD855,0,0,0,38,1,1240.8999999761581,37,1,919.7000000476836,0,0,experiment,NA,NA,1,0.3,0.7,3,2,45,1,NA
fcp-trial,93,670745,0.0-54.0-0.0,voc_e2,12010,"[{""event"":""fullscreenenter"",""trial"":1,""time"":2148},{""event"":""fullscreenexit"",""trial"":1,""time"":2348}]",NA,NA,NA,NA,NA,2,#741CD8,#D8271C,10,10,0,40,0,2735.100000023842,39,0,832.1999999880791,10,1,experiment,NA,NA,2,0.5,0.5,5,4,46,2,NA
fcp-trial,94,674914,0.0-55.0-0.0,voc_e2,12010,"[{""event"":""fullscreenenter"",""trial"":1,""time"":2148},{""event"":""fullscreenexit"",""trial"":1,""time"":2348}]",NA,NA,NA,NA,NA,6,#3386FF,#D89F1C,10,0,1,38,1,1200.5,37,1,1454.5,10,1,experiment,NA,NA,0,0.9,0.1,0,1,47,2,NA
fcp-trial,95,679441,0.0-56.0-0.0,voc_e2,12010,"[{""event"":""fullscreenenter"",""trial"":1,""time"":2148},{""event"":""fullscreenexit"",""trial"":1,""time"":2348}]",NA,NA,NA,NA,NA,1,#FA92F8,#1CD855,0,0,0,40,0,1457.7999999523163,37,1,1561.0999999642372,0,0,experiment,NA,NA,1,0.3,0.7,3,2,48,2,NA
fcp-trial,96,683927,0.0-57.0-0.0,voc_e2,12010,"[{""event"":""fullscreenenter"",""trial"":1,""time"":2148},{""event"":""fullscreenexit"",""trial"":1,""time"":2348}]",NA,NA,NA,NA,NA,3,#741CD8,#D8271C,0,10,0,38,1,2054.300000011921,39,0,924.9000000357628,10,1,experiment,NA,NA,2,0.5,0.5,5,4,49,2,NA
fcp-trial,97,688314,0.0-58.0-0.0,voc_e2,12010,"[{""event"":""fullscreenenter"",""trial"":1,""time"":2148},{""event"":""fullscreenexit"",""trial"":1,""time"":2348}]",NA,NA,NA,NA,NA,5,#3386FF,#D89F1C,0,0,1,40,0,1798.800000011921,39,0,1079.399999976158,0,0,experiment,NA,NA,0,0.9,0.1,0,1,50,2,NA
fcp-trial,98,694394,0.0-59.0-0.0,voc_e2,12010,"[{""event"":""fullscreenenter"",""trial"":1,""time"":2148},{""event"":""fullscreenexit"",""trial"":1,""time"":2348}]",NA,NA,NA,NA,NA,3,#FA92F8,#1CD855,10,0,0,38,1,2109.199999988079,39,0,2464.099999964237,0,1,experiment,NA,NA,1,0.3,0.7,3,2,51,2,NA
fcp-trial,99,699020,0.0-60.0-0.0,voc_e2,12010,"[{""event"":""fullscreenenter"",""trial"":1,""time"":2148},{""event"":""fullscreenexit"",""trial"":1,""time"":2348}]",NA,NA,NA,NA,NA,0,#D89F1C,#3386FF,0,10,0,38,1,2503.800000011921,39,0,616.5,10,1,experiment,NA,NA,0,0.1,0.9,1,0,52,2,NA
fcp-trial,100,703579,0.0-61.0-0.0,voc_e2,12010,"[{""event"":""fullscreenenter"",""trial"":1,""time"":2148},{""event"":""fullscreenexit"",""trial"":1,""time"":2348}]",NA,NA,NA,NA,NA,6,#D8271C,#741CD8,0,10,1,38,1,2154.699999988079,37,1,895.5,0,1,experiment,NA,NA,2,0.5,0.5,4,5,53,2,NA
fcp-trial,101,707770,0.0-62.0-0.0,voc_e2,12010,"[{""event"":""fullscreenenter"",""trial"":1,""time"":2148},{""event"":""fullscreenexit"",""trial"":1,""time"":2348}]",NA,NA,NA,NA,NA,5,#1CD855,#FA92F8,0,0,1,38,1,1794.6000000238419,39,0,888,0,0,experiment,NA,NA,1,0.7,0.3,2,3,54,2,NA
fcp-trial,102,711697,0.0-63.0-0.0,voc_e2,12010,"[{""event"":""fullscreenenter"",""trial"":1,""time"":2148},{""event"":""fullscreenexit"",""trial"":1,""time"":2348}]",NA,NA,NA,NA,NA,5,#741CD8,#D8271C,10,10,0,38,1,1721.6000000238419,37,1,685,10,0,experiment,NA,NA,2,0.5,0.5,5,4,55,2,NA
fcp-trial,103,715634,0.0-64.0-0.0,voc_e2,12010,"[{""event"":""fullscreenenter"",""trial"":1,""time"":2148},{""event"":""fullscreenexit"",""trial"":1,""time"":2348}]",NA,NA,NA,NA,NA,2,#3386FF,#D89F1C,10,0,1,38,1,1804.5,39,0,624.6999999880791,0,0,experiment,NA,NA,0,0.9,0.1,0,1,56,2,NA
fcp-trial,104,720226,0.0-65.0-0.0,voc_e2,12010,"[{""event"":""fullscreenenter"",""trial"":1,""time"":2148},{""event"":""fullscreenexit"",""trial"":1,""time"":2348}]",NA,NA,NA,NA,NA,1,#D89F1C,#3386FF,0,10,0,40,0,1701.0999999642372,37,1,1381.800000011921,0,0,experiment,NA,NA,0,0.1,0.9,1,0,57,2,NA
fcp-trial,105,723873,0.0-66.0-0.0,voc_e2,12010,"[{""event"":""fullscreenenter"",""trial"":1,""time"":2148},{""event"":""fullscreenexit"",""trial"":1,""time"":2348}]",NA,NA,NA,NA,NA,6,#FA92F8,#1CD855,0,0,0,40,0,1221.0999999642372,37,1,918.100000023842,0,0,experiment,NA,NA,1,0.3,0.7,3,2,58,2,NA
fcp-trial,106,726931,0.0-67.0-0.0,voc_e2,12010,"[{""event"":""fullscreenenter"",""trial"":1,""time"":2148},{""event"":""fullscreenexit"",""trial"":1,""time"":2348}]",NA,NA,NA,NA,NA,4,#FA92F8,#1CD855,0,10,0,38,1,810.3999999761581,39,0,741.1000000238419,10,1,experiment,NA,NA,1,0.3,0.7,3,2,59,2,NA
fcp-trial,107,730898,0.0-68.0-0.0,voc_e2,12010,"[{""event"":""fullscreenenter"",""trial"":1,""time"":2148},{""event"":""fullscreenexit"",""trial"":1,""time"":2348}]",NA,NA,NA,NA,NA,4,#D8271C,#741CD8,10,0,1,38,1,1608.5,37,1,844.1000000238419,10,1,experiment,NA,NA,2,0.5,0.5,4,5,60,2,NA
fcp-trial,108,734668,0.0-69.0-0.0,voc_e2,12010,"[{""event"":""fullscreenenter"",""trial"":1,""time"":2148},{""event"":""fullscreenexit"",""trial"":1,""time"":2348}]",NA,NA,NA,NA,NA,0,#D8271C,#741CD8,0,0,1,38,1,1639,37,1,622.9000000357628,0,1,experiment,NA,NA,2,0.5,0.5,4,5,61,2,NA
fcp-trial,109,738261,0.0-70.0-0.0,voc_e2,12010,"[{""event"":""fullscreenenter"",""trial"":1,""time"":2148},{""event"":""fullscreenexit"",""trial"":1,""time"":2348}]",NA,NA,NA,NA,NA,3,#3386FF,#D89F1C,10,0,1,38,1,1382.4000000357628,39,0,698.3999999761581,0,0,experiment,NA,NA,0,0.9,0.1,0,1,62,2,NA
fcp-trial,110,741509,0.0-71.0-0.0,voc_e2,12010,"[{""event"":""fullscreenenter"",""trial"":1,""time"":2148},{""event"":""fullscreenexit"",""trial"":1,""time"":2348}]",NA,NA,NA,NA,NA,1,#D8271C,#741CD8,10,0,1,38,1,958.6000000238419,37,1,775.3000000119209,10,1,experiment,NA,NA,2,0.5,0.5,4,5,63,2,NA
fcp-trial,111,745747,0.0-72.0-0.0,voc_e2,12010,"[{""event"":""fullscreenenter"",""trial"":1,""time"":2148},{""event"":""fullscreenexit"",""trial"":1,""time"":2348}]",NA,NA,NA,NA,NA,4,#D8271C,#741CD8,0,10,1,38,1,1788.199999988079,39,0,942.399999976158,10,0,experiment,NA,NA,2,0.5,0.5,4,5,64,2,NA
fcp-trial,112,750962,0.0-73.0-0.0,voc_e2,12010,"[{""event"":""fullscreenenter"",""trial"":1,""time"":2148},{""event"":""fullscreenexit"",""trial"":1,""time"":2348}]",NA,NA,NA,NA,NA,0,#FA92F8,#1CD855,0,10,0,38,1,1368.6000000238419,37,1,2341,0,0,experiment,NA,NA,1,0.3,0.7,3,2,65,2,NA
fcp-trial,113,756524,0.0-74.0-0.0,voc_e2,12010,"[{""event"":""fullscreenenter"",""trial"":1,""time"":2148},{""event"":""fullscreenexit"",""trial"":1,""time"":2348}]",NA,NA,NA,NA,NA,3,#3386FF,#D89F1C,10,0,1,40,0,2775.400000035763,37,1,1277.600000023842,10,1,experiment,NA,NA,0,0.9,0.1,0,1,66,2,NA
fcp-trial,114,761185,0.0-75.0-0.0,voc_e2,12010,"[{""event"":""fullscreenenter"",""trial"":1,""time"":2148},{""event"":""fullscreenexit"",""trial"":1,""time"":2348}]",NA,NA,NA,NA,NA,6,#D89F1C,#3386FF,0,10,0,40,0,2075.699999988079,37,1,1078.5,0,0,experiment,NA,NA,0,0.1,0.9,1,0,67,2,NA
fcp-trial,115,766050,0.0-76.0-0.0,voc_e2,12010,"[{""event"":""fullscreenenter"",""trial"":1,""time"":2148},{""event"":""fullscreenexit"",""trial"":1,""time"":2348}]",NA,NA,NA,NA,NA,3,#D8271C,#741CD8,10,0,1,38,1,2137.5,37,1,1223.5,10,1,experiment,NA,NA,2,0.5,0.5,4,5,68,2,NA
fcp-trial,116,770036,0.0-77.0-0.0,voc_e2,12010,"[{""event"":""fullscreenenter"",""trial"":1,""time"":2148},{""event"":""fullscreenexit"",""trial"":1,""time"":2348}]",NA,NA,NA,NA,NA,2,#3386FF,#D89F1C,0,0,1,38,1,1702.6000000238419,39,0,766,0,0,experiment,NA,NA,0,0.9,0.1,0,1,69,2,NA
fcp-trial,117,774796,0.0-78.0-0.0,voc_e2,12010,"[{""event"":""fullscreenenter"",""trial"":1,""time"":2148},{""event"":""fullscreenexit"",""trial"":1,""time"":2348}]",NA,NA,NA,NA,NA,3,#1CD855,#FA92F8,10,0,1,38,1,2421,37,1,831.0999999642372,10,1,experiment,NA,NA,1,0.7,0.3,2,3,70,2,NA
fcp-trial,118,781100,0.0-79.0-0.0,voc_e2,12010,"[{""event"":""fullscreenenter"",""trial"":1,""time"":2148},{""event"":""fullscreenexit"",""trial"":1,""time"":2348}]",NA,NA,NA,NA,NA,6,#741CD8,#D8271C,10,10,0,40,0,3876.100000023842,39,0,917.100000023842,10,1,experiment,NA,NA,2,0.5,0.5,5,4,71,2,NA
fcp-trial,119,786419,0.0-80.0-0.0,voc_e2,12010,"[{""event"":""fullscreenenter"",""trial"":1,""time"":2148},{""event"":""fullscreenexit"",""trial"":1,""time"":2348}]",NA,NA,NA,NA,NA,1,#FA92F8,#1CD855,0,0,0,38,1,1692.699999988079,39,0,2117.399999976158,0,1,experiment,NA,NA,1,0.3,0.7,3,2,72,2,NA
fcp-trial,120,792941,0.0-81.0-0.0,voc_e2,12010,"[{""event"":""fullscreenenter"",""trial"":1,""time"":2148},{""event"":""fullscreenexit"",""trial"":1,""time"":2348}]",NA,NA,NA,NA,NA,0,#3386FF,#D89F1C,0,0,1,38,1,3103.2999999523163,37,1,1912.9000000357628,0,1,experiment,NA,NA,0,0.9,0.1,0,1,73,2,NA
fcp-trial,121,798182,0.0-82.0-0.0,voc_e2,12010,"[{""event"":""fullscreenenter"",""trial"":1,""time"":2148},{""event"":""fullscreenexit"",""trial"":1,""time"":2348}]",NA,NA,NA,NA,NA,1,#741CD8,#D8271C,0,0,0,38,1,2410.100000023842,39,0,1320.699999988079,0,1,experiment,NA,NA,2,0.5,0.5,5,4,74,2,NA
fcp-trial,122,802598,0.0-83.0-0.0,voc_e2,12010,"[{""event"":""fullscreenenter"",""trial"":1,""time"":2148},{""event"":""fullscreenexit"",""trial"":1,""time"":2348}]",NA,NA,NA,NA,NA,0,#D8271C,#741CD8,10,0,1,40,0,2217.5,39,0,689.0999999642372,0,0,experiment,NA,NA,2,0.5,0.5,4,5,75,2,NA
fcp-trial,123,807035,0.0-84.0-0.0,voc_e2,12010,"[{""event"":""fullscreenenter"",""trial"":1,""time"":2148},{""event"":""fullscreenexit"",""trial"":1,""time"":2348}]",NA,NA,NA,NA,NA,5,#1CD855,#FA92F8,0,0,1,40,0,1992.5,39,0,934.1999999880792,0,0,experiment,NA,NA,1,0.7,0.3,2,3,76,2,NA
fcp-trial,124,810421,0.0-85.0-0.0,voc_e2,12010,"[{""event"":""fullscreenenter"",""trial"":1,""time"":2148},{""event"":""fullscreenexit"",""trial"":1,""time"":2348}]",NA,NA,NA,NA,NA,4,#3386FF,#D89F1C,10,0,1,38,1,954.5999999642372,37,1,926.9000000357628,10,1,experiment,NA,NA,0,0.9,0.1,0,1,77,2,NA
fcp-trial,125,815130,0.0-86.0-0.0,voc_e2,12010,"[{""event"":""fullscreenenter"",""trial"":1,""time"":2148},{""event"":""fullscreenexit"",""trial"":1,""time"":2348}]",NA,NA,NA,NA,NA,5,#D8271C,#741CD8,10,0,1,38,1,1171.4000000357628,37,1,2023.199999988079,10,1,experiment,NA,NA,2,0.5,0.5,4,5,78,2,NA
fcp-trial,126,820670,0.0-87.0-0.0,voc_e2,12010,"[{""event"":""fullscreenenter"",""trial"":1,""time"":2148},{""event"":""fullscreenexit"",""trial"":1,""time"":2348}]",NA,NA,NA,NA,NA,6,#FA92F8,#1CD855,0,0,0,40,0,3036.600000023842,39,0,989.8000000119208,0,1,experiment,NA,NA,1,0.3,0.7,3,2,79,2,NA
fcp-trial,127,824830,0.0-88.0-0.0,voc_e2,12010,"[{""event"":""fullscreenenter"",""trial"":1,""time"":2148},{""event"":""fullscreenexit"",""trial"":1,""time"":2348}]",NA,NA,NA,NA,NA,5,#D89F1C,#3386FF,0,10,0,38,1,1392.5,37,1,1254.699999988079,0,0,experiment,NA,NA,0,0.1,0.9,1,0,80,2,NA
fcp-trial,128,830237,0.0-89.0-0.0,voc_e2,12010,"[{""event"":""fullscreenenter"",""trial"":1,""time"":2148},{""event"":""fullscreenexit"",""trial"":1,""time"":2348}]",NA,NA,NA,NA,NA,4,#FA92F8,#1CD855,10,10,0,38,1,2828.099999964237,39,0,1072,10,1,experiment,NA,NA,1,0.3,0.7,3,2,81,2,NA
fcp-trial,129,836613,0.0-90.0-0.0,voc_e2,12010,"[{""event"":""fullscreenenter"",""trial"":1,""time"":2148},{""event"":""fullscreenexit"",""trial"":1,""time"":2348}]",NA,NA,NA,NA,NA,2,#FA92F8,#1CD855,10,0,0,38,1,3424.599999964237,37,1,1445.800000011921,10,0,experiment,NA,NA,1,0.3,0.7,3,2,82,2,NA
fcp-trial,130,841045,0.0-91.0-0.0,voc_e2,12010,"[{""event"":""fullscreenenter"",""trial"":1,""time"":2148},{""event"":""fullscreenexit"",""trial"":1,""time"":2348}]",NA,NA,NA,NA,NA,2,#741CD8,#D8271C,10,0,0,40,0,2063.699999988079,37,1,855.1999999880791,10,0,experiment,NA,NA,2,0.5,0.5,5,4,83,2,NA
fcp-trial,131,844965,0.0-92.0-0.0,voc_e2,12010,"[{""event"":""fullscreenenter"",""trial"":1,""time"":2148},{""event"":""fullscreenexit"",""trial"":1,""time"":2348}]",NA,NA,NA,NA,NA,1,#D89F1C,#3386FF,10,0,0,38,1,1384.8999999761581,39,0,1022.3000000119208,0,1,experiment,NA,NA,0,0.1,0.9,1,0,84,2,NA
fcp-trial,132,849222,0.0-93.0-0.0,voc_e2,12010,"[{""event"":""fullscreenenter"",""trial"":1,""time"":2148},{""event"":""fullscreenexit"",""trial"":1,""time"":2348}]",NA,NA,NA,NA,NA,3,#D89F1C,#3386FF,0,10,0,38,1,1648.3999999761581,37,1,1095.199999988079,0,0,experiment,NA,NA,0,0.1,0.9,1,0,85,2,NA
fcp-trial,133,853909,0.0-94.0-0.0,voc_e2,12010,"[{""event"":""fullscreenenter"",""trial"":1,""time"":2148},{""event"":""fullscreenexit"",""trial"":1,""time"":2348}]",NA,NA,NA,NA,NA,0,#1CD855,#FA92F8,0,0,1,38,1,2016.0999999642372,37,1,1165.699999988079,0,1,experiment,NA,NA,1,0.7,0.3,2,3,86,2,NA
fcp-trial,134,857295,0.0-95.0-0.0,voc_e2,12010,"[{""event"":""fullscreenenter"",""trial"":1,""time"":2148},{""event"":""fullscreenexit"",""trial"":1,""time"":2348}]",NA,NA,NA,NA,NA,0,#D89F1C,#3386FF,0,10,0,38,1,1350.5,39,0,519,10,1,experiment,NA,NA,0,0.1,0.9,1,0,87,2,NA
fcp-trial,135,860070,0.0-96.0-0.0,voc_e2,12010,"[{""event"":""fullscreenenter"",""trial"":1,""time"":2148},{""event"":""fullscreenexit"",""trial"":1,""time"":2348}]",NA,NA,NA,NA,NA,3,#FA92F8,#1CD855,10,10,0,38,1,712.6000000238419,39,0,549.7999999523163,10,1,experiment,NA,NA,1,0.3,0.7,3,2,88,2,NA
fcp-trial,136,862960,0.0-97.0-0.0,voc_e2,12010,"[{""event"":""fullscreenenter"",""trial"":1,""time"":2148},{""event"":""fullscreenexit"",""trial"":1,""time"":2348}]",NA,NA,NA,NA,NA,0,#741CD8,#D8271C,10,0,0,38,1,855.8999999761581,37,1,527.1000000238419,10,0,experiment,NA,NA,2,0.5,0.5,5,4,89,2,NA
fcp-trial,137,865877,0.0-98.0-0.0,voc_e2,12010,"[{""event"":""fullscreenenter"",""trial"":1,""time"":2148},{""event"":""fullscreenexit"",""trial"":1,""time"":2348}]",NA,NA,NA,NA,NA,1,#3386FF,#D89F1C,10,0,1,38,1,947,39,0,453,0,0,experiment,NA,NA,0,0.9,0.1,0,1,90,2,NA
fcp-trial,138,869472,0.0-99.0-0.0,voc_e2,12010,"[{""event"":""fullscreenenter"",""trial"":1,""time"":2148},{""event"":""fullscreenexit"",""trial"":1,""time"":2348}]",NA,NA,NA,NA,NA,1,#1CD855,#FA92F8,10,0,1,38,1,920.5999999642372,37,1,1167.399999976158,10,1,experiment,NA,NA,1,0.7,0.3,2,3,91,3,NA
fcp-trial,139,872526,0.0-100.0-0.0,voc_e2,12010,"[{""event"":""fullscreenenter"",""trial"":1,""time"":2148},{""event"":""fullscreenexit"",""trial"":1,""time"":2348}]",NA,NA,NA,NA,NA,6,#741CD8,#D8271C,0,10,0,38,1,1039.5,37,1,500.10000002384186,0,0,experiment,NA,NA,2,0.5,0.5,5,4,92,3,NA
fcp-trial,140,875134,0.0-101.0-0.0,voc_e2,12010,"[{""event"":""fullscreenenter"",""trial"":1,""time"":2148},{""event"":""fullscreenexit"",""trial"":1,""time"":2348}]",NA,NA,NA,NA,NA,6,#D89F1C,#3386FF,0,10,0,38,1,640.3000000119209,39,0,455.199999988079,10,1,experiment,NA,NA,0,0.1,0.9,1,0,93,3,NA
fcp-trial,141,877670,0.0-102.0-0.0,voc_e2,12010,"[{""event"":""fullscreenenter"",""trial"":1,""time"":2148},{""event"":""fullscreenexit"",""trial"":1,""time"":2348}]",NA,NA,NA,NA,NA,3,#741CD8,#D8271C,0,0,0,38,1,589.8000000119209,39,0,430,0,1,experiment,NA,NA,2,0.5,0.5,5,4,94,3,NA
fcp-trial,142,880129,0.0-103.0-0.0,voc_e2,12010,"[{""event"":""fullscreenenter"",""trial"":1,""time"":2148},{""event"":""fullscreenexit"",""trial"":1,""time"":2348}]",NA,NA,NA,NA,NA,2,#FA92F8,#1CD855,0,10,0,38,1,509.30000001192093,37,1,437.7000000476837,0,0,experiment,NA,NA,1,0.3,0.7,3,2,95,3,NA
fcp-trial,143,883337,0.0-104.0-0.0,voc_e2,12010,"[{""event"":""fullscreenenter"",""trial"":1,""time"":2148},{""event"":""fullscreenexit"",""trial"":1,""time"":2348}]",NA,NA,NA,NA,NA,6,#FA92F8,#1CD855,10,10,0,38,1,1274.9000000357628,39,0,424.5,10,1,experiment,NA,NA,1,0.3,0.7,3,2,96,3,NA
fcp-trial,144,886105,0.0-105.0-0.0,voc_e2,12010,"[{""event"":""fullscreenenter"",""trial"":1,""time"":2148},{""event"":""fullscreenexit"",""trial"":1,""time"":2348}]",NA,NA,NA,NA,NA,2,#3386FF,#D89F1C,10,10,1,38,1,830.6000000238419,37,1,423.5,10,1,experiment,NA,NA,0,0.9,0.1,0,1,97,3,NA
fcp-trial,145,891160,0.0-106.0-0.0,voc_e2,12010,"[{""event"":""fullscreenenter"",""trial"":1,""time"":2148},{""event"":""fullscreenexit"",""trial"":1,""time"":2348}]",NA,NA,NA,NA,NA,4,#741CD8,#D8271C,10,10,0,40,0,2510.399999976158,37,1,1030.0999999642372,10,0,experiment,NA,NA,2,0.5,0.5,5,4,98,3,NA
fcp-trial,146,894832,0.0-107.0-0.0,voc_e2,12010,"[{""event"":""fullscreenenter"",""trial"":1,""time"":2148},{""event"":""fullscreenexit"",""trial"":1,""time"":2348}]",NA,NA,NA,NA,NA,5,#D8271C,#741CD8,0,0,1,40,0,1268.8999999761581,39,0,894.8000000119209,0,0,experiment,NA,NA,2,0.5,0.5,4,5,99,3,NA
fcp-trial,147,898281,0.0-108.0-0.0,voc_e2,12010,"[{""event"":""fullscreenenter"",""trial"":1,""time"":2148},{""event"":""fullscreenexit"",""trial"":1,""time"":2348}]",NA,NA,NA,NA,NA,5,#D89F1C,#3386FF,10,0,0,38,1,1461.5,39,0,479,0,1,experiment,NA,NA,0,0.1,0.9,1,0,100,3,NA
fcp-trial,148,900867,0.0-109.0-0.0,voc_e2,12010,"[{""event"":""fullscreenenter"",""trial"":1,""time"":2148},{""event"":""fullscreenexit"",""trial"":1,""time"":2348}]",NA,NA,NA,NA,NA,4,#1CD855,#FA92F8,10,0,1,38,1,596.5,37,1,480.10000002384186,10,1,experiment,NA,NA,1,0.7,0.3,2,3,101,3,NA
fcp-trial,149,903538,0.0-110.0-0.0,voc_e2,12010,"[{""event"":""fullscreenenter"",""trial"":1,""time"":2148},{""event"":""fullscreenexit"",""trial"":1,""time"":2348}]",NA,NA,NA,NA,NA,4,#3386FF,#D89F1C,0,0,1,38,1,693.1000000238419,37,1,463.60000002384186,0,1,experiment,NA,NA,0,0.9,0.1,0,1,102,3,NA
fcp-trial,150,906625,0.0-111.0-0.0,voc_e2,12010,"[{""event"":""fullscreenenter"",""trial"":1,""time"":2148},{""event"":""fullscreenexit"",""trial"":1,""time"":2348}]",NA,NA,NA,NA,NA,1,#D8271C,#741CD8,0,10,1,38,1,1094.1000000238419,39,0,484.2999999523163,10,0,experiment,NA,NA,2,0.5,0.5,4,5,103,3,NA
fcp-trial,151,909616,0.0-112.0-0.0,voc_e2,12010,"[{""event"":""fullscreenenter"",""trial"":1,""time"":2148},{""event"":""fullscreenexit"",""trial"":1,""time"":2348}]",NA,NA,NA,NA,NA,5,#FA92F8,#1CD855,0,10,0,38,1,632.1000000238419,37,1,845.8000000119209,0,0,experiment,NA,NA,1,0.3,0.7,3,2,104,3,NA
fcp-trial,152,913993,0.0-113.0-0.0,voc_e2,12010,"[{""event"":""fullscreenenter"",""trial"":1,""time"":2148},{""event"":""fullscreenexit"",""trial"":1,""time"":2348}]",NA,NA,NA,NA,NA,2,#741CD8,#D8271C,0,0,0,38,1,790.8999999761581,37,1,2079.399999976158,0,0,experiment,NA,NA,2,0.5,0.5,5,4,105,3,NA
audio-instructions,153,952973,0.0-114.0,voc_e2,12010,"[{""event"":""fullscreenenter"",""trial"":1,""time"":2148},{""event"":""fullscreenexit"",""trial"":1,""time"":2348}]",NA,34475.30000001192,static/audio/pause.wav,NA,0,NA,NA,NA,NA,NA,NA,NA,NA,NA,NA,NA,NA,NA,NA,NA,NA,NA,NA,NA,NA,NA,NA,NA,NA,NA
fcp-trial,154,956066,0.0-115.0-0.0,voc_e2,12010,"[{""event"":""fullscreenenter"",""trial"":1,""time"":2148},{""event"":""fullscreenexit"",""trial"":1,""time"":2348}]",NA,NA,NA,NA,NA,4,#D89F1C,#3386FF,0,10,0,38,1,876.3000000119209,37,1,711.1000000238419,0,0,experiment,NA,NA,0,0.1,0.9,1,0,106,3,NA
fcp-trial,155,959306,0.0-116.0-0.0,voc_e2,12010,"[{""event"":""fullscreenenter"",""trial"":1,""time"":2148},{""event"":""fullscreenexit"",""trial"":1,""time"":2348}]",NA,NA,NA,NA,NA,3,#1CD855,#FA92F8,0,10,1,38,1,952.9000000357628,39,0,774.1000000238419,10,0,experiment,NA,NA,1,0.7,0.3,2,3,107,3,NA
fcp-trial,156,962826,0.0-117.0-0.0,voc_e2,12010,"[{""event"":""fullscreenenter"",""trial"":1,""time"":2148},{""event"":""fullscreenexit"",""trial"":1,""time"":2348}]",NA,NA,NA,NA,NA,6,#D89F1C,#3386FF,0,10,0,40,0,1236.699999988079,37,1,774.8000000119209,0,0,experiment,NA,NA,0,0.1,0.9,1,0,108,3,NA
fcp-trial,157,966490,0.0-118.0-0.0,voc_e2,12010,"[{""event"":""fullscreenenter"",""trial"":1,""time"":2148},{""event"":""fullscreenexit"",""trial"":1,""time"":2348}]",NA,NA,NA,NA,NA,3,#D8271C,#741CD8,0,10,1,38,1,1611.699999988079,39,0,544.4000000357628,10,0,experiment,NA,NA,2,0.5,0.5,4,5,109,3,NA
fcp-trial,158,970211,0.0-119.0-0.0,voc_e2,12010,"[{""event"":""fullscreenenter"",""trial"":1,""time"":2148},{""event"":""fullscreenexit"",""trial"":1,""time"":2348}]",NA,NA,NA,NA,NA,5,#D8271C,#741CD8,10,0,1,38,1,1606.300000011921,39,0,605.8000000119209,0,0,experiment,NA,NA,2,0.5,0.5,4,5,110,3,NA
fcp-trial,159,973186,0.0-120.0-0.0,voc_e2,12010,"[{""event"":""fullscreenenter"",""trial"":1,""time"":2148},{""event"":""fullscreenexit"",""trial"":1,""time"":2348}]",NA,NA,NA,NA,NA,2,#3386FF,#D89F1C,10,0,1,38,1,943.6999999880791,37,1,518.9000000357628,10,1,experiment,NA,NA,0,0.9,0.1,0,1,111,3,NA
fcp-trial,160,976651,0.0-121.0-0.0,voc_e2,12010,"[{""event"":""fullscreenenter"",""trial"":1,""time"":2148},{""event"":""fullscreenexit"",""trial"":1,""time"":2348}]",NA,NA,NA,NA,NA,5,#FA92F8,#1CD855,0,10,0,38,1,703.8000000119209,37,1,1253.2000000476835,0,0,experiment,NA,NA,1,0.3,0.7,3,2,112,3,NA
fcp-trial,161,980449,0.0-122.0-0.0,voc_e2,12010,"[{""event"":""fullscreenenter"",""trial"":1,""time"":2148},{""event"":""fullscreenexit"",""trial"":1,""time"":2348}]",NA,NA,NA,NA,NA,4,#741CD8,#D8271C,10,0,0,38,1,637.9000000357628,39,0,1645.300000011921,0,1,experiment,NA,NA,2,0.5,0.5,5,4,113,3,NA
fcp-trial,162,983626,0.0-123.0-0.0,voc_e2,12010,"[{""event"":""fullscreenenter"",""trial"":1,""time"":2148},{""event"":""fullscreenexit"",""trial"":1,""time"":2348}]",NA,NA,NA,NA,NA,4,#FA92F8,#1CD855,0,10,0,38,1,712.6000000238419,37,1,958.8000000119208,0,0,experiment,NA,NA,1,0.3,0.7,3,2,114,3,NA
fcp-trial,163,986781,0.0-124.0-0.0,voc_e2,12010,"[{""event"":""fullscreenenter"",""trial"":1,""time"":2148},{""event"":""fullscreenexit"",""trial"":1,""time"":2348}]",NA,NA,NA,NA,NA,3,#D89F1C,#3386FF,0,10,0,38,1,972.8000000119209,37,1,673.2000000476837,0,0,experiment,NA,NA,0,0.1,0.9,1,0,115,3,NA
fcp-trial,164,989204,0.0-125.0-0.0,voc_e2,12010,"[{""event"":""fullscreenenter"",""trial"":1,""time"":2148},{""event"":""fullscreenexit"",""trial"":1,""time"":2348}]",NA,NA,NA,NA,NA,6,#1CD855,#FA92F8,10,10,1,38,1,499.5,39,0,414.39999997615814,10,0,experiment,NA,NA,1,0.7,0.3,2,3,116,3,NA
fcp-trial,165,993163,0.0-126.0-0.0,voc_e2,12010,"[{""event"":""fullscreenenter"",""trial"":1,""time"":2148},{""event"":""fullscreenexit"",""trial"":1,""time"":2348}]",NA,NA,NA,NA,NA,0,#D8271C,#741CD8,10,0,1,40,0,1496.3999999761581,37,1,950.0999999642372,10,1,experiment,NA,NA,2,0.5,0.5,4,5,117,3,NA
fcp-trial,166,997756,0.0-127.0-0.0,voc_e2,12010,"[{""event"":""fullscreenenter"",""trial"":1,""time"":2148},{""event"":""fullscreenexit"",""trial"":1,""time"":2348}]",NA,NA,NA,NA,NA,1,#D89F1C,#3386FF,0,10,0,40,0,2087.5,37,1,998.100000023842,0,0,experiment,NA,NA,0,0.1,0.9,1,0,118,3,NA
fcp-trial,167,1000499,0.0-128.0-0.0,voc_e2,12010,"[{""event"":""fullscreenenter"",""trial"":1,""time"":2148},{""event"":""fullscreenexit"",""trial"":1,""time"":2348}]",NA,NA,NA,NA,NA,6,#741CD8,#D8271C,0,10,0,38,1,543.3000000119209,39,0,686.5,10,1,experiment,NA,NA,2,0.5,0.5,5,4,119,3,NA
fcp-trial,168,1003092,0.0-129.0-0.0,voc_e2,12010,"[{""event"":""fullscreenenter"",""trial"":1,""time"":2148},{""event"":""fullscreenexit"",""trial"":1,""time"":2348}]",NA,NA,NA,NA,NA,2,#741CD8,#D8271C,10,10,0,38,1,603.0999999642372,39,0,485,10,1,experiment,NA,NA,2,0.5,0.5,5,4,120,3,NA
fcp-trial,169,1005659,0.0-130.0-0.0,voc_e2,12010,"[{""event"":""fullscreenenter"",""trial"":1,""time"":2148},{""event"":""fullscreenexit"",""trial"":1,""time"":2348}]",NA,NA,NA,NA,NA,1,#FA92F8,#1CD855,0,0,0,38,1,574.2999999523163,37,1,486.7999999523163,0,0,experiment,NA,NA,1,0.3,0.7,3,2,121,3,NA
fcp-trial,170,1008554,0.0-131.0-0.0,voc_e2,12010,"[{""event"":""fullscreenenter"",""trial"":1,""time"":2148},{""event"":""fullscreenexit"",""trial"":1,""time"":2348}]",NA,NA,NA,NA,NA,2,#FA92F8,#1CD855,10,0,0,38,1,629.5,39,0,758.7000000476837,0,1,experiment,NA,NA,1,0.3,0.7,3,2,122,3,NA
fcp-trial,171,1011947,0.0-132.0-0.0,voc_e2,12010,"[{""event"":""fullscreenenter"",""trial"":1,""time"":2148},{""event"":""fullscreenexit"",""trial"":1,""time"":2348}]",NA,NA,NA,NA,NA,5,#3386FF,#D89F1C,10,0,1,38,1,1221.699999988079,37,1,660,10,1,experiment,NA,NA,0,0.9,0.1,0,1,123,3,NA
fcp-trial,172,1015125,0.0-133.0-0.0,voc_e2,12010,"[{""event"":""fullscreenenter"",""trial"":1,""time"":2148},{""event"":""fullscreenexit"",""trial"":1,""time"":2348}]",NA,NA,NA,NA,NA,0,#D89F1C,#3386FF,0,10,0,38,1,1053.699999988079,37,1,615.5,0,0,experiment,NA,NA,0,0.1,0.9,1,0,124,3,NA
fcp-trial,173,1018005,0.0-134.0-0.0,voc_e2,12010,"[{""event"":""fullscreenenter"",""trial"":1,""time"":2148},{""event"":""fullscreenexit"",""trial"":1,""time"":2348}]",NA,NA,NA,NA,NA,1,#D8271C,#741CD8,0,10,1,38,1,862.5,39,0,504.0999999642372,10,0,experiment,NA,NA,2,0.5,0.5,4,5,125,3,NA
fcp-trial,174,1020924,0.0-135.0-0.0,voc_e2,12010,"[{""event"":""fullscreenenter"",""trial"":1,""time"":2148},{""event"":""fullscreenexit"",""trial"":1,""time"":2348}]",NA,NA,NA,NA,NA,0,#1CD855,#FA92F8,10,10,1,38,1,759.5,39,0,645.6999999880791,10,0,experiment,NA,NA,1,0.7,0.3,2,3,126,3,NA
fcp-trial,175,1023726,0.0-136.0-0.0,voc_e2,12010,"[{""event"":""fullscreenenter"",""trial"":1,""time"":2148},{""event"":""fullscreenexit"",""trial"":1,""time"":2348}]",NA,NA,NA,NA,NA,4,#3386FF,#D89F1C,10,0,1,38,1,766.3000000119209,37,1,526.3000000119209,10,1,experiment,NA,NA,0,0.9,0.1,0,1,127,3,NA
fcp-trial,176,1026302,0.0-137.0-0.0,voc_e2,12010,"[{""event"":""fullscreenenter"",""trial"":1,""time"":2148},{""event"":""fullscreenexit"",""trial"":1,""time"":2348}]",NA,NA,NA,NA,NA,0,#1CD855,#FA92F8,10,0,1,38,1,627.5,39,0,439.300000011921,0,0,experiment,NA,NA,1,0.7,0.3,2,3,128,3,NA
fcp-trial,177,1028958,0.0-138.0-0.0,voc_e2,12010,"[{""event"":""fullscreenenter"",""trial"":1,""time"":2148},{""event"":""fullscreenexit"",""trial"":1,""time"":2348}]",NA,NA,NA,NA,NA,1,#1CD855,#FA92F8,10,10,1,38,1,619.0999999642372,37,1,527.3000000119209,10,1,experiment,NA,NA,1,0.7,0.3,2,3,129,3,NA
fcp-trial,178,1031789,0.0-139.0-0.0,voc_e2,12010,"[{""event"":""fullscreenenter"",""trial"":1,""time"":2148},{""event"":""fullscreenexit"",""trial"":1,""time"":2348}]",NA,NA,NA,NA,NA,5,#741CD8,#D8271C,0,10,0,38,1,791.0999999642372,37,1,526.4000000357628,0,0,experiment,NA,NA,2,0.5,0.5,5,4,130,3,NA
fcp-trial,179,1034407,0.0-140.0-0.0,voc_e2,12010,"[{""event"":""fullscreenenter"",""trial"":1,""time"":2148},{""event"":""fullscreenexit"",""trial"":1,""time"":2348}]",NA,NA,NA,NA,NA,1,#D89F1C,#3386FF,0,10,0,38,1,616.3999999761581,39,0,488.4000000357628,10,1,experiment,NA,NA,0,0.1,0.9,1,0,131,3,NA
fcp-trial,180,1037373,0.0-141.0-0.0,voc_e2,12010,"[{""event"":""fullscreenenter"",""trial"":1,""time"":2148},{""event"":""fullscreenexit"",""trial"":1,""time"":2348}]",NA,NA,NA,NA,NA,1,#741CD8,#D8271C,10,10,0,38,1,1013.1000000238419,37,1,447.10000002384186,10,0,experiment,NA,NA,2,0.5,0.5,5,4,132,3,NA
fcp-trial,181,1040470,0.0-142.0-0.0,voc_e2,12010,"[{""event"":""fullscreenenter"",""trial"":1,""time"":2148},{""event"":""fullscreenexit"",""trial"":1,""time"":2348}]",NA,NA,NA,NA,NA,4,#1CD855,#FA92F8,10,0,1,38,1,1191.3999999761581,39,0,399.199999988079,0,0,experiment,NA,NA,1,0.7,0.3,2,3,133,3,NA
fcp-trial,182,1044469,0.0-143.0-0.0,voc_e2,12010,"[{""event"":""fullscreenenter"",""trial"":1,""time"":2148},{""event"":""fullscreenexit"",""trial"":1,""time"":2348}]",NA,NA,NA,NA,NA,0,#3386FF,#D89F1C,10,0,1,38,1,637.6999999880791,37,1,1853,10,1,experiment,NA,NA,0,0.9,0.1,0,1,134,3,NA
fcp-trial,183,1048413,0.0-144.0-0.0,voc_e2,12010,"[{""event"":""fullscreenenter"",""trial"":1,""time"":2148},{""event"":""fullscreenexit"",""trial"":1,""time"":2348}]",NA,NA,NA,NA,NA,5,#3386FF,#D89F1C,10,0,1,38,1,1357.5999999642372,39,0,1076.899999976158,0,0,experiment,NA,NA,0,0.9,0.1,0,1,135,3,NA
fcp-trial,184,1051877,0.0-145.0-0.0,voc_e2,12010,"[{""event"":""fullscreenenter"",""trial"":1,""time"":2148},{""event"":""fullscreenexit"",""trial"":1,""time"":2348}]",NA,NA,NA,NA,NA,2,#D8271C,#741CD8,0,10,1,40,0,1192.199999988079,39,0,764.6000000238419,10,0,experiment,NA,NA,2,0.5,0.5,4,5,136,4,NA
fcp-trial,185,1055639,0.0-146.0-0.0,voc_e2,12010,"[{""event"":""fullscreenenter"",""trial"":1,""time"":2148},{""event"":""fullscreenexit"",""trial"":1,""time"":2348}]",NA,NA,NA,NA,NA,2,#1CD855,#FA92F8,0,10,1,38,1,1534.2999999523163,39,0,721.4000000357628,10,0,experiment,NA,NA,1,0.7,0.3,2,3,137,4,NA
fcp-trial,186,1058846,0.0-147.0-0.0,voc_e2,12010,"[{""event"":""fullscreenenter"",""trial"":1,""time"":2148},{""event"":""fullscreenexit"",""trial"":1,""time"":2348}]",NA,NA,NA,NA,NA,0,#741CD8,#D8271C,0,10,0,38,1,1158.3999999761581,37,1,535.8999999761581,0,0,experiment,NA,NA,2,0.5,0.5,5,4,138,4,NA
fcp-trial,187,1063157,0.0-148.0-0.0,voc_e2,12010,"[{""event"":""fullscreenenter"",""trial"":1,""time"":2148},{""event"":""fullscreenexit"",""trial"":1,""time"":2348}]",NA,NA,NA,NA,NA,6,#3386FF,#D89F1C,10,0,1,40,0,1843.800000011921,37,1,958.5,10,1,experiment,NA,NA,0,0.9,0.1,0,1,139,4,NA
fcp-trial,188,1067357,0.0-149.0-0.0,voc_e2,12010,"[{""event"":""fullscreenenter"",""trial"":1,""time"":2148},{""event"":""fullscreenexit"",""trial"":1,""time"":2348}]",NA,NA,NA,NA,NA,5,#1CD855,#FA92F8,0,10,1,38,1,1728.300000011921,39,0,959.4000000357628,10,0,experiment,NA,NA,1,0.7,0.3,2,3,140,4,NA
fcp-trial,189,1070775,0.0-150.0-0.0,voc_e2,12010,"[{""event"":""fullscreenenter"",""trial"":1,""time"":2148},{""event"":""fullscreenexit"",""trial"":1,""time"":2348}]",NA,NA,NA,NA,NA,4,#741CD8,#D8271C,10,10,0,40,0,1036.9000000357628,39,0,872.7000000476837,10,1,experiment,NA,NA,2,0.5,0.5,5,4,141,4,NA
fcp-trial,190,1076398,0.0-151.0-0.0,voc_e2,12010,"[{""event"":""fullscreenenter"",""trial"":1,""time"":2148},{""event"":""fullscreenexit"",""trial"":1,""time"":2348}]",NA,NA,NA,NA,NA,3,#FA92F8,#1CD855,10,10,0,38,1,1477,37,1,2630.100000023842,10,0,experiment,NA,NA,1,0.3,0.7,3,2,142,4,NA
fcp-trial,191,1079782,0.0-152.0-0.0,voc_e2,12010,"[{""event"":""fullscreenenter"",""trial"":1,""time"":2148},{""event"":""fullscreenexit"",""trial"":1,""time"":2348}]",NA,NA,NA,NA,NA,2,#3386FF,#D89F1C,10,0,1,38,1,1376.3999999761581,39,0,502.39999997615814,0,0,experiment,NA,NA,0,0.9,0.1,0,1,143,4,NA
fcp-trial,192,1083254,0.0-153.0-0.0,voc_e2,12010,"[{""event"":""fullscreenenter"",""trial"":1,""time"":2148},{""event"":""fullscreenexit"",""trial"":1,""time"":2348}]",NA,NA,NA,NA,NA,3,#D8271C,#741CD8,10,0,1,40,0,1425.2000000476837,39,0,542.0999999642372,0,0,experiment,NA,NA,2,0.5,0.5,4,5,144,4,NA
fcp-trial,193,1087552,0.0-154.0-0.0,voc_e2,12010,"[{""event"":""fullscreenenter"",""trial"":1,""time"":2148},{""event"":""fullscreenexit"",""trial"":1,""time"":2348}]",NA,NA,NA,NA,NA,6,#1CD855,#FA92F8,0,0,1,38,1,860.8000000119209,37,1,1926,0,1,experiment,NA,NA,1,0.7,0.3,2,3,145,4,NA
fcp-trial,194,1092319,0.0-155.0-0.0,voc_e2,12010,"[{""event"":""fullscreenenter"",""trial"":1,""time"":2148},{""event"":""fullscreenexit"",""trial"":1,""time"":2348}]",NA,NA,NA,NA,NA,3,#3386FF,#D89F1C,10,0,1,40,0,2285.699999988079,37,1,974.8000000119208,10,1,experiment,NA,NA,0,0.9,0.1,0,1,146,4,NA
fcp-trial,195,1095878,0.0-156.0-0.0,voc_e2,12010,"[{""event"":""fullscreenenter"",""trial"":1,""time"":2148},{""event"":""fullscreenexit"",""trial"":1,""time"":2348}]",NA,NA,NA,NA,NA,6,#D8271C,#741CD8,10,0,1,38,1,1262.1000000238419,39,0,789.9000000357628,0,0,experiment,NA,NA,2,0.5,0.5,4,5,147,4,NA
fcp-trial,196,1099912,0.0-157.0-0.0,voc_e2,12010,"[{""event"":""fullscreenenter"",""trial"":1,""time"":2148},{""event"":""fullscreenexit"",""trial"":1,""time"":2348}]",NA,NA,NA,NA,NA,5,#D89F1C,#3386FF,0,10,0,38,1,1742.300000011921,37,1,783.6999999880791,0,0,experiment,NA,NA,0,0.1,0.9,1,0,148,4,NA
fcp-trial,197,1104617,0.0-158.0-0.0,voc_e2,12010,"[{""event"":""fullscreenenter"",""trial"":1,""time"":2148},{""event"":""fullscreenexit"",""trial"":1,""time"":2348}]",NA,NA,NA,NA,NA,1,#1CD855,#FA92F8,10,0,1,40,0,2261.399999976158,39,0,935.3000000119208,0,0,experiment,NA,NA,1,0.7,0.3,2,3,149,4,NA
fcp-trial,198,1110335,0.0-159.0-0.0,voc_e2,12010,"[{""event"":""fullscreenenter"",""trial"":1,""time"":2148},{""event"":""fullscreenexit"",""trial"":1,""time"":2348}]",NA,NA,NA,NA,NA,0,#D89F1C,#3386FF,0,10,0,38,1,3114.899999976158,39,0,1095.800000011921,10,1,experiment,NA,NA,0,0.1,0.9,1,0,150,4,NA
fcp-trial,199,1114152,0.0-160.0-0.0,voc_e2,12010,"[{""event"":""fullscreenenter"",""trial"":1,""time"":2148},{""event"":""fullscreenexit"",""trial"":1,""time"":2348}]",NA,NA,NA,NA,NA,4,#D89F1C,#3386FF,0,10,0,38,1,1557.6000000238419,37,1,751.4000000357628,0,0,experiment,NA,NA,0,0.1,0.9,1,0,151,4,NA
fcp-trial,200,1118369,0.0-161.0-0.0,voc_e2,12010,"[{""event"":""fullscreenenter"",""trial"":1,""time"":2148},{""event"":""fullscreenexit"",""trial"":1,""time"":2348}]",NA,NA,NA,NA,NA,5,#D8271C,#741CD8,0,10,1,40,0,1745,37,1,967.399999976158,0,1,experiment,NA,NA,2,0.5,0.5,4,5,152,4,NA
fcp-trial,201,1121984,0.0-162.0-0.0,voc_e2,12010,"[{""event"":""fullscreenenter"",""trial"":1,""time"":2148},{""event"":""fullscreenexit"",""trial"":1,""time"":2348}]",NA,NA,NA,NA,NA,0,#1CD855,#FA92F8,0,0,1,38,1,828.5,39,0,1278.399999976158,0,0,experiment,NA,NA,1,0.7,0.3,2,3,153,4,NA
fcp-trial,202,1126350,0.0-163.0-0.0,voc_e2,12010,"[{""event"":""fullscreenenter"",""trial"":1,""time"":2148},{""event"":""fullscreenexit"",""trial"":1,""time"":2348}]",NA,NA,NA,NA,NA,2,#3386FF,#D89F1C,10,10,1,38,1,1391.800000011921,37,1,1471.699999988079,10,1,experiment,NA,NA,0,0.9,0.1,0,1,154,4,NA
fcp-trial,203,1131479,0.0-164.0-0.0,voc_e2,12010,"[{""event"":""fullscreenenter"",""trial"":1,""time"":2148},{""event"":""fullscreenexit"",""trial"":1,""time"":2348}]",NA,NA,NA,NA,NA,1,#D89F1C,#3386FF,0,0,0,38,1,2978.300000011921,39,0,646.5,0,1,experiment,NA,NA,0,0.1,0.9,1,0,155,4,NA
fcp-trial,204,1134864,0.0-165.0-0.0,voc_e2,12010,"[{""event"":""fullscreenenter"",""trial"":1,""time"":2148},{""event"":""fullscreenexit"",""trial"":1,""time"":2348}]",NA,NA,NA,NA,NA,3,#FA92F8,#1CD855,0,10,0,38,1,1401.3999999761581,39,0,479.800000011921,10,1,experiment,NA,NA,1,0.3,0.7,3,2,156,4,NA
fcp-trial,205,1137911,0.0-166.0-0.0,voc_e2,12010,"[{""event"":""fullscreenenter"",""trial"":1,""time"":2148},{""event"":""fullscreenexit"",""trial"":1,""time"":2348}]",NA,NA,NA,NA,NA,4,#741CD8,#D8271C,0,0,0,40,0,656.7000000476837,37,1,887.8000000119209,0,0,experiment,NA,NA,2,0.5,0.5,5,4,157,4,NA
fcp-trial,206,1142057,0.0-167.0-0.0,voc_e2,12010,"[{""event"":""fullscreenenter"",""trial"":1,""time"":2148},{""event"":""fullscreenexit"",""trial"":1,""time"":2348}]",NA,NA,NA,NA,NA,0,#D8271C,#741CD8,10,10,1,38,1,1972.2999999523163,39,0,664.5,10,0,experiment,NA,NA,2,0.5,0.5,4,5,158,4,NA
fcp-trial,207,1144896,0.0-168.0-0.0,voc_e2,12010,"[{""event"":""fullscreenenter"",""trial"":1,""time"":2148},{""event"":""fullscreenexit"",""trial"":1,""time"":2348}]",NA,NA,NA,NA,NA,6,#FA92F8,#1CD855,10,10,0,38,1,708.3000000119209,37,1,623.4000000357628,10,0,experiment,NA,NA,1,0.3,0.7,3,2,159,4,NA
fcp-trial,208,1147632,0.0-169.0-0.0,voc_e2,12010,"[{""event"":""fullscreenenter"",""trial"":1,""time"":2148},{""event"":""fullscreenexit"",""trial"":1,""time"":2348}]",NA,NA,NA,NA,NA,6,#3386FF,#D89F1C,10,0,1,38,1,812.5999999642372,39,0,414.60000002384186,0,0,experiment,NA,NA,0,0.9,0.1,0,1,160,4,NA
fcp-trial,209,1150823,0.0-170.0-0.0,voc_e2,12010,"[{""event"":""fullscreenenter"",""trial"":1,""time"":2148},{""event"":""fullscreenexit"",""trial"":1,""time"":2348}]",NA,NA,NA,NA,NA,2,#1CD855,#FA92F8,10,0,1,38,1,830.8000000119209,37,1,853.5,10,1,experiment,NA,NA,1,0.7,0.3,2,3,161,4,NA
fcp-trial,210,1153681,0.0-171.0-0.0,voc_e2,12010,"[{""event"":""fullscreenenter"",""trial"":1,""time"":2148},{""event"":""fullscreenexit"",""trial"":1,""time"":2348}]",NA,NA,NA,NA,NA,2,#741CD8,#D8271C,0,10,0,38,1,772.5999999642372,37,1,576,0,0,experiment,NA,NA,2,0.5,0.5,5,4,162,4,NA
fcp-trial,211,1156608,0.0-172.0-0.0,voc_e2,12010,"[{""event"":""fullscreenenter"",""trial"":1,""time"":2148},{""event"":""fullscreenexit"",""trial"":1,""time"":2348}]",NA,NA,NA,NA,NA,6,#741CD8,#D8271C,10,10,0,38,1,756,39,0,663,10,1,experiment,NA,NA,2,0.5,0.5,5,4,163,4,NA
fcp-trial,212,1160002,0.0-173.0-0.0,voc_e2,12010,"[{""event"":""fullscreenenter"",""trial"":1,""time"":2148},{""event"":""fullscreenexit"",""trial"":1,""time"":2348}]",NA,NA,NA,NA,NA,1,#D8271C,#741CD8,10,0,1,38,1,714.6999999880791,37,1,1168.199999988079,10,1,experiment,NA,NA,2,0.5,0.5,4,5,164,4,NA
fcp-trial,213,1163025,0.0-174.0-0.0,voc_e2,12010,"[{""event"":""fullscreenenter"",""trial"":1,""time"":2148},{""event"":""fullscreenexit"",""trial"":1,""time"":2348}]",NA,NA,NA,NA,NA,3,#D89F1C,#3386FF,0,10,0,38,1,851.9000000357628,39,0,662.5,10,1,experiment,NA,NA,0,0.1,0.9,1,0,165,4,NA
fcp-trial,214,1165976,0.0-175.0-0.0,voc_e2,12010,"[{""event"":""fullscreenenter"",""trial"":1,""time"":2148},{""event"":""fullscreenexit"",""trial"":1,""time"":2348}]",NA,NA,NA,NA,NA,4,#1CD855,#FA92F8,10,10,1,38,1,957.9000000357628,37,1,485.60000002384186,10,1,experiment,NA,NA,1,0.7,0.3,2,3,166,4,NA
fcp-trial,215,1168729,0.0-176.0-0.0,voc_e2,12010,"[{""event"":""fullscreenenter"",""trial"":1,""time"":2148},{""event"":""fullscreenexit"",""trial"":1,""time"":2348}]",NA,NA,NA,NA,NA,3,#741CD8,#D8271C,10,0,0,38,1,669.6999999880791,37,1,575.5,10,0,experiment,NA,NA,2,0.5,0.5,5,4,167,4,NA
fcp-trial,216,1171609,0.0-177.0-0.0,voc_e2,12010,"[{""event"":""fullscreenenter"",""trial"":1,""time"":2148},{""event"":""fullscreenexit"",""trial"":1,""time"":2348}]",NA,NA,NA,NA,NA,5,#1CD855,#FA92F8,10,0,1,38,1,867.5999999642372,37,1,503.5999999642372,10,1,experiment,NA,NA,1,0.7,0.3,2,3,168,4,NA
fcp-trial,217,1174235,0.0-178.0-0.0,voc_e2,12010,"[{""event"":""fullscreenenter"",""trial"":1,""time"":2148},{""event"":""fullscreenexit"",""trial"":1,""time"":2348}]",NA,NA,NA,NA,NA,1,#1CD855,#FA92F8,0,0,1,38,1,650,37,1,470.2000000476837,0,1,experiment,NA,NA,1,0.7,0.3,2,3,169,4,NA
fcp-trial,218,1177435,0.0-179.0-0.0,voc_e2,12010,"[{""event"":""fullscreenenter"",""trial"":1,""time"":2148},{""event"":""fullscreenexit"",""trial"":1,""time"":2348}]",NA,NA,NA,NA,NA,0,#D89F1C,#3386FF,0,10,0,38,1,652.0999999642372,39,0,1037.300000011921,10,1,experiment,NA,NA,0,0.1,0.9,1,0,170,4,NA
fcp-trial,219,1180260,0.0-180.0-0.0,voc_e2,12010,"[{""event"":""fullscreenenter"",""trial"":1,""time"":2148},{""event"":""fullscreenexit"",""trial"":1,""time"":2348}]",NA,NA,NA,NA,NA,4,#3386FF,#D89F1C,10,0,1,38,1,877,37,1,440.199999988079,10,1,experiment,NA,NA,0,0.9,0.1,0,1,171,4,NA
fcp-trial,220,1184713,0.0-181.0-0.0,voc_e2,12010,"[{""event"":""fullscreenenter"",""trial"":1,""time"":2148},{""event"":""fullscreenexit"",""trial"":1,""time"":2348}]",NA,NA,NA,NA,NA,0,#1CD855,#FA92F8,0,0,1,38,1,994.7999999523163,39,0,1952.7000000476835,0,0,experiment,NA,NA,1,0.7,0.3,2,3,172,4,NA
fcp-trial,221,1187963,0.0-182.0-0.0,voc_e2,12010,"[{""event"":""fullscreenenter"",""trial"":1,""time"":2148},{""event"":""fullscreenexit"",""trial"":1,""time"":2348}]",NA,NA,NA,NA,NA,3,#D8271C,#741CD8,0,10,1,38,1,1001.8999999761581,39,0,742.6999999880791,10,0,experiment,NA,NA,2,0.5,0.5,4,5,173,4,NA
fcp-trial,222,1192260,0.0-183.0-0.0,voc_e2,12010,"[{""event"":""fullscreenenter"",""trial"":1,""time"":2148},{""event"":""fullscreenexit"",""trial"":1,""time"":2348}]",NA,NA,NA,NA,NA,4,#FA92F8,#1CD855,0,0,0,38,1,1452.5,39,0,1327,0,1,experiment,NA,NA,1,0.3,0.7,3,2,174,4,NA
fcp-trial,223,1197386,0.0-184.0-0.0,voc_e2,12010,"[{""event"":""fullscreenenter"",""trial"":1,""time"":2148},{""event"":""fullscreenexit"",""trial"":1,""time"":2348}]",NA,NA,NA,NA,NA,4,#741CD8,#D8271C,0,10,0,38,1,2884.7000000476837,37,1,733.6999999880791,0,0,experiment,NA,NA,2,0.5,0.5,5,4,175,4,NA
fcp-trial,224,1200844,0.0-185.0-0.0,voc_e2,12010,"[{""event"":""fullscreenenter"",""trial"":1,""time"":2148},{""event"":""fullscreenexit"",""trial"":1,""time"":2348}]",NA,NA,NA,NA,NA,2,#3386FF,#D89F1C,10,0,1,38,1,1487.6000000238419,39,0,462.5,0,0,experiment,NA,NA,0,0.9,0.1,0,1,176,4,NA
fcp-trial,225,1203875,0.0-186.0-0.0,voc_e2,12010,"[{""event"":""fullscreenenter"",""trial"":1,""time"":2148},{""event"":""fullscreenexit"",""trial"":1,""time"":2348}]",NA,NA,NA,NA,NA,6,#741CD8,#D8271C,10,0,0,38,1,939.3000000119209,37,1,581.8999999761581,10,0,experiment,NA,NA,2,0.5,0.5,5,4,177,4,NA
fcp-trial,226,1206956,0.0-187.0-0.0,voc_e2,12010,"[{""event"":""fullscreenenter"",""trial"":1,""time"":2148},{""event"":""fullscreenexit"",""trial"":1,""time"":2348}]",NA,NA,NA,NA,NA,2,#1CD855,#FA92F8,10,0,1,38,1,956.6999999880791,37,1,615.3000000119209,10,1,experiment,NA,NA,1,0.7,0.3,2,3,178,4,NA
fcp-trial,227,1209627,0.0-188.0-0.0,voc_e2,12010,"[{""event"":""fullscreenenter"",""trial"":1,""time"":2148},{""event"":""fullscreenexit"",""trial"":1,""time"":2348}]",NA,NA,NA,NA,NA,6,#D89F1C,#3386FF,10,10,0,38,1,683.8000000119209,39,0,479.60000002384186,10,1,experiment,NA,NA,0,0.1,0.9,1,0,179,4,NA
fcp-trial,228,1212410,0.0-189.0-0.0,voc_e2,12010,"[{""event"":""fullscreenenter"",""trial"":1,""time"":2148},{""event"":""fullscreenexit"",""trial"":1,""time"":2348}]",NA,NA,NA,NA,NA,3,#FA92F8,#1CD855,0,10,0,38,1,834.3000000119209,37,1,437.39999997615814,0,0,experiment,NA,NA,1,0.3,0.7,3,2,180,4,NA
fcp-trial,229,1215612,0.0-190.0-0.0,voc_e2,12010,"[{""event"":""fullscreenenter"",""trial"":1,""time"":2148},{""event"":""fullscreenexit"",""trial"":1,""time"":2348}]",NA,NA,NA,NA,NA,1,#D89F1C,#3386FF,0,10,0,38,1,737.8000000119209,39,0,958.600000023842,10,1,experiment,NA,NA,0,0.1,0.9,1,0,181,5,NA
fcp-trial,230,1218482,0.0-191.0-0.0,voc_e2,12010,"[{""event"":""fullscreenenter"",""trial"":1,""time"":2148},{""event"":""fullscreenexit"",""trial"":1,""time"":2348}]",NA,NA,NA,NA,NA,2,#741CD8,#D8271C,10,0,0,38,1,907.6999999880791,37,1,452.89999997615814,10,0,experiment,NA,NA,2,0.5,0.5,5,4,182,5,NA
fcp-trial,231,1221994,0.0-192.0-0.0,voc_e2,12010,"[{""event"":""fullscreenenter"",""trial"":1,""time"":2148},{""event"":""fullscreenexit"",""trial"":1,""time"":2348}]",NA,NA,NA,NA,NA,5,#D89F1C,#3386FF,0,10,0,38,1,1254.5,37,1,749.5,0,0,experiment,NA,NA,0,0.1,0.9,1,0,183,5,NA
fcp-trial,232,1225035,0.0-193.0-0.0,voc_e2,12010,"[{""event"":""fullscreenenter"",""trial"":1,""time"":2148},{""event"":""fullscreenexit"",""trial"":1,""time"":2348}]",NA,NA,NA,NA,NA,5,#FA92F8,#1CD855,0,10,0,38,1,981.8999999761581,37,1,550.8999999761581,0,0,experiment,NA,NA,1,0.3,0.7,3,2,184,5,NA
fcp-trial,233,1227996,0.0-194.0-0.0,voc_e2,12010,"[{""event"":""fullscreenenter"",""trial"":1,""time"":2148},{""event"":""fullscreenexit"",""trial"":1,""time"":2348}]",NA,NA,NA,NA,NA,1,#741CD8,#D8271C,0,0,0,38,1,923.0999999642372,37,1,527.6999999880791,0,0,experiment,NA,NA,2,0.5,0.5,5,4,185,5,NA
fcp-trial,234,1231243,0.0-195.0-0.0,voc_e2,12010,"[{""event"":""fullscreenenter"",""trial"":1,""time"":2148},{""event"":""fullscreenexit"",""trial"":1,""time"":2348}]",NA,NA,NA,NA,NA,3,#3386FF,#D89F1C,0,0,1,38,1,1123.4000000357628,39,0,616.1000000238419,0,0,experiment,NA,NA,0,0.9,0.1,0,1,186,5,NA
fcp-trial,235,1233971,0.0-196.0-0.0,voc_e2,12010,"[{""event"":""fullscreenenter"",""trial"":1,""time"":2148},{""event"":""fullscreenexit"",""trial"":1,""time"":2348}]",NA,NA,NA,NA,NA,0,#D8271C,#741CD8,10,10,1,38,1,755,39,0,465.2000000476837,10,0,experiment,NA,NA,2,0.5,0.5,4,5,187,5,NA
fcp-trial,236,1236762,0.0-197.0-0.0,voc_e2,12010,"[{""event"":""fullscreenenter"",""trial"":1,""time"":2148},{""event"":""fullscreenexit"",""trial"":1,""time"":2348}]",NA,NA,NA,NA,NA,5,#741CD8,#D8271C,0,0,0,38,1,793.2999999523163,37,1,494,0,0,experiment,NA,NA,2,0.5,0.5,5,4,188,5,NA
fcp-trial,237,1240972,0.0-198.0-0.0,voc_e2,12010,"[{""event"":""fullscreenenter"",""trial"":1,""time"":2148},{""event"":""fullscreenexit"",""trial"":1,""time"":2348}]",NA,NA,NA,NA,NA,6,#1CD855,#FA92F8,10,10,1,38,1,1643.1000000238419,37,1,1063.699999988079,10,1,experiment,NA,NA,1,0.7,0.3,2,3,189,5,NA
fcp-trial,238,1245163,0.0-199.0-0.0,voc_e2,12010,"[{""event"":""fullscreenenter"",""trial"":1,""time"":2148},{""event"":""fullscreenexit"",""trial"":1,""time"":2348}]",NA,NA,NA,NA,NA,0,#FA92F8,#1CD855,0,0,0,38,1,2206.400000035763,39,0,478.2000000476837,0,1,experiment,NA,NA,1,0.3,0.7,3,2,190,5,NA
fcp-trial,239,1248978,0.0-200.0-0.0,voc_e2,12010,"[{""event"":""fullscreenenter"",""trial"":1,""time"":2148},{""event"":""fullscreenexit"",""trial"":1,""time"":2348}]",NA,NA,NA,NA,NA,2,#D89F1C,#3386FF,0,0,0,40,0,1570,39,0,741.5,0,1,experiment,NA,NA,0,0.1,0.9,1,0,191,5,NA
fcp-trial,240,1253725,0.0-201.0-0.0,voc_e2,12010,"[{""event"":""fullscreenenter"",""trial"":1,""time"":2148},{""event"":""fullscreenexit"",""trial"":1,""time"":2348}]",NA,NA,NA,NA,NA,4,#3386FF,#D89F1C,10,10,1,38,1,1207.5,39,0,2030.899999976158,10,0,experiment,NA,NA,0,0.9,0.1,0,1,192,5,NA
fcp-trial,241,1260126,0.0-202.0-0.0,voc_e2,12010,"[{""event"":""fullscreenenter"",""trial"":1,""time"":2148},{""event"":""fullscreenexit"",""trial"":1,""time"":2348}]",NA,NA,NA,NA,NA,3,#D8271C,#741CD8,0,0,1,38,1,2469.199999988079,37,1,2423.5,0,1,experiment,NA,NA,2,0.5,0.5,4,5,193,5,NA
fcp-trial,242,1264326,0.0-203.0-0.0,voc_e2,12010,"[{""event"":""fullscreenenter"",""trial"":1,""time"":2148},{""event"":""fullscreenexit"",""trial"":1,""time"":2348}]",NA,NA,NA,NA,NA,4,#1CD855,#FA92F8,10,10,1,38,1,2140,37,1,550,10,1,experiment,NA,NA,1,0.7,0.3,2,3,194,5,NA
fcp-trial,243,1267965,0.0-204.0-0.0,voc_e2,12010,"[{""event"":""fullscreenenter"",""trial"":1,""time"":2148},{""event"":""fullscreenexit"",""trial"":1,""time"":2348}]",NA,NA,NA,NA,NA,6,#D8271C,#741CD8,0,10,1,40,0,1481.8999999761581,39,0,647.6000000238419,10,0,experiment,NA,NA,2,0.5,0.5,4,5,195,5,NA
fcp-trial,244,1275877,0.0-205.0-0.0,voc_e2,12010,"[{""event"":""fullscreenenter"",""trial"":1,""time"":2148},{""event"":""fullscreenexit"",""trial"":1,""time"":2348}]",NA,NA,NA,NA,NA,1,#D89F1C,#3386FF,0,0,0,38,1,3725.2000000476837,39,0,2677.800000011921,0,1,experiment,NA,NA,0,0.1,0.9,1,0,196,5,NA
fcp-trial,245,1280484,0.0-206.0-0.0,voc_e2,12010,"[{""event"":""fullscreenenter"",""trial"":1,""time"":2148},{""event"":""fullscreenexit"",""trial"":1,""time"":2348}]",NA,NA,NA,NA,NA,0,#3386FF,#D89F1C,10,0,1,40,0,1358.4000000357628,37,1,1740.600000023842,10,1,experiment,NA,NA,0,0.9,0.1,0,1,197,5,NA
fcp-trial,246,1285092,0.0-207.0-0.0,voc_e2,12010,"[{""event"":""fullscreenenter"",""trial"":1,""time"":2148},{""event"":""fullscreenexit"",""trial"":1,""time"":2348}]",NA,NA,NA,NA,NA,0,#D8271C,#741CD8,0,0,1,38,1,1701.5,39,0,1399.5,0,0,experiment,NA,NA,2,0.5,0.5,4,5,198,5,NA
fcp-trial,247,1288735,0.0-208.0-0.0,voc_e2,12010,"[{""event"":""fullscreenenter"",""trial"":1,""time"":2148},{""event"":""fullscreenexit"",""trial"":1,""time"":2348}]",NA,NA,NA,NA,NA,6,#FA92F8,#1CD855,0,10,0,38,1,945.8000000119209,37,1,1192.300000011921,0,0,experiment,NA,NA,1,0.3,0.7,3,2,199,5,NA
fcp-trial,248,1291517,0.0-209.0-0.0,voc_e2,12010,"[{""event"":""fullscreenenter"",""trial"":1,""time"":2148},{""event"":""fullscreenexit"",""trial"":1,""time"":2348}]",NA,NA,NA,NA,NA,3,#1CD855,#FA92F8,0,10,1,38,1,515.3999999761581,37,1,755.9000000357628,0,1,experiment,NA,NA,1,0.7,0.3,2,3,200,5,NA
fcp-trial,249,1294526,0.0-210.0-0.0,voc_e2,12010,"[{""event"":""fullscreenenter"",""trial"":1,""time"":2148},{""event"":""fullscreenexit"",""trial"":1,""time"":2348}]",NA,NA,NA,NA,NA,6,#D89F1C,#3386FF,0,10,0,38,1,583.6999999880791,39,0,919.4000000357628,10,1,experiment,NA,NA,0,0.1,0.9,1,0,201,5,NA
fcp-trial,250,1297262,0.0-211.0-0.0,voc_e2,12010,"[{""event"":""fullscreenenter"",""trial"":1,""time"":2148},{""event"":""fullscreenexit"",""trial"":1,""time"":2348}]",NA,NA,NA,NA,NA,3,#D89F1C,#3386FF,0,10,0,38,1,662.0999999642372,39,0,567,10,1,experiment,NA,NA,0,0.1,0.9,1,0,202,5,NA
fcp-trial,251,1300047,0.0-212.0-0.0,voc_e2,12010,"[{""event"":""fullscreenenter"",""trial"":1,""time"":2148},{""event"":""fullscreenexit"",""trial"":1,""time"":2348}]",NA,NA,NA,NA,NA,2,#741CD8,#D8271C,0,0,0,38,1,765.1999999880791,37,1,510.2999999523163,0,0,experiment,NA,NA,2,0.5,0.5,5,4,203,5,NA
fcp-trial,252,1302558,0.0-213.0-0.0,voc_e2,12010,"[{""event"":""fullscreenenter"",""trial"":1,""time"":2148},{""event"":""fullscreenexit"",""trial"":1,""time"":2348}]",NA,NA,NA,NA,NA,5,#FA92F8,#1CD855,0,0,0,38,1,549.8999999761581,39,0,446.0999999642372,0,1,experiment,NA,NA,1,0.3,0.7,3,2,204,5,NA
fcp-trial,253,1305359,0.0-214.0-0.0,voc_e2,12010,"[{""event"":""fullscreenenter"",""trial"":1,""time"":2148},{""event"":""fullscreenexit"",""trial"":1,""time"":2348}]",NA,NA,NA,NA,NA,1,#1CD855,#FA92F8,10,10,1,38,1,625.8999999761581,39,0,669.6999999880791,10,0,experiment,NA,NA,1,0.7,0.3,2,3,205,5,NA
fcp-trial,254,1308296,0.0-215.0-0.0,voc_e2,12010,"[{""event"":""fullscreenenter"",""trial"":1,""time"":2148},{""event"":""fullscreenexit"",""trial"":1,""time"":2348}]",NA,NA,NA,NA,NA,4,#D8271C,#741CD8,0,10,1,38,1,950.8000000119209,39,0,480.10000002384186,10,0,experiment,NA,NA,2,0.5,0.5,4,5,206,5,NA
fcp-trial,255,1311038,0.0-216.0-0.0,voc_e2,12010,"[{""event"":""fullscreenenter"",""trial"":1,""time"":2148},{""event"":""fullscreenexit"",""trial"":1,""time"":2348}]",NA,NA,NA,NA,NA,5,#D89F1C,#3386FF,0,10,0,38,1,668.5,37,1,566.6999999880791,0,0,experiment,NA,NA,0,0.1,0.9,1,0,207,5,NA
fcp-trial,256,1314616,0.0-217.0-0.0,voc_e2,12010,"[{""event"":""fullscreenenter"",""trial"":1,""time"":2148},{""event"":""fullscreenexit"",""trial"":1,""time"":2348}]",NA,NA,NA,NA,NA,2,#1CD855,#FA92F8,0,10,1,38,1,386.30000001192093,39,0,1686.4000000357628,10,0,experiment,NA,NA,1,0.7,0.3,2,3,208,5,NA
fcp-trial,257,1318846,0.0-218.0-0.0,voc_e2,12010,"[{""event"":""fullscreenenter"",""trial"":1,""time"":2148},{""event"":""fullscreenexit"",""trial"":1,""time"":2348}]",NA,NA,NA,NA,NA,1,#741CD8,#D8271C,10,10,0,40,0,1917.699999988079,37,1,808.8000000119209,10,0,experiment,NA,NA,2,0.5,0.5,5,4,209,5,NA
fcp-trial,258,1322448,0.0-219.0-0.0,voc_e2,12010,"[{""event"":""fullscreenenter"",""trial"":1,""time"":2148},{""event"":""fullscreenexit"",""trial"":1,""time"":2348}]",NA,NA,NA,NA,NA,5,#D8271C,#741CD8,0,0,1,40,0,1217,37,1,879.4000000357628,0,1,experiment,NA,NA,2,0.5,0.5,4,5,210,5,NA
audio-instructions,259,1345739,0.0-220.0,voc_e2,12010,"[{""event"":""fullscreenenter"",""trial"":1,""time"":2148},{""event"":""fullscreenexit"",""trial"":1,""time"":2348}]",NA,18784.5,static/audio/pause.wav,NA,0,NA,NA,NA,NA,NA,NA,NA,NA,NA,NA,NA,NA,NA,NA,NA,NA,NA,NA,NA,NA,NA,NA,NA,NA,NA
fcp-trial,260,1348602,0.0-221.0-0.0,voc_e2,12010,"[{""event"":""fullscreenenter"",""trial"":1,""time"":2148},{""event"":""fullscreenexit"",""trial"":1,""time"":2348}]",NA,NA,NA,NA,NA,1,#3386FF,#D89F1C,10,0,1,38,1,821.0999999642372,39,0,534.5,0,0,experiment,NA,NA,0,0.9,0.1,0,1,211,5,NA
fcp-trial,261,1351329,0.0-222.0-0.0,voc_e2,12010,"[{""event"":""fullscreenenter"",""trial"":1,""time"":2148},{""event"":""fullscreenexit"",""trial"":1,""time"":2348}]",NA,NA,NA,NA,NA,6,#D8271C,#741CD8,0,10,1,38,1,905.8999999761581,39,0,305.5,10,0,experiment,NA,NA,2,0.5,0.5,4,5,212,5,NA
fcp-trial,262,1354399,0.0-223.0-0.0,voc_e2,12010,"[{""event"":""fullscreenenter"",""trial"":1,""time"":2148},{""event"":""fullscreenexit"",""trial"":1,""time"":2348}]",NA,NA,NA,NA,NA,5,#D89F1C,#3386FF,0,10,0,38,1,1115.6000000238419,39,0,441.4000000357628,10,1,experiment,NA,NA,0,0.1,0.9,1,0,213,5,NA
fcp-trial,263,1357078,0.0-224.0-0.0,voc_e2,12010,"[{""event"":""fullscreenenter"",""trial"":1,""time"":2148},{""event"":""fullscreenexit"",""trial"":1,""time"":2348}]",NA,NA,NA,NA,NA,0,#741CD8,#D8271C,0,10,0,38,1,769.4000000357628,37,1,405.0999999642372,0,0,experiment,NA,NA,2,0.5,0.5,5,4,214,5,NA
fcp-trial,264,1360369,0.0-225.0-0.0,voc_e2,12010,"[{""event"":""fullscreenenter"",""trial"":1,""time"":2148},{""event"":""fullscreenexit"",""trial"":1,""time"":2348}]",NA,NA,NA,NA,NA,1,#1CD855,#FA92F8,10,0,1,38,1,921.8000000119209,37,1,861.7000000476837,10,1,experiment,NA,NA,1,0.7,0.3,2,3,215,5,NA
fcp-trial,265,1363321,0.0-226.0-0.0,voc_e2,12010,"[{""event"":""fullscreenenter"",""trial"":1,""time"":2148},{""event"":""fullscreenexit"",""trial"":1,""time"":2348}]",NA,NA,NA,NA,NA,4,#3386FF,#D89F1C,10,0,1,38,1,923.2999999523163,39,0,521.1999999880791,0,0,experiment,NA,NA,0,0.9,0.1,0,1,216,5,NA
fcp-trial,266,1366234,0.0-227.0-0.0,voc_e2,12010,"[{""event"":""fullscreenenter"",""trial"":1,""time"":2148},{""event"":""fullscreenexit"",""trial"":1,""time"":2348}]",NA,NA,NA,NA,NA,6,#FA92F8,#1CD855,0,0,0,38,1,807.5,39,0,597.8000000119209,0,1,experiment,NA,NA,1,0.3,0.7,3,2,217,5,NA
fcp-trial,267,1369223,0.0-228.0-0.0,voc_e2,12010,"[{""event"":""fullscreenenter"",""trial"":1,""time"":2148},{""event"":""fullscreenexit"",""trial"":1,""time"":2348}]",NA,NA,NA,NA,NA,1,#D8271C,#741CD8,10,10,1,38,1,668.5,39,0,806,10,0,experiment,NA,NA,2,0.5,0.5,4,5,218,5,NA
fcp-trial,268,1371751,0.0-229.0-0.0,voc_e2,12010,"[{""event"":""fullscreenenter"",""trial"":1,""time"":2148},{""event"":""fullscreenexit"",""trial"":1,""time"":2348}]",NA,NA,NA,NA,NA,4,#741CD8,#D8271C,0,10,0,38,1,441.10000002384186,37,1,581.5,0,0,experiment,NA,NA,2,0.5,0.5,5,4,219,5,NA
fcp-trial,269,1374744,0.0-230.0-0.0,voc_e2,12010,"[{""event"":""fullscreenenter"",""trial"":1,""time"":2148},{""event"":""fullscreenexit"",""trial"":1,""time"":2348}]",NA,NA,NA,NA,NA,0,#FA92F8,#1CD855,10,0,0,38,1,667,39,0,813.1999999880791,0,1,experiment,NA,NA,1,0.3,0.7,3,2,220,5,NA
fcp-trial,270,1377688,0.0-231.0-0.0,voc_e2,12010,"[{""event"":""fullscreenenter"",""trial"":1,""time"":2148},{""event"":""fullscreenexit"",""trial"":1,""time"":2348}]",NA,NA,NA,NA,NA,6,#3386FF,#D89F1C,10,0,1,38,1,634.5,39,0,799.0999999642372,0,0,experiment,NA,NA,0,0.9,0.1,0,1,221,5,NA
fcp-trial,271,1382490,0.0-232.0-0.0,voc_e2,12010,"[{""event"":""fullscreenenter"",""trial"":1,""time"":2148},{""event"":""fullscreenexit"",""trial"":1,""time"":2348}]",NA,NA,NA,NA,NA,5,#D8271C,#741CD8,10,0,1,38,1,1496.800000011921,39,0,1799.199999988079,0,0,experiment,NA,NA,2,0.5,0.5,4,5,222,5,NA
fcp-trial,272,1386211,0.0-233.0-0.0,voc_e2,12010,"[{""event"":""fullscreenenter"",""trial"":1,""time"":2148},{""event"":""fullscreenexit"",""trial"":1,""time"":2348}]",NA,NA,NA,NA,NA,2,#741CD8,#D8271C,10,0,0,38,1,1886.5,37,1,329.5,10,0,experiment,NA,NA,2,0.5,0.5,5,4,223,5,NA
fcp-trial,273,1390521,0.0-234.0-0.0,voc_e2,12010,"[{""event"":""fullscreenenter"",""trial"":1,""time"":2148},{""event"":""fullscreenexit"",""trial"":1,""time"":2348}]",NA,NA,NA,NA,NA,3,#3386FF,#D89F1C,10,0,1,40,0,2083.399999976158,39,0,719,0,0,experiment,NA,NA,0,0.9,0.1,0,1,224,5,NA
fcp-trial,274,1394129,0.0-235.0-0.0,voc_e2,12010,"[{""event"":""fullscreenenter"",""trial"":1,""time"":2148},{""event"":""fullscreenexit"",""trial"":1,""time"":2348}]",NA,NA,NA,NA,NA,5,#1CD855,#FA92F8,10,10,1,40,0,1217,39,0,885.5999999642372,10,0,experiment,NA,NA,1,0.7,0.3,2,3,225,5,NA
fcp-trial,275,1398003,0.0-236.0-0.0,voc_e2,12010,"[{""event"":""fullscreenenter"",""trial"":1,""time"":2148},{""event"":""fullscreenexit"",""trial"":1,""time"":2348}]",NA,NA,NA,NA,NA,2,#3386FF,#D89F1C,0,0,1,40,0,1724.8999999761581,39,0,637.7999999523163,0,0,experiment,NA,NA,0,0.9,0.1,0,1,226,6,NA
fcp-trial,276,1401875,0.0-237.0-0.0,voc_e2,12010,"[{""event"":""fullscreenenter"",""trial"":1,""time"":2148},{""event"":""fullscreenexit"",""trial"":1,""time"":2348}]",NA,NA,NA,NA,NA,3,#D8271C,#741CD8,0,0,1,38,1,1387.9000000357628,39,0,974.600000023842,0,0,experiment,NA,NA,2,0.5,0.5,4,5,227,6,NA
fcp-trial,277,1405539,0.0-238.0-0.0,voc_e2,12010,"[{""event"":""fullscreenenter"",""trial"":1,""time"":2148},{""event"":""fullscreenexit"",""trial"":1,""time"":2348}]",NA,NA,NA,NA,NA,0,#D89F1C,#3386FF,0,10,0,38,1,1340,39,0,813.9000000357628,10,1,experiment,NA,NA,0,0.1,0.9,1,0,228,6,NA
fcp-trial,278,1408857,0.0-239.0-0.0,voc_e2,12010,"[{""event"":""fullscreenenter"",""trial"":1,""time"":2148},{""event"":""fullscreenexit"",""trial"":1,""time"":2348}]",NA,NA,NA,NA,NA,3,#FA92F8,#1CD855,0,0,0,38,1,1349.8999999761581,37,1,454.5,0,0,experiment,NA,NA,1,0.3,0.7,3,2,229,6,NA
fcp-trial,279,1412195,0.0-240.0-0.0,voc_e2,12010,"[{""event"":""fullscreenenter"",""trial"":1,""time"":2148},{""event"":""fullscreenexit"",""trial"":1,""time"":2348}]",NA,NA,NA,NA,NA,4,#FA92F8,#1CD855,10,10,0,38,1,1286.699999988079,39,0,543.3000000119209,10,1,experiment,NA,NA,1,0.3,0.7,3,2,230,6,NA
fcp-trial,280,1415322,0.0-241.0-0.0,voc_e2,12010,"[{""event"":""fullscreenenter"",""trial"":1,""time"":2148},{""event"":""fullscreenexit"",""trial"":1,""time"":2348}]",NA,NA,NA,NA,NA,2,#FA92F8,#1CD855,0,0,0,38,1,1029.1000000238419,37,1,591.1000000238419,0,0,experiment,NA,NA,1,0.3,0.7,3,2,231,6,NA
fcp-trial,281,1419570,0.0-242.0-0.0,voc_e2,12010,"[{""event"":""fullscreenenter"",""trial"":1,""time"":2148},{""event"":""fullscreenexit"",""trial"":1,""time"":2348}]",NA,NA,NA,NA,NA,6,#D89F1C,#3386FF,0,0,0,38,1,1493.8999999761581,39,0,1238.399999976158,0,1,experiment,NA,NA,0,0.1,0.9,1,0,232,6,NA
fcp-trial,282,1422713,0.0-243.0-0.0,voc_e2,12010,"[{""event"":""fullscreenenter"",""trial"":1,""time"":2148},{""event"":""fullscreenexit"",""trial"":1,""time"":2348}]",NA,NA,NA,NA,NA,2,#D8271C,#741CD8,10,10,1,38,1,1314.6000000238419,39,0,319.69999998807907,10,0,experiment,NA,NA,2,0.5,0.5,4,5,233,6,NA
fcp-trial,283,1425779,0.0-244.0-0.0,voc_e2,12010,"[{""event"":""fullscreenenter"",""trial"":1,""time"":2148},{""event"":""fullscreenexit"",""trial"":1,""time"":2348}]",NA,NA,NA,NA,NA,4,#1CD855,#FA92F8,0,0,1,38,1,1275.7000000476837,37,1,280.9000000357628,0,1,experiment,NA,NA,1,0.7,0.3,2,3,234,6,NA
fcp-trial,284,1429011,0.0-245.0-0.0,voc_e2,12010,"[{""event"":""fullscreenenter"",""trial"":1,""time"":2148},{""event"":""fullscreenexit"",""trial"":1,""time"":2348}]",NA,NA,NA,NA,NA,1,#1CD855,#FA92F8,10,0,1,38,1,597.3000000119209,39,0,1119.399999976158,0,0,experiment,NA,NA,1,0.7,0.3,2,3,235,6,NA
fcp-trial,285,1432084,0.0-246.0-0.0,voc_e2,12010,"[{""event"":""fullscreenenter"",""trial"":1,""time"":2148},{""event"":""fullscreenexit"",""trial"":1,""time"":2348}]",NA,NA,NA,NA,NA,4,#D89F1C,#3386FF,10,10,0,38,1,1063.300000011921,39,0,493.800000011921,10,1,experiment,NA,NA,0,0.1,0.9,1,0,236,6,NA
fcp-trial,286,1434956,0.0-247.0-0.0,voc_e2,12010,"[{""event"":""fullscreenenter"",""trial"":1,""time"":2148},{""event"":""fullscreenexit"",""trial"":1,""time"":2348}]",NA,NA,NA,NA,NA,3,#D8271C,#741CD8,0,10,1,38,1,946.1000000238419,39,0,412.0999999642372,10,0,experiment,NA,NA,2,0.5,0.5,4,5,237,6,NA
fcp-trial,287,1437620,0.0-248.0-0.0,voc_e2,12010,"[{""event"":""fullscreenenter"",""trial"":1,""time"":2148},{""event"":""fullscreenexit"",""trial"":1,""time"":2348}]",NA,NA,NA,NA,NA,3,#1CD855,#FA92F8,0,10,1,38,1,729,37,1,423.10000002384186,0,1,experiment,NA,NA,1,0.7,0.3,2,3,238,6,NA
fcp-trial,288,1440460,0.0-249.0-0.0,voc_e2,12010,"[{""event"":""fullscreenenter"",""trial"":1,""time"":2148},{""event"":""fullscreenexit"",""trial"":1,""time"":2348}]",NA,NA,NA,NA,NA,5,#D89F1C,#3386FF,0,10,0,38,1,867.5,39,0,461.699999988079,10,1,experiment,NA,NA,0,0.1,0.9,1,0,239,6,NA
fcp-trial,289,1443148,0.0-250.0-0.0,voc_e2,12010,"[{""event"":""fullscreenenter"",""trial"":1,""time"":2148},{""event"":""fullscreenexit"",""trial"":1,""time"":2348}]",NA,NA,NA,NA,NA,5,#D8271C,#741CD8,10,10,1,38,1,728.3999999761581,39,0,454.5,10,0,experiment,NA,NA,2,0.5,0.5,4,5,240,6,NA
fcp-trial,290,1445851,0.0-251.0-0.0,voc_e2,12010,"[{""event"":""fullscreenenter"",""trial"":1,""time"":2148},{""event"":""fullscreenexit"",""trial"":1,""time"":2348}]",NA,NA,NA,NA,NA,4,#D8271C,#741CD8,0,10,1,38,1,759.3999999761581,37,1,430.699999988079,0,1,experiment,NA,NA,2,0.5,0.5,4,5,241,6,NA
fcp-trial,291,1449108,0.0-252.0-0.0,voc_e2,12010,"[{""event"":""fullscreenenter"",""trial"":1,""time"":2148},{""event"":""fullscreenexit"",""trial"":1,""time"":2348}]",NA,NA,NA,NA,NA,6,#1CD855,#FA92F8,10,0,1,38,1,945.1000000238419,39,0,797.5,0,0,experiment,NA,NA,1,0.7,0.3,2,3,242,6,NA
fcp-trial,292,1451876,0.0-253.0-0.0,voc_e2,12010,"[{""event"":""fullscreenenter"",""trial"":1,""time"":2148},{""event"":""fullscreenexit"",""trial"":1,""time"":2348}]",NA,NA,NA,NA,NA,2,#D89F1C,#3386FF,10,0,0,38,1,995.1999999880791,39,0,264.69999998807907,0,1,experiment,NA,NA,0,0.1,0.9,1,0,243,6,NA
fcp-trial,293,1454325,0.0-254.0-0.0,voc_e2,12010,"[{""event"":""fullscreenenter"",""trial"":1,""time"":2148},{""event"":""fullscreenexit"",""trial"":1,""time"":2348}]",NA,NA,NA,NA,NA,1,#D89F1C,#3386FF,0,10,0,38,1,675.9000000357628,37,1,262.5999999642372,0,0,experiment,NA,NA,0,0.1,0.9,1,0,244,6,NA
fcp-trial,294,1457411,0.0-255.0-0.0,voc_e2,12010,"[{""event"":""fullscreenenter"",""trial"":1,""time"":2148},{""event"":""fullscreenexit"",""trial"":1,""time"":2348}]",NA,NA,NA,NA,NA,0,#D8271C,#741CD8,0,0,1,38,1,1179.3999999761581,39,0,398.7999999523163,0,0,experiment,NA,NA,2,0.5,0.5,4,5,245,6,NA
fcp-trial,295,1461428,0.0-256.0-0.0,voc_e2,12010,"[{""event"":""fullscreenenter"",""trial"":1,""time"":2148},{""event"":""fullscreenexit"",""trial"":1,""time"":2348}]",NA,NA,NA,NA,NA,2,#FA92F8,#1CD855,0,10,0,38,1,1080.6000000238419,37,1,1429.7000000476835,0,0,experiment,NA,NA,1,0.3,0.7,3,2,246,6,NA
fcp-trial,296,1464821,0.0-257.0-0.0,voc_e2,12010,"[{""event"":""fullscreenenter"",""trial"":1,""time"":2148},{""event"":""fullscreenexit"",""trial"":1,""time"":2348}]",NA,NA,NA,NA,NA,3,#3386FF,#D89F1C,10,0,1,38,1,1055.6000000238419,39,0,829.8000000119209,0,0,experiment,NA,NA,0,0.9,0.1,0,1,247,6,NA
fcp-trial,297,1468588,0.0-258.0-0.0,voc_e2,12010,"[{""event"":""fullscreenenter"",""trial"":1,""time"":2148},{""event"":""fullscreenexit"",""trial"":1,""time"":2348}]",NA,NA,NA,NA,NA,5,#1CD855,#FA92F8,10,0,1,40,0,1532.699999988079,37,1,718.3000000119209,10,1,experiment,NA,NA,1,0.7,0.3,2,3,248,6,NA
fcp-trial,298,1473092,0.0-259.0-0.0,voc_e2,12010,"[{""event"":""fullscreenenter"",""trial"":1,""time"":2148},{""event"":""fullscreenexit"",""trial"":1,""time"":2348}]",NA,NA,NA,NA,NA,6,#D8271C,#741CD8,0,10,1,40,0,1853.800000011921,37,1,1138.300000011921,0,1,experiment,NA,NA,2,0.5,0.5,4,5,249,6,NA
fcp-trial,299,1475862,0.0-260.0-0.0,voc_e2,12010,"[{""event"":""fullscreenenter"",""trial"":1,""time"":2148},{""event"":""fullscreenexit"",""trial"":1,""time"":2348}]",NA,NA,NA,NA,NA,0,#FA92F8,#1CD855,0,10,0,38,1,879.5999999642372,39,0,384.0999999642372,10,1,experiment,NA,NA,1,0.3,0.7,3,2,250,6,NA
fcp-trial,300,1480221,0.0-261.0-0.0,voc_e2,12010,"[{""event"":""fullscreenenter"",""trial"":1,""time"":2148},{""event"":""fullscreenexit"",""trial"":1,""time"":2348}]",NA,NA,NA,NA,NA,0,#3386FF,#D89F1C,10,0,1,38,1,1603.300000011921,39,0,1247,0,0,experiment,NA,NA,0,0.9,0.1,0,1,251,6,NA
fcp-trial,301,1485332,0.0-262.0-0.0,voc_e2,12010,"[{""event"":""fullscreenenter"",""trial"":1,""time"":2148},{""event"":""fullscreenexit"",""trial"":1,""time"":2348}]",NA,NA,NA,NA,NA,1,#741CD8,#D8271C,0,0,0,40,0,2624,37,1,983,0,0,experiment,NA,NA,2,0.5,0.5,5,4,252,6,NA
fcp-trial,302,1489397,0.0-263.0-0.0,voc_e2,12010,"[{""event"":""fullscreenenter"",""trial"":1,""time"":2148},{""event"":""fullscreenexit"",""trial"":1,""time"":2348}]",NA,NA,NA,NA,NA,5,#D89F1C,#3386FF,0,10,0,40,0,1824.699999988079,39,0,735.1000000238419,10,1,experiment,NA,NA,0,0.1,0.9,1,0,253,6,NA
fcp-trial,303,1493621,0.0-264.0-0.0,voc_e2,12010,"[{""event"":""fullscreenenter"",""trial"":1,""time"":2148},{""event"":""fullscreenexit"",""trial"":1,""time"":2348}]",NA,NA,NA,NA,NA,3,#1CD855,#FA92F8,10,0,1,38,1,1313.4000000357628,39,0,1406.399999976158,0,0,experiment,NA,NA,1,0.7,0.3,2,3,254,6,NA
fcp-trial,304,1501573,0.0-265.0-0.0,voc_e2,12010,"[{""event"":""fullscreenenter"",""trial"":1,""time"":2148},{""event"":""fullscreenexit"",""trial"":1,""time"":2348}]",NA,NA,NA,NA,NA,0,#741CD8,#D8271C,10,10,0,38,1,3286.899999976158,37,1,3150.199999988079,10,0,experiment,NA,NA,2,0.5,0.5,5,4,255,6,NA
fcp-trial,305,1505974,0.0-266.0-0.0,voc_e2,12010,"[{""event"":""fullscreenenter"",""trial"":1,""time"":2148},{""event"":""fullscreenexit"",""trial"":1,""time"":2348}]",NA,NA,NA,NA,NA,2,#1CD855,#FA92F8,0,10,1,38,1,2473.300000011921,39,0,422.5,10,0,experiment,NA,NA,1,0.7,0.3,2,3,256,6,NA
fcp-trial,306,1511502,0.0-267.0-0.0,voc_e2,12010,"[{""event"":""fullscreenenter"",""trial"":1,""time"":2148},{""event"":""fullscreenexit"",""trial"":1,""time"":2348}]",NA,NA,NA,NA,NA,1,#1CD855,#FA92F8,0,0,1,38,1,3312.800000011921,37,1,703.6000000238419,0,1,experiment,NA,NA,1,0.7,0.3,2,3,257,6,NA
fcp-trial,307,1514431,0.0-268.0-0.0,voc_e2,12010,"[{""event"":""fullscreenenter"",""trial"":1,""time"":2148},{""event"":""fullscreenexit"",""trial"":1,""time"":2348}]",NA,NA,NA,NA,NA,0,#D89F1C,#3386FF,0,0,0,38,1,1116.7999999523163,39,0,302.89999997615814,0,1,experiment,NA,NA,0,0.1,0.9,1,0,258,6,NA
fcp-trial,308,1517309,0.0-269.0-0.0,voc_e2,12010,"[{""event"":""fullscreenenter"",""trial"":1,""time"":2148},{""event"":""fullscreenexit"",""trial"":1,""time"":2348}]",NA,NA,NA,NA,NA,5,#741CD8,#D8271C,0,0,0,38,1,1085.800000011921,37,1,287.5,0,0,experiment,NA,NA,2,0.5,0.5,5,4,259,6,NA
fcp-trial,309,1519934,0.0-270.0-0.0,voc_e2,12010,"[{""event"":""fullscreenenter"",""trial"":1,""time"":2148},{""event"":""fullscreenexit"",""trial"":1,""time"":2348}]",NA,NA,NA,NA,NA,6,#D89F1C,#3386FF,0,10,0,38,1,678.6999999880791,37,1,431.89999997615814,0,0,experiment,NA,NA,0,0.1,0.9,1,0,260,6,NA
fcp-trial,310,1522918,0.0-271.0-0.0,voc_e2,12010,"[{""event"":""fullscreenenter"",""trial"":1,""time"":2148},{""event"":""fullscreenexit"",""trial"":1,""time"":2348}]",NA,NA,NA,NA,NA,1,#D8271C,#741CD8,0,0,1,38,1,879.5999999642372,39,0,601,0,0,experiment,NA,NA,2,0.5,0.5,4,5,261,6,NA
fcp-trial,311,1525750,0.0-272.0-0.0,voc_e2,12010,"[{""event"":""fullscreenenter"",""trial"":1,""time"":2148},{""event"":""fullscreenexit"",""trial"":1,""time"":2348}]",NA,NA,NA,NA,NA,4,#1CD855,#FA92F8,10,10,1,38,1,1045.800000011921,37,1,279.30000001192093,10,1,experiment,NA,NA,1,0.7,0.3,2,3,262,6,NA
fcp-trial,312,1528150,0.0-273.0-0.0,voc_e2,12010,"[{""event"":""fullscreenenter"",""trial"":1,""time"":2148},{""event"":""fullscreenexit"",""trial"":1,""time"":2348}]",NA,NA,NA,NA,NA,1,#D89F1C,#3386FF,0,10,0,38,1,635.4000000357628,39,0,256.19999998807907,10,1,experiment,NA,NA,0,0.1,0.9,1,0,263,6,NA
fcp-trial,313,1530943,0.0-274.0-0.0,voc_e2,12010,"[{""event"":""fullscreenenter"",""trial"":1,""time"":2148},{""event"":""fullscreenexit"",""trial"":1,""time"":2348}]",NA,NA,NA,NA,NA,5,#1CD855,#FA92F8,10,10,1,38,1,862.8000000119209,37,1,416,10,1,experiment,NA,NA,1,0.7,0.3,2,3,264,6,NA
fcp-trial,314,1533621,0.0-275.0-0.0,voc_e2,12010,"[{""event"":""fullscreenenter"",""trial"":1,""time"":2148},{""event"":""fullscreenexit"",""trial"":1,""time"":2348}]",NA,NA,NA,NA,NA,2,#741CD8,#D8271C,10,10,0,38,1,825.9000000357628,37,1,342.5999999642372,10,0,experiment,NA,NA,2,0.5,0.5,5,4,265,6,NA
fcp-trial,315,1537949,0.0-276.0-0.0,voc_e2,12010,"[{""event"":""fullscreenenter"",""trial"":1,""time"":2148},{""event"":""fullscreenexit"",""trial"":1,""time"":2348}]",NA,NA,NA,NA,NA,4,#D89F1C,#3386FF,0,10,0,38,1,1757.5,37,1,1062.800000011921,0,0,experiment,NA,NA,0,0.1,0.9,1,0,266,6,NA
fcp-trial,316,1541021,0.0-277.0-0.0,voc_e2,12010,"[{""event"":""fullscreenenter"",""trial"":1,""time"":2148},{""event"":""fullscreenexit"",""trial"":1,""time"":2348}]",NA,NA,NA,NA,NA,2,#3386FF,#D89F1C,10,0,1,38,1,975.8000000119209,37,1,589.5999999642372,10,1,experiment,NA,NA,0,0.9,0.1,0,1,267,6,NA
fcp-trial,317,1543680,0.0-278.0-0.0,voc_e2,12010,"[{""event"":""fullscreenenter"",""trial"":1,""time"":2148},{""event"":""fullscreenexit"",""trial"":1,""time"":2348}]",NA,NA,NA,NA,NA,0,#1CD855,#FA92F8,10,0,1,38,1,601.6999999880791,39,0,543.1000000238419,0,0,experiment,NA,NA,1,0.7,0.3,2,3,268,6,NA
fcp-trial,318,1547735,0.0-279.0-0.0,voc_e2,12010,"[{""event"":""fullscreenenter"",""trial"":1,""time"":2148},{""event"":""fullscreenexit"",""trial"":1,""time"":2348}]",NA,NA,NA,NA,NA,6,#741CD8,#D8271C,0,10,0,38,1,1026.9000000357628,37,1,1520.100000023842,0,0,experiment,NA,NA,2,0.5,0.5,5,4,269,6,NA
fcp-trial,319,1551015,0.0-280.0-0.0,voc_e2,12010,"[{""event"":""fullscreenenter"",""trial"":1,""time"":2148},{""event"":""fullscreenexit"",""trial"":1,""time"":2348}]",NA,NA,NA,NA,NA,3,#D8271C,#741CD8,0,0,1,38,1,1211.800000011921,39,0,559.1999999880791,0,0,experiment,NA,NA,2,0.5,0.5,4,5,270,6,NA
fcp-trial,320,1554951,0.0-281.0-0.0,voc_e2,12010,"[{""event"":""fullscreenenter"",""trial"":1,""time"":2148},{""event"":""fullscreenexit"",""trial"":1,""time"":2348}]",NA,NA,NA,NA,NA,3,#3386FF,#D89F1C,10,0,1,40,0,1795.7000000476837,39,0,625,0,0,experiment,NA,NA,0,0.9,0.1,0,1,271,7,NA
fcp-trial,321,1558839,0.0-282.0-0.0,voc_e2,12010,"[{""event"":""fullscreenenter"",""trial"":1,""time"":2148},{""event"":""fullscreenexit"",""trial"":1,""time"":2348}]",NA,NA,NA,NA,NA,6,#FA92F8,#1CD855,0,10,0,40,0,1755.4000000357628,39,0,621.7999999523163,10,1,experiment,NA,NA,1,0.3,0.7,3,2,272,7,NA
fcp-trial,322,1562936,0.0-283.0-0.0,voc_e2,12010,"[{""event"":""fullscreenenter"",""trial"":1,""time"":2148},{""event"":""fullscreenexit"",""trial"":1,""time"":2348}]",NA,NA,NA,NA,NA,4,#D8271C,#741CD8,10,0,1,40,0,1772.1000000238419,37,1,814.5999999642372,10,1,experiment,NA,NA,2,0.5,0.5,4,5,273,7,NA
fcp-trial,323,1567112,0.0-284.0-0.0,voc_e2,12010,"[{""event"":""fullscreenenter"",""trial"":1,""time"":2148},{""event"":""fullscreenexit"",""trial"":1,""time"":2348}]",NA,NA,NA,NA,NA,0,#3386FF,#D89F1C,10,0,1,38,1,1830.5,37,1,828.6999999880791,10,1,experiment,NA,NA,0,0.9,0.1,0,1,274,7,NA
fcp-trial,324,1570886,0.0-285.0-0.0,voc_e2,12010,"[{""event"":""fullscreenenter"",""trial"":1,""time"":2148},{""event"":""fullscreenexit"",""trial"":1,""time"":2348}]",NA,NA,NA,NA,NA,1,#D8271C,#741CD8,0,0,1,38,1,1713.8999999761581,39,0,542.1000000238419,0,0,experiment,NA,NA,2,0.5,0.5,4,5,275,7,NA
fcp-trial,325,1574007,0.0-286.0-0.0,voc_e2,12010,"[{""event"":""fullscreenenter"",""trial"":1,""time"":2148},{""event"":""fullscreenexit"",""trial"":1,""time"":2348}]",NA,NA,NA,NA,NA,6,#3386FF,#D89F1C,0,10,1,38,1,1019.3000000119209,37,1,596.5999999642372,0,1,experiment,NA,NA,0,0.9,0.1,0,1,276,7,NA
fcp-trial,326,1576872,0.0-287.0-0.0,voc_e2,12010,"[{""event"":""fullscreenenter"",""trial"":1,""time"":2148},{""event"":""fullscreenexit"",""trial"":1,""time"":2348}]",NA,NA,NA,NA,NA,6,#FA92F8,#1CD855,0,10,0,38,1,827.8999999761581,39,0,527.1000000238419,10,1,experiment,NA,NA,1,0.3,0.7,3,2,277,7,NA
fcp-trial,327,1579767,0.0-288.0-0.0,voc_e2,12010,"[{""event"":""fullscreenenter"",""trial"":1,""time"":2148},{""event"":""fullscreenexit"",""trial"":1,""time"":2348}]",NA,NA,NA,NA,NA,2,#D8271C,#741CD8,0,10,1,38,1,1026.4000000357628,39,0,358.30000001192093,10,0,experiment,NA,NA,2,0.5,0.5,4,5,278,7,NA
fcp-trial,328,1582408,0.0-289.0-0.0,voc_e2,12010,"[{""event"":""fullscreenenter"",""trial"":1,""time"":2148},{""event"":""fullscreenexit"",""trial"":1,""time"":2348}]",NA,NA,NA,NA,NA,2,#FA92F8,#1CD855,10,10,0,38,1,783.5,37,1,350.89999997615814,10,0,experiment,NA,NA,1,0.3,0.7,3,2,279,7,NA
fcp-trial,329,1585328,0.0-290.0-0.0,voc_e2,12010,"[{""event"":""fullscreenenter"",""trial"":1,""time"":2148},{""event"":""fullscreenexit"",""trial"":1,""time"":2348}]",NA,NA,NA,NA,NA,1,#FA92F8,#1CD855,0,10,0,38,1,764.9000000357628,39,0,646.3999999761581,10,1,experiment,NA,NA,1,0.3,0.7,3,2,280,7,NA
fcp-trial,330,1590104,0.0-291.0-0.0,voc_e2,12010,"[{""event"":""fullscreenenter"",""trial"":1,""time"":2148},{""event"":""fullscreenexit"",""trial"":1,""time"":2348}]",NA,NA,NA,NA,NA,4,#D89F1C,#3386FF,10,10,0,38,1,980.3999999761581,39,0,2285.900000035763,10,1,experiment,NA,NA,0,0.1,0.9,1,0,281,7,NA
fcp-trial,331,1593873,0.0-292.0-0.0,voc_e2,12010,"[{""event"":""fullscreenenter"",""trial"":1,""time"":2148},{""event"":""fullscreenexit"",""trial"":1,""time"":2348}]",NA,NA,NA,NA,NA,3,#741CD8,#D8271C,0,0,0,38,1,1582.199999988079,37,1,679.5,0,0,experiment,NA,NA,2,0.5,0.5,5,4,282,7,NA
fcp-trial,332,1596648,0.0-293.0-0.0,voc_e2,12010,"[{""event"":""fullscreenenter"",""trial"":1,""time"":2148},{""event"":""fullscreenexit"",""trial"":1,""time"":2348}]",NA,NA,NA,NA,NA,2,#3386FF,#D89F1C,10,0,1,38,1,794.9000000357628,39,0,472.300000011921,0,0,experiment,NA,NA,0,0.9,0.1,0,1,283,7,NA
fcp-trial,333,1599456,0.0-294.0-0.0,voc_e2,12010,"[{""event"":""fullscreenenter"",""trial"":1,""time"":2148},{""event"":""fullscreenexit"",""trial"":1,""time"":2348}]",NA,NA,NA,NA,NA,5,#FA92F8,#1CD855,0,10,0,38,1,720.3000000119209,39,0,574.3999999761581,10,1,experiment,NA,NA,1,0.3,0.7,3,2,284,7,NA
fcp-trial,334,1602610,0.0-295.0-0.0,voc_e2,12010,"[{""event"":""fullscreenenter"",""trial"":1,""time"":2148},{""event"":""fullscreenexit"",""trial"":1,""time"":2348}]",NA,NA,NA,NA,NA,4,#D8271C,#741CD8,0,10,1,38,1,1176.5,39,0,462.60000002384186,10,0,experiment,NA,NA,2,0.5,0.5,4,5,285,7,NA
fcp-trial,335,1606376,0.0-296.0-0.0,voc_e2,12010,"[{""event"":""fullscreenenter"",""trial"":1,""time"":2148},{""event"":""fullscreenexit"",""trial"":1,""time"":2348}]",NA,NA,NA,NA,NA,0,#741CD8,#D8271C,0,10,0,38,1,1631,37,1,621.5999999642372,0,0,experiment,NA,NA,2,0.5,0.5,5,4,286,7,NA
fcp-trial,336,1609258,0.0-297.0-0.0,voc_e2,12010,"[{""event"":""fullscreenenter"",""trial"":1,""time"":2148},{""event"":""fullscreenexit"",""trial"":1,""time"":2348}]",NA,NA,NA,NA,NA,3,#1CD855,#FA92F8,10,10,1,38,1,1005.6000000238419,39,0,367.0999999642372,10,0,experiment,NA,NA,1,0.7,0.3,2,3,287,7,NA
fcp-trial,337,1611807,0.0-298.0-0.0,voc_e2,12010,"[{""event"":""fullscreenenter"",""trial"":1,""time"":2148},{""event"":""fullscreenexit"",""trial"":1,""time"":2348}]",NA,NA,NA,NA,NA,5,#3386FF,#D89F1C,10,0,1,38,1,659.8000000119209,39,0,383.199999988079,0,0,experiment,NA,NA,0,0.9,0.1,0,1,288,7,NA
fcp-trial,338,1614241,0.0-299.0-0.0,voc_e2,12010,"[{""event"":""fullscreenenter"",""trial"":1,""time"":2148},{""event"":""fullscreenexit"",""trial"":1,""time"":2348}]",NA,NA,NA,NA,NA,1,#3386FF,#D89F1C,10,0,1,38,1,526.6999999880791,37,1,398.699999988079,10,1,experiment,NA,NA,0,0.9,0.1,0,1,289,7,NA
fcp-trial,339,1616690,0.0-300.0-0.0,voc_e2,12010,"[{""event"":""fullscreenenter"",""trial"":1,""time"":2148},{""event"":""fullscreenexit"",""trial"":1,""time"":2348}]",NA,NA,NA,NA,NA,6,#741CD8,#D8271C,10,10,0,38,1,525,39,0,414.800000011921,10,1,experiment,NA,NA,2,0.5,0.5,5,4,290,7,NA
fcp-trial,340,1619617,0.0-301.0-0.0,voc_e2,12010,"[{""event"":""fullscreenenter"",""trial"":1,""time"":2148},{""event"":""fullscreenexit"",""trial"":1,""time"":2348}]",NA,NA,NA,NA,NA,5,#741CD8,#D8271C,0,0,0,38,1,907.1999999880791,37,1,510.300000011921,0,0,experiment,NA,NA,2,0.5,0.5,5,4,291,7,NA
