trial_type,trial_index,time_elapsed,internal_node_id,task_version,subject_id,interactions,success,rt,stimulus,key_press,button_pressed,offer,arcade_color_L,arcade_color_R,arcade_outcome_L,arcade_outcome_R,correct,stage_1_key,stage_1_choice,stage_1_rt,stage_2_key,stage_2_choice,stage_2_rt,stage_3_outcome,accuracy,phase,responses,num_errors,context,reward_prob_L,reward_prob_R,arcade_id_L,arcade_id_R,trial,block,response
pavlovia,0,14,0.0-0.0,voc_e2,11750,[],NA,NA,NA,NA,NA,NA,NA,NA,NA,NA,NA,NA,NA,NA,NA,NA,NA,NA,NA,NA,NA,NA,NA,NA,NA,NA,NA,NA,NA,NA
fullscreen,1,2841,0.0-1.0,voc_e2,11750,"[{""event"":""fullscreenenter"",""trial"":1,""time"":1847}]",TRUE,NA,NA,NA,NA,NA,NA,NA,NA,NA,NA,NA,NA,NA,NA,NA,NA,NA,NA,NA,NA,NA,NA,NA,NA,NA,NA,NA,NA,NA
audio-keyboard-response,2,6748,0.0-2.0,voc_e2,11750,"[{""event"":""fullscreenenter"",""trial"":1,""time"":1847}]",NA,3821,static/audio/beep_loop.wav,32,NA,NA,NA,NA,NA,NA,NA,NA,NA,NA,NA,NA,NA,NA,NA,NA,NA,NA,NA,NA,NA,NA,NA,NA,NA,NA
audio-test,3,16831,0.0-3.0,voc_e2,11750,"[{""event"":""fullscreenenter"",""trial"":1,""time"":1847}]",NA,NA,static/audio/turtle.wav,NA,3,NA,NA,NA,NA,NA,NA,NA,NA,NA,NA,NA,NA,NA,NA,NA,NA,NA,NA,NA,NA,NA,NA,NA,NA,NA
audio-test,4,19273,0.0-4.0,voc_e2,11750,"[{""event"":""fullscreenenter"",""trial"":1,""time"":1847}]",NA,NA,static/audio/shark.wav,NA,2,NA,NA,NA,NA,NA,NA,NA,NA,NA,NA,NA,NA,NA,NA,NA,NA,NA,NA,NA,NA,NA,NA,NA,NA,NA
audio-instructions,5,38869,0.0-5.0-0.0,voc_e2,11750,"[{""event"":""fullscreenenter"",""trial"":1,""time"":1847}]",NA,13805.40000000596,static/audio/instructions1.wav,NA,0,NA,NA,NA,NA,NA,NA,NA,NA,NA,NA,NA,NA,NA,NA,NA,NA,NA,NA,NA,NA,NA,NA,NA,NA,NA
audio-instructions,6,48938,0.0-5.0-1.0,voc_e2,11750,"[{""event"":""fullscreenenter"",""trial"":1,""time"":1847}]",NA,3324.600000023842,static/audio/instructions2.wav,NA,0,NA,NA,NA,NA,NA,NA,NA,NA,NA,NA,NA,NA,NA,NA,NA,NA,NA,NA,NA,NA,NA,NA,NA,NA,NA
audio-instructions,7,58217,0.0-5.0-2.0,voc_e2,11750,"[{""event"":""fullscreenenter"",""trial"":1,""time"":1847}]",NA,3474,static/audio/instructions3.wav,NA,0,NA,NA,NA,NA,NA,NA,NA,NA,NA,NA,NA,NA,NA,NA,NA,NA,NA,NA,NA,NA,NA,NA,NA,NA,NA
audio-instructions,8,75315,0.0-5.0-3.0,voc_e2,11750,"[{""event"":""fullscreenenter"",""trial"":1,""time"":1847}]",NA,3871.7000000178814,static/audio/instructions4.wav,NA,0,NA,NA,NA,NA,NA,NA,NA,NA,NA,NA,NA,NA,NA,NA,NA,NA,NA,NA,NA,NA,NA,NA,NA,NA,NA
audio-instructions,9,86106,0.0-5.0-4.0,voc_e2,11750,"[{""event"":""fullscreenenter"",""trial"":1,""time"":1847}]",NA,1403,static/audio/instructions5.wav,NA,0,NA,NA,NA,NA,NA,NA,NA,NA,NA,NA,NA,NA,NA,NA,NA,NA,NA,NA,NA,NA,NA,NA,NA,NA,NA
fcp-practice,10,91551,0.0-5.0-5.0-0.0,voc_e2,11750,"[{""event"":""fullscreenenter"",""trial"":1,""time"":1847}]",NA,NA,NA,NA,NA,NA,#EDC948,#46d3c8,10,0,1,null,null,null,37,1,3930.7000000178814,10,1,practice,NA,NA,NA,NA,NA,NA,NA,NA,NA,NA
fcp-practice,11,94543,0.0-5.0-5.0-1.0,voc_e2,11750,"[{""event"":""fullscreenenter"",""trial"":1,""time"":1847}]",NA,NA,NA,NA,NA,NA,#EDC948,#46d3c8,10,0,1,null,null,null,37,1,1481.9000000059605,10,1,practice,NA,NA,NA,NA,NA,NA,NA,NA,NA,NA
fcp-practice,12,97560,0.0-5.0-5.0-2.0,voc_e2,11750,"[{""event"":""fullscreenenter"",""trial"":1,""time"":1847}]",NA,NA,NA,NA,NA,NA,#EDC948,#46d3c8,0,10,1,null,null,null,37,1,1514.1000000238419,0,1,practice,NA,NA,NA,NA,NA,NA,NA,NA,NA,NA
fcp-practice,13,100301,0.0-5.0-5.0-3.0,voc_e2,11750,"[{""event"":""fullscreenenter"",""trial"":1,""time"":1847}]",NA,NA,NA,NA,NA,NA,#EDC948,#46d3c8,10,0,1,null,null,null,37,1,1232.800000011921,10,1,practice,NA,NA,NA,NA,NA,NA,NA,NA,NA,NA
fcp-practice,14,102298,0.0-5.0-5.0-4.0,voc_e2,11750,"[{""event"":""fullscreenenter"",""trial"":1,""time"":1847}]",NA,NA,NA,NA,NA,NA,#EDC948,#46d3c8,10,0,1,null,null,null,37,1,490.7000000178814,10,1,practice,NA,NA,NA,NA,NA,NA,NA,NA,NA,NA
audio-instructions,15,139213,0.0-5.0-6.0,voc_e2,11750,"[{""event"":""fullscreenenter"",""trial"":1,""time"":1847}]",NA,18910.20000001788,static/audio/instructions6.wav,NA,0,NA,NA,NA,NA,NA,NA,NA,NA,NA,NA,NA,NA,NA,NA,NA,NA,NA,NA,NA,NA,NA,NA,NA,NA,NA
audio-instructions,16,162715,0.0-5.0-7.0,voc_e2,11750,"[{""event"":""fullscreenenter"",""trial"":1,""time"":1847}]",NA,4301.9000000059605,static/audio/instructions7.wav,NA,0,NA,NA,NA,NA,NA,NA,NA,NA,NA,NA,NA,NA,NA,NA,NA,NA,NA,NA,NA,NA,NA,NA,NA,NA,NA
audio-instructions,17,182942,0.0-5.0-8.0,voc_e2,11750,"[{""event"":""fullscreenenter"",""trial"":1,""time"":1847}]",NA,10759.19999998808,static/audio/instructions8.wav,NA,0,NA,NA,NA,NA,NA,NA,NA,NA,NA,NA,NA,NA,NA,NA,NA,NA,NA,NA,NA,NA,NA,NA,NA,NA,NA
fcp-comprehension,18,220506,0.0-5.0-9.0,voc_e2,11750,"[{""event"":""fullscreenenter"",""trial"":1,""time"":1847}]",NA,37562.79999998212,NA,NA,NA,NA,NA,NA,NA,NA,NA,NA,NA,NA,NA,NA,NA,NA,NA,NA,"true,true",0,NA,NA,NA,NA,NA,NA,NA,NA
audio-instructions,19,228281,0.0-6.0-0.0,voc_e2,11750,"[{""event"":""fullscreenenter"",""trial"":1,""time"":1847}]",NA,2191.800000011921,static/audio/instructions9.wav,NA,0,NA,NA,NA,NA,NA,NA,NA,NA,NA,NA,NA,NA,NA,NA,NA,NA,NA,NA,NA,NA,NA,NA,NA,NA,NA
audio-instructions,20,243422,0.0-6.0-1.0,voc_e2,11750,"[{""event"":""fullscreenenter"",""trial"":1,""time"":1847}]",NA,3022.5,static/audio/instructions10.wav,NA,0,NA,NA,NA,NA,NA,NA,NA,NA,NA,NA,NA,NA,NA,NA,NA,NA,NA,NA,NA,NA,NA,NA,NA,NA,NA
fcp-trial,21,253315,0.0-6.0-2.0,voc_e2,11750,"[{""event"":""fullscreenenter"",""trial"":1,""time"":1847}]",NA,NA,NA,NA,NA,0,#EDC948,#46d3c8,10,10,1,38,1,5231.4000000059605,39,0,3134.5999999940395,10,0,practice,NA,NA,NA,NA,NA,NA,NA,NA,NA,NA
audio-instructions,22,266998,0.0-6.0-3.0,voc_e2,11750,"[{""event"":""fullscreenenter"",""trial"":1,""time"":1847}]",NA,2679.300000011921,static/audio/instructions11.wav,NA,0,NA,NA,NA,NA,NA,NA,NA,NA,NA,NA,NA,NA,NA,NA,NA,NA,NA,NA,NA,NA,NA,NA,NA,NA,NA
fcp-trial,23,272465,0.0-6.0-4.0,voc_e2,11750,"[{""event"":""fullscreenenter"",""trial"":1,""time"":1847}]",NA,NA,NA,NA,NA,6,#EDC948,#46d3c8,10,10,1,40,0,2401.4000000059605,39,0,1541.9000000059605,10,0,practice,NA,NA,NA,NA,NA,NA,NA,NA,NA,NA
audio-instructions,24,294904,0.0-6.0-5.0,voc_e2,11750,"[{""event"":""fullscreenenter"",""trial"":1,""time"":1847}]",NA,3755.2000000178814,static/audio/instructions12.wav,NA,0,NA,NA,NA,NA,NA,NA,NA,NA,NA,NA,NA,NA,NA,NA,NA,NA,NA,NA,NA,NA,NA,NA,NA,NA,NA
audio-instructions,25,303620,0.0-6.0-6.0,voc_e2,11750,"[{""event"":""fullscreenenter"",""trial"":1,""time"":1847}]",NA,1120.9000000059605,static/audio/instructions13.wav,NA,0,NA,NA,NA,NA,NA,NA,NA,NA,NA,NA,NA,NA,NA,NA,NA,NA,NA,NA,NA,NA,NA,NA,NA,NA,NA
audio-instructions,26,319884,0.0-6.0-7.0,voc_e2,11750,"[{""event"":""fullscreenenter"",""trial"":1,""time"":1847}]",NA,7814.800000011921,static/audio/instructions14.wav,NA,0,NA,NA,NA,NA,NA,NA,NA,NA,NA,NA,NA,NA,NA,NA,NA,NA,NA,NA,NA,NA,NA,NA,NA,NA,NA
audio-instructions,27,333469,0.0-7.0-0.0,voc_e2,11750,"[{""event"":""fullscreenenter"",""trial"":1,""time"":1847}]",NA,6670.5,static/audio/instructions15.wav,NA,0,NA,NA,NA,NA,NA,NA,NA,NA,NA,NA,NA,NA,NA,NA,NA,NA,NA,NA,NA,NA,NA,NA,NA,NA,NA
audio-instructions,28,353240,0.0-7.0-1.0,voc_e2,11750,"[{""event"":""fullscreenenter"",""trial"":1,""time"":1847}]",NA,12942.30000001192,static/audio/instructions16.wav,NA,0,NA,NA,NA,NA,NA,NA,NA,NA,NA,NA,NA,NA,NA,NA,NA,NA,NA,NA,NA,NA,NA,NA,NA,NA,NA
audio-instructions,29,361601,0.0-7.0-2.0,voc_e2,11750,"[{""event"":""fullscreenenter"",""trial"":1,""time"":1847}]",NA,682.9000000059605,static/audio/instructions17.wav,NA,0,NA,NA,NA,NA,NA,NA,NA,NA,NA,NA,NA,NA,NA,NA,NA,NA,NA,NA,NA,NA,NA,NA,NA,NA,NA
audio-instructions,30,372251,0.0-7.0-3.0,voc_e2,11750,"[{""event"":""fullscreenenter"",""trial"":1,""time"":1847}]",NA,2882.2000000178814,static/audio/instructions18.wav,NA,0,NA,NA,NA,NA,NA,NA,NA,NA,NA,NA,NA,NA,NA,NA,NA,NA,NA,NA,NA,NA,NA,NA,NA,NA,NA
audio-instructions,31,382493,0.0-7.0-4.0,voc_e2,11750,"[{""event"":""fullscreenenter"",""trial"":1,""time"":1847}]",NA,3494.800000011921,static/audio/instructions19.wav,NA,0,NA,NA,NA,NA,NA,NA,NA,NA,NA,NA,NA,NA,NA,NA,NA,NA,NA,NA,NA,NA,NA,NA,NA,NA,NA
fcp-comprehension,32,430798,0.0-7.0-5.0,voc_e2,11750,"[{""event"":""fullscreenenter"",""trial"":1,""time"":1847}]",NA,48303.29999998212,NA,NA,NA,NA,NA,NA,NA,NA,NA,NA,NA,NA,NA,NA,NA,NA,NA,NA,"false,false,false,true",0,NA,NA,NA,NA,NA,NA,NA,NA
audio-instructions,33,443851,0.0-8.0,voc_e2,11750,"[{""event"":""fullscreenenter"",""trial"":1,""time"":1847}]",NA,3781.599999994039,static/audio/ready.wav,NA,0,NA,NA,NA,NA,NA,NA,NA,NA,NA,NA,NA,NA,NA,NA,NA,NA,NA,NA,NA,NA,NA,NA,NA,NA,NA
fcp-trial,34,455636,0.0-9.0-0.0,voc_e2,11750,"[{""event"":""fullscreenenter"",""trial"":1,""time"":1847}]",NA,NA,NA,NA,NA,4,#D8271C,#741CD8,10,0,0,38,1,7211.5999999940395,39,0,3054.2000000178814,0,1,experiment,NA,NA,2,0.5,0.5,5,4,1,1,NA
fcp-trial,35,463449,0.0-10.0-0.0,voc_e2,11750,"[{""event"":""fullscreenenter"",""trial"":1,""time"":1847}]",NA,NA,NA,NA,NA,3,#D89F1C,#3386FF,10,0,1,38,1,4899.5999999940395,39,0,1405.5,0,0,experiment,NA,NA,0,0.9,0.1,0,1,2,1,NA
fcp-trial,36,471240,0.0-11.0-0.0,voc_e2,11750,"[{""event"":""fullscreenenter"",""trial"":1,""time"":1847}]",NA,NA,NA,NA,NA,4,#FA92F8,#1CD855,0,0,0,38,1,3584,37,1,2702.4000000059605,0,0,experiment,NA,NA,1,0.3,0.7,3,2,3,1,NA
fcp-trial,37,476553,0.0-12.0-0.0,voc_e2,11750,"[{""event"":""fullscreenenter"",""trial"":1,""time"":1847}]",NA,NA,NA,NA,NA,4,#3386FF,#D89F1C,0,10,0,38,1,2673.4000000059605,39,0,1135.1000000238419,10,1,experiment,NA,NA,0,0.1,0.9,1,0,4,1,NA
fcp-trial,38,485225,0.0-13.0-0.0,voc_e2,11750,"[{""event"":""fullscreenenter"",""trial"":1,""time"":1847}]",NA,NA,NA,NA,NA,6,#741CD8,#D8271C,0,10,1,40,0,5327.700000017881,37,1,1839.1000000238419,0,1,experiment,NA,NA,2,0.5,0.5,4,5,5,1,NA
fcp-trial,39,491817,0.0-14.0-0.0,voc_e2,11750,"[{""event"":""fullscreenenter"",""trial"":1,""time"":1847}]",NA,NA,NA,NA,NA,1,#D8271C,#741CD8,0,10,0,40,0,4352.4000000059605,37,1,735,0,0,experiment,NA,NA,2,0.5,0.5,5,4,6,1,NA
fcp-trial,40,496585,0.0-15.0-0.0,voc_e2,11750,"[{""event"":""fullscreenenter"",""trial"":1,""time"":1847}]",NA,NA,NA,NA,NA,6,#FA92F8,#1CD855,0,10,0,38,1,2337,39,0,927,10,1,experiment,NA,NA,1,0.3,0.7,3,2,7,1,NA
fcp-trial,41,500984,0.0-16.0-0.0,voc_e2,11750,"[{""event"":""fullscreenenter"",""trial"":1,""time"":1847}]",NA,NA,NA,NA,NA,1,#FA92F8,#1CD855,10,0,0,40,0,2112.199999988079,39,0,783.5,0,1,experiment,NA,NA,1,0.3,0.7,3,2,8,1,NA
fcp-trial,42,505560,0.0-17.0-0.0,voc_e2,11750,"[{""event"":""fullscreenenter"",""trial"":1,""time"":1847}]",NA,NA,NA,NA,NA,2,#3386FF,#D89F1C,10,10,0,38,1,1920.3999999761581,37,1,1149.7999999821186,10,0,experiment,NA,NA,0,0.1,0.9,1,0,9,1,NA
fcp-trial,43,511037,0.0-18.0-0.0,voc_e2,11750,"[{""event"":""fullscreenenter"",""trial"":1,""time"":1847}]",NA,NA,NA,NA,NA,3,#FA92F8,#1CD855,0,10,0,38,1,3489.4000000059605,39,0,478.90000000596046,10,1,experiment,NA,NA,1,0.3,0.7,3,2,10,1,NA
fcp-trial,44,515401,0.0-19.0-0.0,voc_e2,11750,"[{""event"":""fullscreenenter"",""trial"":1,""time"":1847}]",NA,NA,NA,NA,NA,3,#D8271C,#741CD8,0,0,0,38,1,1467.8999999761581,37,1,1391.7000000178814,0,0,experiment,NA,NA,2,0.5,0.5,5,4,11,1,NA
fcp-trial,45,518840,0.0-20.0-0.0,voc_e2,11750,"[{""event"":""fullscreenenter"",""trial"":1,""time"":1847}]",NA,NA,NA,NA,NA,0,#1CD855,#FA92F8,10,0,1,38,1,1407.699999988079,37,1,526.4000000059605,10,1,experiment,NA,NA,1,0.7,0.3,2,3,12,1,NA
fcp-trial,46,522936,0.0-21.0-0.0,voc_e2,11750,"[{""event"":""fullscreenenter"",""trial"":1,""time"":1847}]",NA,NA,NA,NA,NA,1,#D89F1C,#3386FF,10,0,1,38,1,1840.9000000059605,39,0,751.2000000178814,0,0,experiment,NA,NA,0,0.9,0.1,0,1,13,1,NA
fcp-trial,47,527272,0.0-22.0-0.0,voc_e2,11750,"[{""event"":""fullscreenenter"",""trial"":1,""time"":1847}]",NA,NA,NA,NA,NA,0,#D8271C,#741CD8,10,10,0,38,1,1295.5,37,1,1535.7000000178814,10,0,experiment,NA,NA,2,0.5,0.5,5,4,14,1,NA
fcp-trial,48,531320,0.0-23.0-0.0,voc_e2,11750,"[{""event"":""fullscreenenter"",""trial"":1,""time"":1847}]",NA,NA,NA,NA,NA,5,#FA92F8,#1CD855,10,0,0,38,1,2064.199999988079,39,0,479.69999998807907,0,1,experiment,NA,NA,1,0.3,0.7,3,2,15,1,NA
fcp-trial,49,535384,0.0-24.0-0.0,voc_e2,11750,"[{""event"":""fullscreenenter"",""trial"":1,""time"":1847}]",NA,NA,NA,NA,NA,2,#741CD8,#D8271C,0,0,1,40,0,1824.5,37,1,735.2999999821186,0,1,experiment,NA,NA,2,0.5,0.5,4,5,16,1,NA
fcp-trial,50,540296,0.0-25.0-0.0,voc_e2,11750,"[{""event"":""fullscreenenter"",""trial"":1,""time"":1847}]",NA,NA,NA,NA,NA,6,#D89F1C,#3386FF,10,0,1,40,0,2608.699999988079,39,0,799.5999999940395,0,0,experiment,NA,NA,0,0.9,0.1,0,1,17,1,NA
fcp-trial,51,546152,0.0-26.0-0.0,voc_e2,11750,"[{""event"":""fullscreenenter"",""trial"":1,""time"":1847}]",NA,NA,NA,NA,NA,0,#D89F1C,#3386FF,10,0,1,38,1,3569.9000000059605,39,0,782.7999999821186,0,0,experiment,NA,NA,0,0.9,0.1,0,1,18,1,NA
fcp-trial,52,550089,0.0-27.0-0.0,voc_e2,11750,"[{""event"":""fullscreenenter"",""trial"":1,""time"":1847}]",NA,NA,NA,NA,NA,5,#3386FF,#D89F1C,0,10,0,40,0,1665.199999988079,39,0,767.2999999821186,10,1,experiment,NA,NA,0,0.1,0.9,1,0,19,1,NA
fcp-trial,53,555000,0.0-28.0-0.0,voc_e2,11750,"[{""event"":""fullscreenenter"",""trial"":1,""time"":1847}]",NA,NA,NA,NA,NA,2,#1CD855,#FA92F8,0,10,1,38,1,3024.5999999940395,37,1,383.19999998807907,0,1,experiment,NA,NA,1,0.7,0.3,2,3,20,1,NA
fcp-trial,54,560520,0.0-29.0-0.0,voc_e2,11750,"[{""event"":""fullscreenenter"",""trial"":1,""time"":1847}]",NA,NA,NA,NA,NA,5,#741CD8,#D8271C,10,10,1,40,0,2609.399999976158,39,0,1407,10,0,experiment,NA,NA,2,0.5,0.5,4,5,21,1,NA
fcp-trial,55,566361,0.0-30.0-0.0,voc_e2,11750,"[{""event"":""fullscreenenter"",""trial"":1,""time"":1847}]",NA,NA,NA,NA,NA,5,#741CD8,#D8271C,10,0,1,40,0,3424.399999976158,39,0,911.6999999880791,0,0,experiment,NA,NA,2,0.5,0.5,4,5,22,1,NA
fcp-trial,56,571256,0.0-31.0-0.0,voc_e2,11750,"[{""event"":""fullscreenenter"",""trial"":1,""time"":1847}]",NA,NA,NA,NA,NA,2,#FA92F8,#1CD855,0,0,0,40,0,2335.7999999821186,37,1,1055.9000000059605,0,0,experiment,NA,NA,1,0.3,0.7,3,2,23,1,NA
fcp-trial,57,575305,0.0-32.0-0.0,voc_e2,11750,"[{""event"":""fullscreenenter"",""trial"":1,""time"":1847}]",NA,NA,NA,NA,NA,5,#1CD855,#FA92F8,10,0,1,40,0,1728.9000000059605,37,1,814.1999999880791,10,1,experiment,NA,NA,1,0.7,0.3,2,3,24,1,NA
fcp-trial,58,580936,0.0-33.0-0.0,voc_e2,11750,"[{""event"":""fullscreenenter"",""trial"":1,""time"":1847}]",NA,NA,NA,NA,NA,0,#3386FF,#D89F1C,0,0,0,40,0,2768.5,39,0,1358.4000000059605,0,1,experiment,NA,NA,0,0.1,0.9,1,0,25,1,NA
fcp-trial,59,586601,0.0-34.0-0.0,voc_e2,11750,"[{""event"":""fullscreenenter"",""trial"":1,""time"":1847}]",NA,NA,NA,NA,NA,6,#D89F1C,#3386FF,10,0,1,40,0,2944.0999999940395,37,1,1214.800000011921,10,1,experiment,NA,NA,0,0.9,0.1,0,1,26,1,NA
fcp-trial,60,590808,0.0-35.0-0.0,voc_e2,11750,"[{""event"":""fullscreenenter"",""trial"":1,""time"":1847}]",NA,NA,NA,NA,NA,2,#D8271C,#741CD8,10,10,0,40,0,1936.699999988079,39,0,767.2999999821186,10,1,experiment,NA,NA,2,0.5,0.5,5,4,27,1,NA
fcp-trial,61,595896,0.0-36.0-0.0,voc_e2,11750,"[{""event"":""fullscreenenter"",""trial"":1,""time"":1847}]",NA,NA,NA,NA,NA,3,#1CD855,#FA92F8,10,0,1,40,0,2769.300000011921,37,1,815.0999999940395,10,1,experiment,NA,NA,1,0.7,0.3,2,3,28,1,NA
fcp-trial,62,600344,0.0-37.0-0.0,voc_e2,11750,"[{""event"":""fullscreenenter"",""trial"":1,""time"":1847}]",NA,NA,NA,NA,NA,1,#1CD855,#FA92F8,10,0,1,38,1,2497.4000000059605,37,1,446,10,1,experiment,NA,NA,1,0.7,0.3,2,3,29,1,NA
fcp-trial,63,605225,0.0-38.0-0.0,voc_e2,11750,"[{""event"":""fullscreenenter"",""trial"":1,""time"":1847}]",NA,NA,NA,NA,NA,1,#D8271C,#741CD8,0,0,0,40,0,2609.199999988079,37,1,766.0999999940395,0,0,experiment,NA,NA,2,0.5,0.5,5,4,30,1,NA
fcp-trial,64,610952,0.0-39.0-0.0,voc_e2,11750,"[{""event"":""fullscreenenter"",""trial"":1,""time"":1847}]",NA,NA,NA,NA,NA,2,#D89F1C,#3386FF,10,0,1,40,0,3184.699999988079,39,0,1039.199999988079,0,0,experiment,NA,NA,0,0.9,0.1,0,1,31,1,NA
fcp-trial,65,616104,0.0-40.0-0.0,voc_e2,11750,"[{""event"":""fullscreenenter"",""trial"":1,""time"":1847}]",NA,NA,NA,NA,NA,4,#1CD855,#FA92F8,10,0,1,40,0,2433.2999999821186,39,0,1216.1000000238419,0,0,experiment,NA,NA,1,0.7,0.3,2,3,32,1,NA
fcp-trial,66,620968,0.0-41.0-0.0,voc_e2,11750,"[{""event"":""fullscreenenter"",""trial"":1,""time"":1847}]",NA,NA,NA,NA,NA,0,#D8271C,#741CD8,0,0,0,38,1,2304.699999988079,39,0,1054,0,1,experiment,NA,NA,2,0.5,0.5,5,4,33,1,NA
fcp-trial,67,626040,0.0-42.0-0.0,voc_e2,11750,"[{""event"":""fullscreenenter"",""trial"":1,""time"":1847}]",NA,NA,NA,NA,NA,5,#3386FF,#D89F1C,0,0,0,40,0,2801.199999988079,37,1,767.2999999821186,0,0,experiment,NA,NA,0,0.1,0.9,1,0,34,1,NA
fcp-trial,68,629689,0.0-43.0-0.0,voc_e2,11750,"[{""event"":""fullscreenenter"",""trial"":1,""time"":1847}]",NA,NA,NA,NA,NA,4,#3386FF,#D89F1C,0,10,0,40,0,1489.5,37,1,655.2999999821186,0,0,experiment,NA,NA,0,0.1,0.9,1,0,35,1,NA
fcp-trial,69,633511,0.0-44.0-0.0,voc_e2,11750,"[{""event"":""fullscreenenter"",""trial"":1,""time"":1847}]",NA,NA,NA,NA,NA,6,#1CD855,#FA92F8,10,10,1,40,0,1504.4000000059605,37,1,815.5999999940395,10,1,experiment,NA,NA,1,0.7,0.3,2,3,36,1,NA
fcp-trial,70,638343,0.0-45.0-0.0,voc_e2,11750,"[{""event"":""fullscreenenter"",""trial"":1,""time"":1847}]",NA,NA,NA,NA,NA,4,#741CD8,#D8271C,10,10,1,40,0,2193.5999999940395,37,1,1133.800000011921,10,1,experiment,NA,NA,2,0.5,0.5,4,5,37,1,NA
fcp-trial,71,642104,0.0-46.0-0.0,voc_e2,11750,"[{""event"":""fullscreenenter"",""trial"":1,""time"":1847}]",NA,NA,NA,NA,NA,0,#1CD855,#FA92F8,10,10,1,38,1,1713.5999999940395,37,1,543.7999999821186,10,1,experiment,NA,NA,1,0.7,0.3,2,3,38,1,NA
fcp-trial,72,648024,0.0-47.0-0.0,voc_e2,11750,"[{""event"":""fullscreenenter"",""trial"":1,""time"":1847}]",NA,NA,NA,NA,NA,6,#741CD8,#D8271C,0,10,1,40,0,2672.699999988079,37,1,1743.5999999940395,0,1,experiment,NA,NA,2,0.5,0.5,4,5,39,1,NA
fcp-trial,73,653112,0.0-48.0-0.0,voc_e2,11750,"[{""event"":""fullscreenenter"",""trial"":1,""time"":1847}]",NA,NA,NA,NA,NA,1,#D89F1C,#3386FF,10,0,1,38,1,2177.399999976158,39,0,1407.0999999940395,0,0,experiment,NA,NA,0,0.9,0.1,0,1,40,1,NA
fcp-trial,74,659176,0.0-49.0-0.0,voc_e2,11750,"[{""event"":""fullscreenenter"",""trial"":1,""time"":1847}]",NA,NA,NA,NA,NA,3,#D89F1C,#3386FF,0,0,1,40,0,2704.9000000059605,39,0,1854.5999999940395,0,0,experiment,NA,NA,0,0.9,0.1,0,1,41,1,NA
fcp-trial,75,664056,0.0-50.0-0.0,voc_e2,11750,"[{""event"":""fullscreenenter"",""trial"":1,""time"":1847}]",NA,NA,NA,NA,NA,3,#741CD8,#D8271C,0,0,1,40,0,2688.699999988079,39,0,687,0,0,experiment,NA,NA,2,0.5,0.5,4,5,42,1,NA
fcp-trial,76,669625,0.0-51.0-0.0,voc_e2,11750,"[{""event"":""fullscreenenter"",""trial"":1,""time"":1847}]",NA,NA,NA,NA,NA,4,#3386FF,#D89F1C,0,10,0,40,0,2911.899999976158,37,1,1150.7999999821186,0,0,experiment,NA,NA,0,0.1,0.9,1,0,43,1,NA
fcp-trial,77,675303,0.0-52.0-0.0,voc_e2,11750,"[{""event"":""fullscreenenter"",""trial"":1,""time"":1847}]",NA,NA,NA,NA,NA,5,#FA92F8,#1CD855,10,0,0,40,0,2879.5,39,0,1295.8999999761581,0,1,experiment,NA,NA,1,0.3,0.7,3,2,44,1,NA
fcp-trial,78,680088,0.0-53.0-0.0,voc_e2,11750,"[{""event"":""fullscreenenter"",""trial"":1,""time"":1847}]",NA,NA,NA,NA,NA,1,#D89F1C,#3386FF,10,0,1,38,1,2368.5999999940395,37,1,911.7000000178814,10,1,experiment,NA,NA,0,0.9,0.1,0,1,45,1,NA
fcp-trial,79,684167,0.0-54.0-0.0,voc_e2,11750,"[{""event"":""fullscreenenter"",""trial"":1,""time"":1847}]",NA,NA,NA,NA,NA,2,#741CD8,#D8271C,0,0,1,40,0,1568.4000000059605,37,1,1007.4000000059605,0,1,experiment,NA,NA,2,0.5,0.5,4,5,46,2,NA
fcp-trial,80,689415,0.0-55.0-0.0,voc_e2,11750,"[{""event"":""fullscreenenter"",""trial"":1,""time"":1847}]",NA,NA,NA,NA,NA,0,#FA92F8,#1CD855,0,0,0,38,1,2609.300000011921,39,0,1134.9000000059605,0,1,experiment,NA,NA,1,0.3,0.7,3,2,47,2,NA
fcp-trial,81,694552,0.0-56.0-0.0,voc_e2,11750,"[{""event"":""fullscreenenter"",""trial"":1,""time"":1847}]",NA,NA,NA,NA,NA,0,#D8271C,#741CD8,10,0,0,40,0,2945.7999999821186,39,0,686.5999999940395,0,1,experiment,NA,NA,2,0.5,0.5,5,4,48,2,NA
fcp-trial,82,698312,0.0-57.0-0.0,voc_e2,11750,"[{""event"":""fullscreenenter"",""trial"":1,""time"":1847}]",NA,NA,NA,NA,NA,1,#FA92F8,#1CD855,0,10,0,40,0,1679.9000000059605,39,0,575.6999999880791,10,1,experiment,NA,NA,1,0.3,0.7,3,2,49,2,NA
fcp-trial,83,703976,0.0-58.0-0.0,voc_e2,11750,"[{""event"":""fullscreenenter"",""trial"":1,""time"":1847}]",NA,NA,NA,NA,NA,3,#3386FF,#D89F1C,0,10,0,40,0,1745.199999988079,39,0,2414.9000000059605,10,1,experiment,NA,NA,0,0.1,0.9,1,0,50,2,NA
fcp-trial,84,708231,0.0-59.0-0.0,voc_e2,11750,"[{""event"":""fullscreenenter"",""trial"":1,""time"":1847}]",NA,NA,NA,NA,NA,3,#1CD855,#FA92F8,10,0,1,40,0,2001,39,0,751.4000000059605,0,0,experiment,NA,NA,1,0.7,0.3,2,3,51,2,NA
fcp-trial,85,711848,0.0-60.0-0.0,voc_e2,11750,"[{""event"":""fullscreenenter"",""trial"":1,""time"":1847}]",NA,NA,NA,NA,NA,3,#741CD8,#D8271C,10,10,1,40,0,1217.4000000059605,37,1,895.5999999940395,10,1,experiment,NA,NA,2,0.5,0.5,4,5,52,2,NA
fcp-trial,86,716792,0.0-61.0-0.0,voc_e2,11750,"[{""event"":""fullscreenenter"",""trial"":1,""time"":1847}]",NA,NA,NA,NA,NA,5,#D89F1C,#3386FF,10,0,1,40,0,2624.7999999821186,37,1,815,10,1,experiment,NA,NA,0,0.9,0.1,0,1,53,2,NA
fcp-trial,87,724824,0.0-62.0-0.0,voc_e2,11750,"[{""event"":""fullscreenenter"",""trial"":1,""time"":1847}]",NA,NA,NA,NA,NA,4,#1CD855,#FA92F8,0,0,1,40,0,2576.5,37,1,3951,0,1,experiment,NA,NA,1,0.7,0.3,2,3,54,2,NA
fcp-trial,88,728440,0.0-63.0-0.0,voc_e2,11750,"[{""event"":""fullscreenenter"",""trial"":1,""time"":1847}]",NA,NA,NA,NA,NA,4,#741CD8,#D8271C,10,10,1,40,0,1249.0999999940395,37,1,863,10,1,experiment,NA,NA,2,0.5,0.5,4,5,55,2,NA
fcp-trial,89,733864,0.0-64.0-0.0,voc_e2,11750,"[{""event"":""fullscreenenter"",""trial"":1,""time"":1847}]",NA,NA,NA,NA,NA,0,#D89F1C,#3386FF,10,0,1,38,1,3392.800000011921,39,0,527.6999999880791,0,0,experiment,NA,NA,0,0.9,0.1,0,1,56,2,NA
fcp-trial,90,739175,0.0-65.0-0.0,voc_e2,11750,"[{""event"":""fullscreenenter"",""trial"":1,""time"":1847}]",NA,NA,NA,NA,NA,6,#D8271C,#741CD8,10,0,0,40,0,2256.9000000059605,39,0,1550.9000000059605,0,1,experiment,NA,NA,2,0.5,0.5,5,4,57,2,NA
fcp-trial,91,743496,0.0-66.0-0.0,voc_e2,11750,"[{""event"":""fullscreenenter"",""trial"":1,""time"":1847}]",NA,NA,NA,NA,NA,6,#3386FF,#D89F1C,0,10,0,40,0,1873.199999988079,37,1,943.2000000178814,0,0,experiment,NA,NA,0,0.1,0.9,1,0,58,2,NA
fcp-trial,92,747608,0.0-67.0-0.0,voc_e2,11750,"[{""event"":""fullscreenenter"",""trial"":1,""time"":1847}]",NA,NA,NA,NA,NA,6,#FA92F8,#1CD855,0,10,0,40,0,1505.1000000238419,37,1,1103,0,0,experiment,NA,NA,1,0.3,0.7,3,2,59,2,NA
fcp-trial,93,752361,0.0-68.0-0.0,voc_e2,11750,"[{""event"":""fullscreenenter"",""trial"":1,""time"":1847}]",NA,NA,NA,NA,NA,1,#D8271C,#741CD8,10,0,0,38,1,2256.5999999940395,39,0,990.7000000178814,0,1,experiment,NA,NA,2,0.5,0.5,5,4,60,2,NA
fcp-trial,94,761144,0.0-69.0-0.0,voc_e2,11750,"[{""event"":""fullscreenenter"",""trial"":1,""time"":1847}]",NA,NA,NA,NA,NA,2,#1CD855,#FA92F8,10,0,1,40,0,4335.5999999940395,37,1,2942.800000011921,10,1,experiment,NA,NA,1,0.7,0.3,2,3,61,2,NA
fcp-trial,95,766824,0.0-70.0-0.0,voc_e2,11750,"[{""event"":""fullscreenenter"",""trial"":1,""time"":1847}]",NA,NA,NA,NA,NA,2,#D89F1C,#3386FF,10,0,1,40,0,2945.4000000059605,39,0,1230.9000000059605,0,0,experiment,NA,NA,0,0.9,0.1,0,1,62,2,NA
fcp-trial,96,772247,0.0-71.0-0.0,voc_e2,11750,"[{""event"":""fullscreenenter"",""trial"":1,""time"":1847}]",NA,NA,NA,NA,NA,5,#D8271C,#741CD8,10,0,0,40,0,2849.0999999940395,37,1,1070.2000000178814,10,0,experiment,NA,NA,2,0.5,0.5,5,4,63,2,NA
fcp-trial,97,776760,0.0-72.0-0.0,voc_e2,11750,"[{""event"":""fullscreenenter"",""trial"":1,""time"":1847}]",NA,NA,NA,NA,NA,4,#1CD855,#FA92F8,10,0,1,40,0,1696.9000000059605,39,0,1311.300000011921,0,0,experiment,NA,NA,1,0.7,0.3,2,3,64,2,NA
fcp-trial,98,786968,0.0-73.0-0.0,voc_e2,11750,"[{""event"":""fullscreenenter"",""trial"":1,""time"":1847}]",NA,NA,NA,NA,NA,4,#D89F1C,#3386FF,10,0,1,40,0,2320.9000000059605,39,0,6383.0999999940395,0,0,experiment,NA,NA,0,0.9,0.1,0,1,65,2,NA
fcp-trial,99,790439,0.0-74.0-0.0,voc_e2,11750,"[{""event"":""fullscreenenter"",""trial"":1,""time"":1847}]",NA,NA,NA,NA,NA,4,#D8271C,#741CD8,10,10,0,40,0,1264.7000000178814,39,0,703.0999999940395,10,1,experiment,NA,NA,2,0.5,0.5,5,4,66,2,NA
fcp-trial,100,794327,0.0-75.0-0.0,voc_e2,11750,"[{""event"":""fullscreenenter"",""trial"":1,""time"":1847}]",NA,NA,NA,NA,NA,2,#FA92F8,#1CD855,0,10,0,40,0,1697.4000000059605,37,1,687.5999999940395,0,0,experiment,NA,NA,1,0.3,0.7,3,2,67,2,NA
fcp-trial,101,797463,0.0-76.0-0.0,voc_e2,11750,"[{""event"":""fullscreenenter"",""trial"":1,""time"":1847}]",NA,NA,NA,NA,NA,0,#D8271C,#741CD8,10,10,0,40,0,641.8000000119209,39,0,991.3000000119209,10,1,experiment,NA,NA,2,0.5,0.5,5,4,68,2,NA
fcp-trial,102,803369,0.0-77.0-0.0,voc_e2,11750,"[{""event"":""fullscreenenter"",""trial"":1,""time"":1847}]",NA,NA,NA,NA,NA,2,#3386FF,#D89F1C,0,10,0,40,0,1777.300000011921,37,1,2621.5999999940395,0,0,experiment,NA,NA,0,0.1,0.9,1,0,69,2,NA
fcp-trial,103,807641,0.0-78.0-0.0,voc_e2,11750,"[{""event"":""fullscreenenter"",""trial"":1,""time"":1847}]",NA,NA,NA,NA,NA,6,#1CD855,#FA92F8,10,10,1,40,0,1583,37,1,1183.800000011921,10,1,experiment,NA,NA,1,0.7,0.3,2,3,70,2,NA
fcp-trial,104,812728,0.0-79.0-0.0,voc_e2,11750,"[{""event"":""fullscreenenter"",""trial"":1,""time"":1847}]",NA,NA,NA,NA,NA,3,#D89F1C,#3386FF,0,0,1,40,0,1615.5,37,1,1966.800000011921,0,1,experiment,NA,NA,0,0.9,0.1,0,1,71,2,NA
fcp-trial,105,816776,0.0-80.0-0.0,voc_e2,11750,"[{""event"":""fullscreenenter"",""trial"":1,""time"":1847}]",NA,NA,NA,NA,NA,6,#D89F1C,#3386FF,10,10,1,40,0,1328.2000000178814,37,1,1214.7000000178814,10,1,experiment,NA,NA,0,0.9,0.1,0,1,72,2,NA
fcp-trial,106,820664,0.0-81.0-0.0,voc_e2,11750,"[{""event"":""fullscreenenter"",""trial"":1,""time"":1847}]",NA,NA,NA,NA,NA,2,#741CD8,#D8271C,0,0,1,40,0,1617,39,0,766.0999999940395,0,0,experiment,NA,NA,2,0.5,0.5,4,5,73,2,NA
fcp-trial,107,825175,0.0-82.0-0.0,voc_e2,11750,"[{""event"":""fullscreenenter"",""trial"":1,""time"":1847}]",NA,NA,NA,NA,NA,1,#FA92F8,#1CD855,10,10,0,40,0,2128.800000011921,39,0,878.5,10,1,experiment,NA,NA,1,0.3,0.7,3,2,74,2,NA
fcp-trial,108,832264,0.0-83.0-0.0,voc_e2,11750,"[{""event"":""fullscreenenter"",""trial"":1,""time"":1847}]",NA,NA,NA,NA,NA,3,#741CD8,#D8271C,10,10,1,40,0,4817.4000000059605,37,1,767.2000000178814,10,1,experiment,NA,NA,2,0.5,0.5,4,5,75,2,NA
fcp-trial,109,837128,0.0-84.0-0.0,voc_e2,11750,"[{""event"":""fullscreenenter"",""trial"":1,""time"":1847}]",NA,NA,NA,NA,NA,5,#D8271C,#741CD8,0,0,0,40,0,1505.0999999940395,39,0,1855.3999999761581,0,1,experiment,NA,NA,2,0.5,0.5,5,4,76,2,NA
fcp-trial,110,844536,0.0-85.0-0.0,voc_e2,11750,"[{""event"":""fullscreenenter"",""trial"":1,""time"":1847}]",NA,NA,NA,NA,NA,0,#D89F1C,#3386FF,10,0,1,38,1,3120.7999999821186,39,0,2782.9000000059605,0,0,experiment,NA,NA,0,0.9,0.1,0,1,77,2,NA
fcp-trial,111,852216,0.0-86.0-0.0,voc_e2,11750,"[{""event"":""fullscreenenter"",""trial"":1,""time"":1847}]",NA,NA,NA,NA,NA,3,#1CD855,#FA92F8,10,0,1,40,0,3983.600000023842,39,0,2190.7000000178814,0,0,experiment,NA,NA,1,0.7,0.3,2,3,78,2,NA
fcp-trial,112,856041,0.0-87.0-0.0,voc_e2,11750,"[{""event"":""fullscreenenter"",""trial"":1,""time"":1847}]",NA,NA,NA,NA,NA,1,#D89F1C,#3386FF,10,10,1,40,0,1584.5,39,0,734.8000000119209,10,0,experiment,NA,NA,0,0.9,0.1,0,1,79,2,NA
fcp-trial,113,866216,0.0-88.0-0.0,voc_e2,11750,"[{""event"":""fullscreenenter"",""trial"":1,""time"":1847}]",NA,NA,NA,NA,NA,1,#D8271C,#741CD8,10,0,0,40,0,7487.800000011921,37,1,1183.5,10,0,experiment,NA,NA,2,0.5,0.5,5,4,80,2,NA
fcp-trial,114,870663,0.0-89.0-0.0,voc_e2,11750,"[{""event"":""fullscreenenter"",""trial"":1,""time"":1847}]",NA,NA,NA,NA,NA,5,#D89F1C,#3386FF,10,0,1,40,0,1632.5999999940395,37,1,1310.1000000238419,10,1,experiment,NA,NA,0,0.9,0.1,0,1,81,2,NA
fcp-trial,115,875399,0.0-90.0-0.0,voc_e2,11750,"[{""event"":""fullscreenenter"",""trial"":1,""time"":1847}]",NA,NA,NA,NA,NA,0,#1CD855,#FA92F8,10,0,1,38,1,1905.1000000238419,39,0,1327.4000000059605,0,0,experiment,NA,NA,1,0.7,0.3,2,3,82,2,NA
fcp-trial,116,880967,0.0-91.0-0.0,voc_e2,11750,"[{""event"":""fullscreenenter"",""trial"":1,""time"":1847}]",NA,NA,NA,NA,NA,6,#D8271C,#741CD8,0,10,0,40,0,1553.0999999940395,37,1,2510,0,0,experiment,NA,NA,2,0.5,0.5,5,4,83,2,NA
fcp-trial,117,885896,0.0-92.0-0.0,voc_e2,11750,"[{""event"":""fullscreenenter"",""trial"":1,""time"":1847}]",NA,NA,NA,NA,NA,5,#FA92F8,#1CD855,0,10,0,40,0,2144.5999999940395,39,0,1279.2000000178814,10,1,experiment,NA,NA,1,0.3,0.7,3,2,84,2,NA
fcp-trial,118,890584,0.0-93.0-0.0,voc_e2,11750,"[{""event"":""fullscreenenter"",""trial"":1,""time"":1847}]",NA,NA,NA,NA,NA,2,#741CD8,#D8271C,0,10,1,40,0,1744.7000000178814,39,0,1438.8999999761581,10,0,experiment,NA,NA,2,0.5,0.5,4,5,85,2,NA
fcp-trial,119,895303,0.0-94.0-0.0,voc_e2,11750,"[{""event"":""fullscreenenter"",""trial"":1,""time"":1847}]",NA,NA,NA,NA,NA,0,#3386FF,#D89F1C,0,10,0,40,0,2128.5999999940395,37,1,1087.5999999940395,0,0,experiment,NA,NA,0,0.1,0.9,1,0,86,2,NA
fcp-trial,120,905063,0.0-95.0-0.0,voc_e2,11750,"[{""event"":""fullscreenenter"",""trial"":1,""time"":1847}]",NA,NA,NA,NA,NA,1,#FA92F8,#1CD855,10,10,0,40,0,7376.800000011921,37,1,878.5999999940395,10,0,experiment,NA,NA,1,0.3,0.7,3,2,87,2,NA
fcp-trial,121,910599,0.0-96.0-0.0,voc_e2,11750,"[{""event"":""fullscreenenter"",""trial"":1,""time"":1847}]",NA,NA,NA,NA,NA,6,#D89F1C,#3386FF,10,0,1,40,0,2080.9000000059605,37,1,1950.7999999821186,10,1,experiment,NA,NA,0,0.9,0.1,0,1,88,2,NA
fcp-trial,122,915719,0.0-97.0-0.0,voc_e2,11750,"[{""event"":""fullscreenenter"",""trial"":1,""time"":1847}]",NA,NA,NA,NA,NA,1,#741CD8,#D8271C,0,0,1,40,0,1569.699999988079,39,0,2047.5999999940395,0,0,experiment,NA,NA,2,0.5,0.5,4,5,89,2,NA
fcp-trial,123,925543,0.0-98.0-0.0,voc_e2,11750,"[{""event"":""fullscreenenter"",""trial"":1,""time"":1847}]",NA,NA,NA,NA,NA,0,#D8271C,#741CD8,10,10,0,38,1,6896.199999988079,39,0,1423.199999988079,10,1,experiment,NA,NA,2,0.5,0.5,5,4,90,2,NA
fcp-trial,124,929719,0.0-99.0-0.0,voc_e2,11750,"[{""event"":""fullscreenenter"",""trial"":1,""time"":1847}]",NA,NA,NA,NA,NA,5,#FA92F8,#1CD855,0,10,0,40,0,1665.5,37,1,1007.5,0,0,experiment,NA,NA,1,0.3,0.7,3,2,91,3,NA
fcp-trial,125,934215,0.0-100.0-0.0,voc_e2,11750,"[{""event"":""fullscreenenter"",""trial"":1,""time"":1847}]",NA,NA,NA,NA,NA,3,#3386FF,#D89F1C,0,10,0,40,0,2016.4000000059605,39,0,975,10,1,experiment,NA,NA,0,0.1,0.9,1,0,92,3,NA
fcp-trial,126,939256,0.0-101.0-0.0,voc_e2,11750,"[{""event"":""fullscreenenter"",""trial"":1,""time"":1847}]",NA,NA,NA,NA,NA,6,#FA92F8,#1CD855,10,0,0,40,0,2000.8999999761581,37,1,1535.2000000178814,10,0,experiment,NA,NA,1,0.3,0.7,3,2,93,3,NA
fcp-trial,127,945625,0.0-102.0-0.0,voc_e2,11750,"[{""event"":""fullscreenenter"",""trial"":1,""time"":1847}]",NA,NA,NA,NA,NA,3,#D8271C,#741CD8,10,0,0,40,0,2656.4000000059605,37,1,2206.100000023842,10,0,experiment,NA,NA,2,0.5,0.5,5,4,94,3,NA
fcp-trial,128,950631,0.0-103.0-0.0,voc_e2,11750,"[{""event"":""fullscreenenter"",""trial"":1,""time"":1847}]",NA,NA,NA,NA,NA,1,#3386FF,#D89F1C,10,10,0,40,0,2447.5999999940395,39,0,1055.5,10,1,experiment,NA,NA,0,0.1,0.9,1,0,95,3,NA
fcp-trial,129,955607,0.0-104.0-0.0,voc_e2,11750,"[{""event"":""fullscreenenter"",""trial"":1,""time"":1847}]",NA,NA,NA,NA,NA,5,#D8271C,#741CD8,10,10,0,40,0,1633,37,1,1839.199999988079,10,0,experiment,NA,NA,2,0.5,0.5,5,4,96,3,NA
fcp-trial,130,961159,0.0-105.0-0.0,voc_e2,11750,"[{""event"":""fullscreenenter"",""trial"":1,""time"":1847}]",NA,NA,NA,NA,NA,3,#FA92F8,#1CD855,0,10,0,40,0,2017.3999999761581,37,1,2031.4000000059605,0,0,experiment,NA,NA,1,0.3,0.7,3,2,97,3,NA
fcp-trial,131,965464,0.0-106.0-0.0,voc_e2,11750,"[{""event"":""fullscreenenter"",""trial"":1,""time"":1847}]",NA,NA,NA,NA,NA,2,#3386FF,#D89F1C,0,10,0,40,0,1409.5,37,1,1389.5999999940395,0,0,experiment,NA,NA,0,0.1,0.9,1,0,98,3,NA
fcp-trial,132,980467,0.0-107.0-0.0,voc_e2,11750,"[{""event"":""fullscreenenter"",""trial"":1,""time"":1847}]",NA,NA,NA,NA,NA,4,#741CD8,#D8271C,10,0,1,null,null,null,null,null,null,NA,0,experiment,NA,NA,2,0.5,0.5,4,5,99,3,NA
fcp-trial,133,984732,0.0-108.0-0.0,voc_e2,11750,"[{""event"":""fullscreenenter"",""trial"":1,""time"":1847}]",NA,NA,NA,NA,NA,4,#FA92F8,#1CD855,0,10,0,40,0,1780,39,0,974.6999999880791,10,1,experiment,NA,NA,1,0.3,0.7,3,2,100,3,NA
fcp-trial,134,988360,0.0-109.0-0.0,voc_e2,11750,"[{""event"":""fullscreenenter"",""trial"":1,""time"":1847}]",NA,NA,NA,NA,NA,6,#741CD8,#D8271C,0,0,1,40,0,1244.5999999940395,39,0,878.0999999940395,0,0,experiment,NA,NA,2,0.5,0.5,4,5,101,3,NA
fcp-trial,135,992039,0.0-110.0-0.0,voc_e2,11750,"[{""event"":""fullscreenenter"",""trial"":1,""time"":1847}]",NA,NA,NA,NA,NA,2,#FA92F8,#1CD855,10,10,0,40,0,1456,39,0,718.8999999761581,10,1,experiment,NA,NA,1,0.3,0.7,3,2,102,3,NA
fcp-trial,136,995256,0.0-111.0-0.0,voc_e2,11750,"[{""event"":""fullscreenenter"",""trial"":1,""time"":1847}]",NA,NA,NA,NA,NA,4,#3386FF,#D89F1C,0,10,0,40,0,865.1999999880791,37,1,847.4000000059605,0,0,experiment,NA,NA,0,0.1,0.9,1,0,103,3,NA
fcp-trial,137,998520,0.0-112.0-0.0,voc_e2,11750,"[{""event"":""fullscreenenter"",""trial"":1,""time"":1847}]",NA,NA,NA,NA,NA,0,#FA92F8,#1CD855,10,0,0,40,0,1024.4000000059605,37,1,735,10,0,experiment,NA,NA,1,0.3,0.7,3,2,104,3,NA
fcp-trial,138,1001735,0.0-113.0-0.0,voc_e2,11750,"[{""event"":""fullscreenenter"",""trial"":1,""time"":1847}]",NA,NA,NA,NA,NA,5,#D89F1C,#3386FF,10,0,1,40,0,1135.5999999940395,39,0,575.1999999880791,0,0,experiment,NA,NA,0,0.9,0.1,0,1,105,3,NA
audio-instructions,139,1432691,0.0-114.0,voc_e2,11750,"[{""event"":""fullscreenenter"",""trial"":1,""time"":1847}]",NA,426403.2999999821,static/audio/pause.wav,NA,0,NA,NA,NA,NA,NA,NA,NA,NA,NA,NA,NA,NA,NA,NA,NA,NA,NA,NA,NA,NA,NA,NA,NA,NA,NA
fcp-trial,140,1436439,0.0-115.0-0.0,voc_e2,11750,"[{""event"":""fullscreenenter"",""trial"":1,""time"":1847}]",NA,NA,NA,NA,NA,3,#D89F1C,#3386FF,0,0,1,40,0,1459.7000000178814,39,0,782.8999999761581,0,0,experiment,NA,NA,0,0.9,0.1,0,1,106,3,NA
fcp-trial,141,1439095,0.0-116.0-0.0,voc_e2,11750,"[{""event"":""fullscreenenter"",""trial"":1,""time"":1847}]",NA,NA,NA,NA,NA,5,#D89F1C,#3386FF,10,0,1,40,0,624.4000000059605,39,0,527.5999999940395,0,0,experiment,NA,NA,0,0.9,0.1,0,1,107,3,NA
fcp-trial,142,1442774,0.0-117.0-0.0,voc_e2,11750,"[{""event"":""fullscreenenter"",""trial"":1,""time"":1847}]",NA,NA,NA,NA,NA,2,#741CD8,#D8271C,10,10,1,40,0,1152.9000000059605,37,1,1023.5,10,1,experiment,NA,NA,2,0.5,0.5,4,5,108,3,NA
fcp-trial,143,1446215,0.0-118.0-0.0,voc_e2,11750,"[{""event"":""fullscreenenter"",""trial"":1,""time"":1847}]",NA,NA,NA,NA,NA,2,#FA92F8,#1CD855,0,0,0,40,0,1137.4000000059605,37,1,799.0999999940395,0,0,experiment,NA,NA,1,0.3,0.7,3,2,109,3,NA
fcp-trial,144,1449270,0.0-119.0-0.0,voc_e2,11750,"[{""event"":""fullscreenenter"",""trial"":1,""time"":1847}]",NA,NA,NA,NA,NA,4,#1CD855,#FA92F8,10,0,1,40,0,967.2000000178814,39,0,585.2000000178814,0,0,experiment,NA,NA,1,0.7,0.3,2,3,110,3,NA
fcp-trial,145,1453462,0.0-120.0-0.0,voc_e2,11750,"[{""event"":""fullscreenenter"",""trial"":1,""time"":1847}]",NA,NA,NA,NA,NA,1,#3386FF,#D89F1C,0,10,0,40,0,1456.199999988079,37,1,1229.800000011921,0,0,experiment,NA,NA,0,0.1,0.9,1,0,111,3,NA
fcp-trial,146,1457494,0.0-121.0-0.0,voc_e2,11750,"[{""event"":""fullscreenenter"",""trial"":1,""time"":1847}]",NA,NA,NA,NA,NA,3,#FA92F8,#1CD855,0,10,0,40,0,1457.300000011921,37,1,1071.5,0,0,experiment,NA,NA,1,0.3,0.7,3,2,112,3,NA
fcp-trial,147,1461543,0.0-122.0-0.0,voc_e2,11750,"[{""event"":""fullscreenenter"",""trial"":1,""time"":1847}]",NA,NA,NA,NA,NA,5,#741CD8,#D8271C,10,0,1,40,0,1520.9000000059605,39,0,1021.7999999821186,0,0,experiment,NA,NA,2,0.5,0.5,4,5,113,3,NA
fcp-trial,148,1465399,0.0-123.0-0.0,voc_e2,11750,"[{""event"":""fullscreenenter"",""trial"":1,""time"":1847}]",NA,NA,NA,NA,NA,2,#3386FF,#D89F1C,0,10,0,40,0,1377.0999999940395,39,0,974.5,10,1,experiment,NA,NA,0,0.1,0.9,1,0,114,3,NA
fcp-trial,149,1469047,0.0-124.0-0.0,voc_e2,11750,"[{""event"":""fullscreenenter"",""trial"":1,""time"":1847}]",NA,NA,NA,NA,NA,5,#FA92F8,#1CD855,0,10,0,40,0,1376.300000011921,37,1,767.5,0,0,experiment,NA,NA,1,0.3,0.7,3,2,115,3,NA
fcp-trial,150,1474375,0.0-125.0-0.0,voc_e2,11750,"[{""event"":""fullscreenenter"",""trial"":1,""time"":1847}]",NA,NA,NA,NA,NA,0,#1CD855,#FA92F8,10,0,1,40,0,2928.7000000178814,39,0,894.5999999940395,0,0,experiment,NA,NA,1,0.7,0.3,2,3,116,3,NA
fcp-trial,151,1477734,0.0-126.0-0.0,voc_e2,11750,"[{""event"":""fullscreenenter"",""trial"":1,""time"":1847}]",NA,NA,NA,NA,NA,6,#D8271C,#741CD8,10,10,0,40,0,1200.5999999940395,39,0,654.8000000119209,10,1,experiment,NA,NA,2,0.5,0.5,5,4,117,3,NA
fcp-trial,152,1481398,0.0-127.0-0.0,voc_e2,11750,"[{""event"":""fullscreenenter"",""trial"":1,""time"":1847}]",NA,NA,NA,NA,NA,6,#3386FF,#D89F1C,0,10,0,40,0,1377,39,0,782.7000000178814,10,1,experiment,NA,NA,0,0.1,0.9,1,0,118,3,NA
fcp-trial,153,1484792,0.0-128.0-0.0,voc_e2,11750,"[{""event"":""fullscreenenter"",""trial"":1,""time"":1847}]",NA,NA,NA,NA,NA,1,#D8271C,#741CD8,0,10,0,40,0,1201.300000011921,39,0,686.8000000119209,10,1,experiment,NA,NA,2,0.5,0.5,5,4,119,3,NA
fcp-trial,154,1490119,0.0-129.0-0.0,voc_e2,11750,"[{""event"":""fullscreenenter"",""trial"":1,""time"":1847}]",NA,NA,NA,NA,NA,4,#3386FF,#D89F1C,0,10,0,40,0,2079.699999988079,39,0,1743,10,1,experiment,NA,NA,0,0.1,0.9,1,0,120,3,NA
fcp-trial,155,1493734,0.0-130.0-0.0,voc_e2,11750,"[{""event"":""fullscreenenter"",""trial"":1,""time"":1847}]",NA,NA,NA,NA,NA,1,#1CD855,#FA92F8,10,0,1,40,0,1152.0999999940395,37,1,959.5,10,1,experiment,NA,NA,1,0.7,0.3,2,3,121,3,NA
fcp-trial,156,1498374,0.0-131.0-0.0,voc_e2,11750,"[{""event"":""fullscreenenter"",""trial"":1,""time"":1847}]",NA,NA,NA,NA,NA,3,#741CD8,#D8271C,0,0,1,40,0,2352.4000000059605,39,0,783.4000000059605,0,0,experiment,NA,NA,2,0.5,0.5,4,5,122,3,NA
fcp-trial,157,1502150,0.0-132.0-0.0,voc_e2,11750,"[{""event"":""fullscreenenter"",""trial"":1,""time"":1847}]",NA,NA,NA,NA,NA,0,#D89F1C,#3386FF,10,10,1,40,0,1329.4000000059605,39,0,943.4000000059605,10,0,experiment,NA,NA,0,0.9,0.1,0,1,123,3,NA
fcp-trial,158,1505750,0.0-133.0-0.0,voc_e2,11750,"[{""event"":""fullscreenenter"",""trial"":1,""time"":1847}]",NA,NA,NA,NA,NA,0,#741CD8,#D8271C,10,10,1,40,0,1345.199999988079,37,1,749.9000000059605,10,1,experiment,NA,NA,2,0.5,0.5,4,5,124,3,NA
fcp-trial,159,1509574,0.0-134.0-0.0,voc_e2,11750,"[{""event"":""fullscreenenter"",""trial"":1,""time"":1847}]",NA,NA,NA,NA,NA,6,#1CD855,#FA92F8,10,0,1,40,0,1472.5999999940395,37,1,846.5999999940395,10,1,experiment,NA,NA,1,0.7,0.3,2,3,125,3,NA
fcp-trial,160,1514039,0.0-135.0-0.0,voc_e2,11750,"[{""event"":""fullscreenenter"",""trial"":1,""time"":1847}]",NA,NA,NA,NA,NA,4,#D8271C,#741CD8,0,10,0,40,0,1792.9000000059605,39,0,1167.6000000238419,10,1,experiment,NA,NA,2,0.5,0.5,5,4,126,3,NA
fcp-trial,161,1517607,0.0-136.0-0.0,voc_e2,11750,"[{""event"":""fullscreenenter"",""trial"":1,""time"":1847}]",NA,NA,NA,NA,NA,6,#1CD855,#FA92F8,10,0,1,40,0,1215.7000000178814,37,1,846.7000000178814,10,1,experiment,NA,NA,1,0.7,0.3,2,3,127,3,NA
fcp-trial,162,1522342,0.0-137.0-0.0,voc_e2,11750,"[{""event"":""fullscreenenter"",""trial"":1,""time"":1847}]",NA,NA,NA,NA,NA,4,#741CD8,#D8271C,10,10,1,40,0,2480.9000000059605,39,0,751.1000000238419,10,0,experiment,NA,NA,2,0.5,0.5,4,5,128,3,NA
fcp-trial,163,1526215,0.0-138.0-0.0,voc_e2,11750,"[{""event"":""fullscreenenter"",""trial"":1,""time"":1847}]",NA,NA,NA,NA,NA,5,#D89F1C,#3386FF,10,0,1,40,0,1506.2000000178814,37,1,863.9000000059605,10,1,experiment,NA,NA,0,0.9,0.1,0,1,129,3,NA
fcp-trial,164,1532278,0.0-139.0-0.0,voc_e2,11750,"[{""event"":""fullscreenenter"",""trial"":1,""time"":1847}]",NA,NA,NA,NA,NA,4,#FA92F8,#1CD855,0,0,0,40,0,1792,37,1,2766.100000023842,0,0,experiment,NA,NA,1,0.3,0.7,3,2,130,3,NA
fcp-trial,165,1536615,0.0-140.0-0.0,voc_e2,11750,"[{""event"":""fullscreenenter"",""trial"":1,""time"":1847}]",NA,NA,NA,NA,NA,6,#3386FF,#D89F1C,0,10,0,40,0,1985.4000000059605,37,1,847.5,0,0,experiment,NA,NA,0,0.1,0.9,1,0,131,3,NA
fcp-trial,166,1540614,0.0-141.0-0.0,voc_e2,11750,"[{""event"":""fullscreenenter"",""trial"":1,""time"":1847}]",NA,NA,NA,NA,NA,1,#741CD8,#D8271C,10,0,1,40,0,1488.699999988079,37,1,1006.5,10,1,experiment,NA,NA,2,0.5,0.5,4,5,132,3,NA
fcp-trial,167,1544823,0.0-142.0-0.0,voc_e2,11750,"[{""event"":""fullscreenenter"",""trial"":1,""time"":1847}]",NA,NA,NA,NA,NA,3,#741CD8,#D8271C,0,0,1,40,0,2034.4000000059605,37,1,671.6999999880791,0,1,experiment,NA,NA,2,0.5,0.5,4,5,133,3,NA
fcp-trial,168,1548664,0.0-143.0-0.0,voc_e2,11750,"[{""event"":""fullscreenenter"",""trial"":1,""time"":1847}]",NA,NA,NA,NA,NA,5,#FA92F8,#1CD855,0,10,0,40,0,1392.2000000178814,37,1,942.7000000178814,0,0,experiment,NA,NA,1,0.3,0.7,3,2,134,3,NA
fcp-trial,169,1553783,0.0-144.0-0.0,voc_e2,11750,"[{""event"":""fullscreenenter"",""trial"":1,""time"":1847}]",NA,NA,NA,NA,NA,0,#741CD8,#D8271C,10,10,1,40,0,1487.699999988079,37,1,2126.800000011921,10,1,experiment,NA,NA,2,0.5,0.5,4,5,135,3,NA
fcp-trial,170,1557943,0.0-145.0-0.0,voc_e2,11750,"[{""event"":""fullscreenenter"",""trial"":1,""time"":1847}]",NA,NA,NA,NA,NA,2,#D89F1C,#3386FF,10,0,1,40,0,1953.1000000238419,39,0,702.9000000059605,0,0,experiment,NA,NA,0,0.9,0.1,0,1,136,4,NA
fcp-trial,171,1561704,0.0-146.0-0.0,voc_e2,11750,"[{""event"":""fullscreenenter"",""trial"":1,""time"":1847}]",NA,NA,NA,NA,NA,3,#3386FF,#D89F1C,0,10,0,40,0,1569.0999999940395,39,0,687.2000000178814,10,1,experiment,NA,NA,0,0.1,0.9,1,0,137,4,NA
fcp-trial,172,1566647,0.0-147.0-0.0,voc_e2,11750,"[{""event"":""fullscreenenter"",""trial"":1,""time"":1847}]",NA,NA,NA,NA,NA,5,#D8271C,#741CD8,10,0,0,40,0,2574.5,37,1,863.2000000178814,10,0,experiment,NA,NA,2,0.5,0.5,5,4,138,4,NA
fcp-trial,173,1570231,0.0-148.0-0.0,voc_e2,11750,"[{""event"":""fullscreenenter"",""trial"":1,""time"":1847}]",NA,NA,NA,NA,NA,0,#1CD855,#FA92F8,10,0,1,40,0,1361.1000000238419,39,0,719.6000000238419,0,0,experiment,NA,NA,1,0.7,0.3,2,3,139,4,NA
fcp-trial,174,1576423,0.0-149.0-0.0,voc_e2,11750,"[{""event"":""fullscreenenter"",""trial"":1,""time"":1847}]",NA,NA,NA,NA,NA,3,#1CD855,#FA92F8,10,0,1,40,0,3808.9000000059605,39,0,878.9000000059605,0,0,experiment,NA,NA,1,0.7,0.3,2,3,140,4,NA
fcp-trial,175,1579992,0.0-150.0-0.0,voc_e2,11750,"[{""event"":""fullscreenenter"",""trial"":1,""time"":1847}]",NA,NA,NA,NA,NA,1,#FA92F8,#1CD855,0,10,0,40,0,1088.5999999940395,37,1,975.7000000178814,0,0,experiment,NA,NA,1,0.3,0.7,3,2,141,4,NA
fcp-trial,176,1582966,0.0-151.0-0.0,voc_e2,11750,"[{""event"":""fullscreenenter"",""trial"":1,""time"":1847}]",NA,NA,NA,NA,NA,1,#D89F1C,#3386FF,10,0,1,40,0,831.3999999761581,39,0,638.8999999761581,0,0,experiment,NA,NA,0,0.9,0.1,0,1,142,4,NA
fcp-trial,177,1586279,0.0-152.0-0.0,voc_e2,11750,"[{""event"":""fullscreenenter"",""trial"":1,""time"":1847}]",NA,NA,NA,NA,NA,6,#D8271C,#741CD8,0,10,0,40,0,1057.199999988079,39,0,751.4000000059605,10,1,experiment,NA,NA,2,0.5,0.5,5,4,143,4,NA
fcp-trial,178,1590199,0.0-153.0-0.0,voc_e2,11750,"[{""event"":""fullscreenenter"",""trial"":1,""time"":1847}]",NA,NA,NA,NA,NA,2,#1CD855,#FA92F8,10,0,1,40,0,1440.6000000238419,37,1,975.5,10,1,experiment,NA,NA,1,0.7,0.3,2,3,144,4,NA
fcp-trial,179,1593432,0.0-154.0-0.0,voc_e2,11750,"[{""event"":""fullscreenenter"",""trial"":1,""time"":1847}]",NA,NA,NA,NA,NA,0,#D89F1C,#3386FF,10,0,1,40,0,992.8999999761581,37,1,735.2000000178814,10,1,experiment,NA,NA,0,0.9,0.1,0,1,145,4,NA
fcp-trial,180,1597142,0.0-155.0-0.0,voc_e2,11750,"[{""event"":""fullscreenenter"",""trial"":1,""time"":1847}]",NA,NA,NA,NA,NA,4,#D89F1C,#3386FF,10,10,1,40,0,1344.2000000178814,37,1,862.5,10,1,experiment,NA,NA,0,0.9,0.1,0,1,146,4,NA
fcp-trial,181,1601286,0.0-156.0-0.0,voc_e2,11750,"[{""event"":""fullscreenenter"",""trial"":1,""time"":1847}]",NA,NA,NA,NA,NA,2,#741CD8,#D8271C,10,0,1,40,0,1345.2999999821186,39,0,1295.5,0,0,experiment,NA,NA,2,0.5,0.5,4,5,147,4,NA
fcp-trial,182,1606854,0.0-157.0-0.0,voc_e2,11750,"[{""event"":""fullscreenenter"",""trial"":1,""time"":1847}]",NA,NA,NA,NA,NA,6,#D89F1C,#3386FF,10,0,1,40,0,1473.300000011921,37,1,2591.4000000059605,10,1,experiment,NA,NA,0,0.9,0.1,0,1,148,4,NA
fcp-trial,183,1609894,0.0-158.0-0.0,voc_e2,11750,"[{""event"":""fullscreenenter"",""trial"":1,""time"":1847}]",NA,NA,NA,NA,NA,5,#3386FF,#D89F1C,0,10,0,40,0,865,37,1,671.0999999940395,0,0,experiment,NA,NA,0,0.1,0.9,1,0,149,4,NA
fcp-trial,184,1614774,0.0-159.0-0.0,voc_e2,11750,"[{""event"":""fullscreenenter"",""trial"":1,""time"":1847}]",NA,NA,NA,NA,NA,6,#D8271C,#741CD8,0,10,0,40,0,2417.5,39,0,959.5999999940395,10,1,experiment,NA,NA,2,0.5,0.5,5,4,150,4,NA
fcp-trial,185,1622358,0.0-160.0-0.0,voc_e2,11750,"[{""event"":""fullscreenenter"",""trial"":1,""time"":1847}]",NA,NA,NA,NA,NA,3,#D8271C,#741CD8,10,10,0,40,0,3137.100000023842,39,0,2943.2999999821186,10,1,experiment,NA,NA,2,0.5,0.5,5,4,151,4,NA
fcp-trial,186,1628262,0.0-161.0-0.0,voc_e2,11750,"[{""event"":""fullscreenenter"",""trial"":1,""time"":1847}]",NA,NA,NA,NA,NA,4,#FA92F8,#1CD855,0,10,0,40,0,2673.199999988079,39,0,1727.5999999940395,10,1,experiment,NA,NA,1,0.3,0.7,3,2,152,4,NA
fcp-trial,187,1632758,0.0-162.0-0.0,voc_e2,11750,"[{""event"":""fullscreenenter"",""trial"":1,""time"":1847}]",NA,NA,NA,NA,NA,2,#D8271C,#741CD8,0,0,0,40,0,2097.9000000059605,37,1,895,0,0,experiment,NA,NA,2,0.5,0.5,5,4,153,4,NA
fcp-trial,188,1638022,0.0-163.0-0.0,voc_e2,11750,"[{""event"":""fullscreenenter"",""trial"":1,""time"":1847}]",NA,NA,NA,NA,NA,1,#3386FF,#D89F1C,0,10,0,40,0,2097.2999999821186,37,1,1663.2000000178814,0,0,experiment,NA,NA,0,0.1,0.9,1,0,154,4,NA
fcp-trial,189,1644134,0.0-164.0-0.0,voc_e2,11750,"[{""event"":""fullscreenenter"",""trial"":1,""time"":1847}]",NA,NA,NA,NA,NA,5,#FA92F8,#1CD855,0,10,0,40,0,3569.300000011921,37,1,1039.2999999821186,0,0,experiment,NA,NA,1,0.3,0.7,3,2,155,4,NA
fcp-trial,190,1648150,0.0-165.0-0.0,voc_e2,11750,"[{""event"":""fullscreenenter"",""trial"":1,""time"":1847}]",NA,NA,NA,NA,NA,4,#3386FF,#D89F1C,0,10,0,40,0,1441.2999999821186,37,1,1071.2000000178814,0,0,experiment,NA,NA,0,0.1,0.9,1,0,156,4,NA
fcp-trial,191,1651560,0.0-166.0-0.0,voc_e2,11750,"[{""event"":""fullscreenenter"",""trial"":1,""time"":1847}]",NA,NA,NA,NA,NA,2,#1CD855,#FA92F8,10,0,1,40,0,1137.0999999940395,39,0,767.0999999940395,0,0,experiment,NA,NA,1,0.7,0.3,2,3,157,4,NA
fcp-trial,192,1655975,0.0-167.0-0.0,voc_e2,11750,"[{""event"":""fullscreenenter"",""trial"":1,""time"":1847}]",NA,NA,NA,NA,NA,4,#D8271C,#741CD8,10,10,0,40,0,2015.699999988079,39,0,895.5,10,1,experiment,NA,NA,2,0.5,0.5,5,4,158,4,NA
fcp-trial,193,1659354,0.0-168.0-0.0,voc_e2,11750,"[{""event"":""fullscreenenter"",""trial"":1,""time"":1847}]",NA,NA,NA,NA,NA,3,#1CD855,#FA92F8,10,0,1,40,0,1231.699999988079,37,1,639.4000000059605,10,1,experiment,NA,NA,1,0.7,0.3,2,3,159,4,NA
fcp-trial,194,1663431,0.0-169.0-0.0,voc_e2,11750,"[{""event"":""fullscreenenter"",""trial"":1,""time"":1847}]",NA,NA,NA,NA,NA,0,#D8271C,#741CD8,10,10,0,40,0,1948.4000000059605,39,0,623.1999999880791,10,1,experiment,NA,NA,2,0.5,0.5,5,4,160,4,NA
fcp-trial,195,1668950,0.0-170.0-0.0,voc_e2,11750,"[{""event"":""fullscreenenter"",""trial"":1,""time"":1847}]",NA,NA,NA,NA,NA,2,#D89F1C,#3386FF,10,0,1,40,0,3120.0999999940395,37,1,894.3999999761581,10,1,experiment,NA,NA,0,0.9,0.1,0,1,161,4,NA
fcp-trial,196,1674103,0.0-171.0-0.0,voc_e2,11750,"[{""event"":""fullscreenenter"",""trial"":1,""time"":1847}]",NA,NA,NA,NA,NA,3,#3386FF,#D89F1C,0,10,0,40,0,2305,37,1,1342.5999999940395,0,0,experiment,NA,NA,0,0.1,0.9,1,0,162,4,NA
fcp-trial,197,1680135,0.0-172.0-0.0,voc_e2,11750,"[{""event"":""fullscreenenter"",""trial"":1,""time"":1847}]",NA,NA,NA,NA,NA,5,#741CD8,#D8271C,10,10,1,40,0,3840.600000023842,39,0,686.6999999880791,10,0,experiment,NA,NA,2,0.5,0.5,4,5,163,4,NA
fcp-trial,198,1684310,0.0-173.0-0.0,voc_e2,11750,"[{""event"":""fullscreenenter"",""trial"":1,""time"":1847}]",NA,NA,NA,NA,NA,6,#1CD855,#FA92F8,10,0,1,40,0,1888.5999999940395,37,1,783.1999999880791,10,1,experiment,NA,NA,1,0.7,0.3,2,3,164,4,NA
fcp-trial,199,1689654,0.0-174.0-0.0,voc_e2,11750,"[{""event"":""fullscreenenter"",""trial"":1,""time"":1847}]",NA,NA,NA,NA,NA,0,#FA92F8,#1CD855,10,10,0,40,0,3185.4000000059605,39,0,655.6999999880791,10,1,experiment,NA,NA,1,0.3,0.7,3,2,165,4,NA
fcp-trial,200,1694407,0.0-175.0-0.0,voc_e2,11750,"[{""event"":""fullscreenenter"",""trial"":1,""time"":1847}]",NA,NA,NA,NA,NA,1,#FA92F8,#1CD855,10,10,0,40,0,2303.699999988079,37,1,942.2999999821186,10,0,experiment,NA,NA,1,0.3,0.7,3,2,166,4,NA
fcp-trial,201,1699015,0.0-176.0-0.0,voc_e2,11750,"[{""event"":""fullscreenenter"",""trial"":1,""time"":1847}]",NA,NA,NA,NA,NA,0,#D89F1C,#3386FF,10,0,1,40,0,2112.600000023842,37,1,991.0999999940395,10,1,experiment,NA,NA,0,0.9,0.1,0,1,167,4,NA
fcp-trial,202,1704150,0.0-177.0-0.0,voc_e2,11750,"[{""event"":""fullscreenenter"",""trial"":1,""time"":1847}]",NA,NA,NA,NA,NA,1,#741CD8,#D8271C,0,10,1,40,0,2768.699999988079,39,0,862.7999999821186,10,0,experiment,NA,NA,2,0.5,0.5,4,5,168,4,NA
fcp-trial,203,1708246,0.0-178.0-0.0,voc_e2,11750,"[{""event"":""fullscreenenter"",""trial"":1,""time"":1847}]",NA,NA,NA,NA,NA,6,#741CD8,#D8271C,0,10,1,40,0,1760.699999988079,37,1,831.5999999940395,0,1,experiment,NA,NA,2,0.5,0.5,4,5,169,4,NA
fcp-trial,204,1712550,0.0-179.0-0.0,voc_e2,11750,"[{""event"":""fullscreenenter"",""trial"":1,""time"":1847}]",NA,NA,NA,NA,NA,4,#D89F1C,#3386FF,10,0,1,40,0,1904.7999999821186,37,1,895.2999999821186,10,1,experiment,NA,NA,0,0.9,0.1,0,1,170,4,NA
fcp-trial,205,1716774,0.0-180.0-0.0,voc_e2,11750,"[{""event"":""fullscreenenter"",""trial"":1,""time"":1847}]",NA,NA,NA,NA,NA,2,#3386FF,#D89F1C,10,10,0,40,0,1888.9000000059605,39,0,830.2999999821186,10,1,experiment,NA,NA,0,0.1,0.9,1,0,171,4,NA
fcp-trial,206,1721078,0.0-181.0-0.0,voc_e2,11750,"[{""event"":""fullscreenenter"",""trial"":1,""time"":1847}]",NA,NA,NA,NA,NA,1,#3386FF,#D89F1C,10,0,0,40,0,1553.2999999821186,39,0,1247.199999988079,0,1,experiment,NA,NA,0,0.1,0.9,1,0,172,4,NA
fcp-trial,207,1725287,0.0-182.0-0.0,voc_e2,11750,"[{""event"":""fullscreenenter"",""trial"":1,""time"":1847}]",NA,NA,NA,NA,NA,2,#1CD855,#FA92F8,10,0,1,40,0,1985.199999988079,39,0,719.1999999880791,0,0,experiment,NA,NA,1,0.7,0.3,2,3,173,4,NA
fcp-trial,208,1730118,0.0-183.0-0.0,voc_e2,11750,"[{""event"":""fullscreenenter"",""trial"":1,""time"":1847}]",NA,NA,NA,NA,NA,0,#D8271C,#741CD8,10,10,0,40,0,1983.7000000178814,37,1,1343.0999999940395,10,0,experiment,NA,NA,2,0.5,0.5,5,4,174,4,NA
fcp-trial,209,1737942,0.0-184.0-0.0,voc_e2,11750,"[{""event"":""fullscreenenter"",""trial"":1,""time"":1847}]",NA,NA,NA,NA,NA,5,#FA92F8,#1CD855,10,10,0,40,0,5088.4000000059605,39,0,1230.2999999821186,10,1,experiment,NA,NA,1,0.3,0.7,3,2,175,4,NA
fcp-trial,210,1744294,0.0-185.0-0.0,voc_e2,11750,"[{""event"":""fullscreenenter"",""trial"":1,""time"":1847}]",NA,NA,NA,NA,NA,5,#D8271C,#741CD8,10,0,0,40,0,3968.800000011921,39,0,879.1999999880791,0,1,experiment,NA,NA,2,0.5,0.5,5,4,176,4,NA
fcp-trial,211,1748505,0.0-186.0-0.0,voc_e2,11750,"[{""event"":""fullscreenenter"",""trial"":1,""time"":1847}]",NA,NA,NA,NA,NA,3,#3386FF,#D89F1C,0,10,0,40,0,2113.4000000059605,37,1,590.4000000059605,0,0,experiment,NA,NA,0,0.1,0.9,1,0,177,4,NA
fcp-trial,212,1752119,0.0-187.0-0.0,voc_e2,11750,"[{""event"":""fullscreenenter"",""trial"":1,""time"":1847}]",NA,NA,NA,NA,NA,1,#741CD8,#D8271C,0,10,1,40,0,1677.7999999821186,39,0,431.69999998807907,10,0,experiment,NA,NA,2,0.5,0.5,4,5,178,4,NA
fcp-trial,213,1755957,0.0-188.0-0.0,voc_e2,11750,"[{""event"":""fullscreenenter"",""trial"":1,""time"":1847}]",NA,NA,NA,NA,NA,4,#1CD855,#FA92F8,10,0,1,40,0,1567.300000011921,37,1,767.6999999880791,10,1,experiment,NA,NA,1,0.7,0.3,2,3,179,4,NA
fcp-trial,214,1759190,0.0-189.0-0.0,voc_e2,11750,"[{""event"":""fullscreenenter"",""trial"":1,""time"":1847}]",NA,NA,NA,NA,NA,4,#D8271C,#741CD8,0,10,0,40,0,1041.4000000059605,37,1,687.1999999880791,0,0,experiment,NA,NA,2,0.5,0.5,5,4,180,4,NA
fcp-trial,215,1762646,0.0-190.0-0.0,voc_e2,11750,"[{""event"":""fullscreenenter"",""trial"":1,""time"":1847}]",NA,NA,NA,NA,NA,0,#FA92F8,#1CD855,0,10,0,40,0,1424.800000011921,39,0,526.5,10,1,experiment,NA,NA,1,0.3,0.7,3,2,181,5,NA
fcp-trial,216,1766470,0.0-191.0-0.0,voc_e2,11750,"[{""event"":""fullscreenenter"",""trial"":1,""time"":1847}]",NA,NA,NA,NA,NA,0,#D89F1C,#3386FF,10,10,1,40,0,1553.2999999821186,39,0,767.3000000119209,10,0,experiment,NA,NA,0,0.9,0.1,0,1,182,5,NA
fcp-trial,217,1770118,0.0-192.0-0.0,voc_e2,11750,"[{""event"":""fullscreenenter"",""trial"":1,""time"":1847}]",NA,NA,NA,NA,NA,3,#1CD855,#FA92F8,10,0,1,40,0,976.0999999940395,37,1,1166.699999988079,10,1,experiment,NA,NA,1,0.7,0.3,2,3,183,5,NA
fcp-trial,218,1774710,0.0-193.0-0.0,voc_e2,11750,"[{""event"":""fullscreenenter"",""trial"":1,""time"":1847}]",NA,NA,NA,NA,NA,6,#D89F1C,#3386FF,10,0,1,40,0,1824.300000011921,37,1,1263.5999999940395,10,1,experiment,NA,NA,0,0.9,0.1,0,1,184,5,NA
fcp-trial,219,1779510,0.0-194.0-0.0,voc_e2,11750,"[{""event"":""fullscreenenter"",""trial"":1,""time"":1847}]",NA,NA,NA,NA,NA,2,#D8271C,#741CD8,0,0,0,40,0,2480.4000000059605,37,1,815.3000000119209,0,0,experiment,NA,NA,2,0.5,0.5,5,4,185,5,NA
fcp-trial,220,1784759,0.0-195.0-0.0,voc_e2,11750,"[{""event"":""fullscreenenter"",""trial"":1,""time"":1847}]",NA,NA,NA,NA,NA,3,#741CD8,#D8271C,10,10,1,40,0,3040.800000011921,37,1,703,10,1,experiment,NA,NA,2,0.5,0.5,4,5,186,5,NA
fcp-trial,221,1788086,0.0-196.0-0.0,voc_e2,11750,"[{""event"":""fullscreenenter"",""trial"":1,""time"":1847}]",NA,NA,NA,NA,NA,5,#D89F1C,#3386FF,10,0,1,40,0,1039.9000000059605,37,1,783.6999999880791,10,1,experiment,NA,NA,0,0.9,0.1,0,1,187,5,NA
fcp-trial,222,1792679,0.0-197.0-0.0,voc_e2,11750,"[{""event"":""fullscreenenter"",""trial"":1,""time"":1847}]",NA,NA,NA,NA,NA,1,#FA92F8,#1CD855,10,10,0,40,0,2017.199999988079,39,0,1071.5,10,1,experiment,NA,NA,1,0.3,0.7,3,2,188,5,NA
fcp-trial,223,1799111,0.0-198.0-0.0,voc_e2,11750,"[{""event"":""fullscreenenter"",""trial"":1,""time"":1847}]",NA,NA,NA,NA,NA,6,#FA92F8,#1CD855,0,0,0,40,0,960.3000000119209,39,0,3966.0999999940395,0,1,experiment,NA,NA,1,0.3,0.7,3,2,189,5,NA
fcp-trial,224,1802503,0.0-199.0-0.0,voc_e2,11750,"[{""event"":""fullscreenenter"",""trial"":1,""time"":1847}]",NA,NA,NA,NA,NA,1,#741CD8,#D8271C,10,10,1,40,0,1120.0999999940395,37,1,767,10,1,experiment,NA,NA,2,0.5,0.5,4,5,190,5,NA
fcp-trial,225,1807239,0.0-200.0-0.0,voc_e2,11750,"[{""event"":""fullscreenenter"",""trial"":1,""time"":1847}]",NA,NA,NA,NA,NA,4,#1CD855,#FA92F8,10,10,1,40,0,1136.5,37,1,2095.800000011921,10,1,experiment,NA,NA,1,0.7,0.3,2,3,191,5,NA
fcp-trial,226,1810582,0.0-201.0-0.0,voc_e2,11750,"[{""event"":""fullscreenenter"",""trial"":1,""time"":1847}]",NA,NA,NA,NA,NA,4,#3386FF,#D89F1C,0,10,0,40,0,1072.5,39,0,767.4000000059605,10,1,experiment,NA,NA,0,0.1,0.9,1,0,192,5,NA
fcp-trial,227,1818278,0.0-202.0-0.0,voc_e2,11750,"[{""event"":""fullscreenenter"",""trial"":1,""time"":1847}]",NA,NA,NA,NA,NA,2,#D89F1C,#3386FF,10,0,1,40,0,3745.4000000059605,37,1,2446.800000011921,10,1,experiment,NA,NA,0,0.9,0.1,0,1,193,5,NA
fcp-trial,228,1822983,0.0-203.0-0.0,voc_e2,11750,"[{""event"":""fullscreenenter"",""trial"":1,""time"":1847}]",NA,NA,NA,NA,NA,6,#3386FF,#D89F1C,0,0,0,40,0,2177.5,39,0,1022.7000000178814,0,1,experiment,NA,NA,0,0.1,0.9,1,0,194,5,NA
fcp-trial,229,1827175,0.0-204.0-0.0,voc_e2,11750,"[{""event"":""fullscreenenter"",""trial"":1,""time"":1847}]",NA,NA,NA,NA,NA,4,#D8271C,#741CD8,10,10,0,40,0,1984.5999999940395,39,0,703.1999999880791,10,1,experiment,NA,NA,2,0.5,0.5,5,4,195,5,NA
fcp-trial,230,1830999,0.0-205.0-0.0,voc_e2,11750,"[{""event"":""fullscreenenter"",""trial"":1,""time"":1847}]",NA,NA,NA,NA,NA,6,#1CD855,#FA92F8,10,0,1,40,0,1632.7000000178814,39,0,687.5999999940395,0,0,experiment,NA,NA,1,0.7,0.3,2,3,196,5,NA
fcp-trial,231,1836983,0.0-206.0-0.0,voc_e2,11750,"[{""event"":""fullscreenenter"",""trial"":1,""time"":1847}]",NA,NA,NA,NA,NA,5,#D89F1C,#3386FF,0,0,1,40,0,3760.5999999940395,39,0,719.3000000119209,0,0,experiment,NA,NA,0,0.9,0.1,0,1,197,5,NA
fcp-trial,232,1840966,0.0-207.0-0.0,voc_e2,11750,"[{""event"":""fullscreenenter"",""trial"":1,""time"":1847}]",NA,NA,NA,NA,NA,3,#FA92F8,#1CD855,10,10,0,40,0,1664.7000000178814,37,1,815.5,10,0,experiment,NA,NA,1,0.3,0.7,3,2,198,5,NA
fcp-trial,233,1846630,0.0-208.0-0.0,voc_e2,11750,"[{""event"":""fullscreenenter"",""trial"":1,""time"":1847}]",NA,NA,NA,NA,NA,0,#1CD855,#FA92F8,10,10,1,40,0,1281.4000000059605,37,1,2879.0999999940395,10,1,experiment,NA,NA,1,0.7,0.3,2,3,199,5,NA
fcp-trial,234,1851063,0.0-209.0-0.0,voc_e2,11750,"[{""event"":""fullscreenenter"",""trial"":1,""time"":1847}]",NA,NA,NA,NA,NA,2,#741CD8,#D8271C,0,0,1,40,0,2001.5999999940395,39,0,925.9000000059605,0,0,experiment,NA,NA,2,0.5,0.5,4,5,200,5,NA
fcp-trial,235,1854742,0.0-210.0-0.0,voc_e2,11750,"[{""event"":""fullscreenenter"",""trial"":1,""time"":1847}]",NA,NA,NA,NA,NA,3,#3386FF,#D89F1C,0,10,0,40,0,1487.800000011921,39,0,687.3000000119209,10,1,experiment,NA,NA,0,0.1,0.9,1,0,201,5,NA
fcp-trial,236,1858438,0.0-211.0-0.0,voc_e2,11750,"[{""event"":""fullscreenenter"",""trial"":1,""time"":1847}]",NA,NA,NA,NA,NA,3,#D8271C,#741CD8,0,0,0,40,0,1472.800000011921,37,1,719.5,0,0,experiment,NA,NA,2,0.5,0.5,5,4,202,5,NA
fcp-trial,237,1862422,0.0-212.0-0.0,voc_e2,11750,"[{""event"":""fullscreenenter"",""trial"":1,""time"":1847}]",NA,NA,NA,NA,NA,0,#741CD8,#D8271C,10,0,1,40,0,1616.4000000059605,39,0,861.9000000059605,0,0,experiment,NA,NA,2,0.5,0.5,4,5,203,5,NA
fcp-trial,238,1868069,0.0-213.0-0.0,voc_e2,11750,"[{""event"":""fullscreenenter"",""trial"":1,""time"":1847}]",NA,NA,NA,NA,NA,2,#FA92F8,#1CD855,10,10,0,40,0,1856.5,39,0,2287.2000000178814,10,1,experiment,NA,NA,1,0.3,0.7,3,2,204,5,NA
fcp-trial,239,1871671,0.0-214.0-0.0,voc_e2,11750,"[{""event"":""fullscreenenter"",""trial"":1,""time"":1847}]",NA,NA,NA,NA,NA,5,#FA92F8,#1CD855,0,10,0,40,0,1393.4000000059605,37,1,703.1000000238419,0,0,experiment,NA,NA,1,0.3,0.7,3,2,205,5,NA
fcp-trial,240,1875559,0.0-215.0-0.0,voc_e2,11750,"[{""event"":""fullscreenenter"",""trial"":1,""time"":1847}]",NA,NA,NA,NA,NA,1,#3386FF,#D89F1C,0,10,0,40,0,1422.800000011921,37,1,959.3000000119209,0,0,experiment,NA,NA,0,0.1,0.9,1,0,206,5,NA
fcp-trial,241,1881270,0.0-216.0-0.0,voc_e2,11750,"[{""event"":""fullscreenenter"",""trial"":1,""time"":1847}]",NA,NA,NA,NA,NA,5,#741CD8,#D8271C,0,10,1,40,0,2799.800000011921,37,1,1407.0999999940395,0,1,experiment,NA,NA,2,0.5,0.5,4,5,207,5,NA
fcp-trial,242,1888886,0.0-217.0-0.0,voc_e2,11750,"[{""event"":""fullscreenenter"",""trial"":1,""time"":1847}]",NA,NA,NA,NA,NA,1,#FA92F8,#1CD855,0,10,0,40,0,1567.800000011921,37,1,4543,0,0,experiment,NA,NA,1,0.3,0.7,3,2,208,5,NA
fcp-trial,243,1893270,0.0-218.0-0.0,voc_e2,11750,"[{""event"":""fullscreenenter"",""trial"":1,""time"":1847}]",NA,NA,NA,NA,NA,6,#D8271C,#741CD8,10,10,0,40,0,2176.5,39,0,703.1999999880791,10,1,experiment,NA,NA,2,0.5,0.5,5,4,209,5,NA
fcp-trial,244,1903766,0.0-219.0-0.0,voc_e2,11750,"[{""event"":""fullscreenenter"",""trial"":1,""time"":1847}]",NA,NA,NA,NA,NA,0,#3386FF,#D89F1C,0,10,0,40,0,8000.9000000059605,37,1,990.9000000059605,0,0,experiment,NA,NA,0,0.1,0.9,1,0,210,5,NA
audio-instructions,245,2339440,0.0-220.0,voc_e2,11750,"[{""event"":""fullscreenenter"",""trial"":1,""time"":1847}]",NA,431120.4000000059,static/audio/pause.wav,NA,0,NA,NA,NA,NA,NA,NA,NA,NA,NA,NA,NA,NA,NA,NA,NA,NA,NA,NA,NA,NA,NA,NA,NA,NA,NA
fcp-trial,246,2342629,0.0-221.0-0.0,voc_e2,11750,"[{""event"":""fullscreenenter"",""trial"":1,""time"":1847}]",NA,NA,NA,NA,NA,5,#3386FF,#D89F1C,0,10,0,40,0,1204.2999999821186,37,1,479.09999999403954,0,0,experiment,NA,NA,0,0.1,0.9,1,0,211,5,NA
fcp-trial,247,2345557,0.0-222.0-0.0,voc_e2,11750,"[{""event"":""fullscreenenter"",""trial"":1,""time"":1847}]",NA,NA,NA,NA,NA,4,#D89F1C,#3386FF,0,0,1,40,0,993.0999999940395,39,0,429.80000001192093,0,0,experiment,NA,NA,0,0.9,0.1,0,1,212,5,NA
fcp-trial,248,2348885,0.0-223.0-0.0,voc_e2,11750,"[{""event"":""fullscreenenter"",""trial"":1,""time"":1847}]",NA,NA,NA,NA,NA,1,#741CD8,#D8271C,10,10,1,40,0,865.2000000178814,39,0,959,10,0,experiment,NA,NA,2,0.5,0.5,4,5,213,5,NA
fcp-trial,249,2352037,0.0-224.0-0.0,voc_e2,11750,"[{""event"":""fullscreenenter"",""trial"":1,""time"":1847}]",NA,NA,NA,NA,NA,0,#1CD855,#FA92F8,10,0,1,40,0,945,37,1,703.2000000178814,10,1,experiment,NA,NA,1,0.7,0.3,2,3,214,5,NA
fcp-trial,250,2355205,0.0-225.0-0.0,voc_e2,11750,"[{""event"":""fullscreenenter"",""trial"":1,""time"":1847}]",NA,NA,NA,NA,NA,6,#741CD8,#D8271C,10,0,1,40,0,991.5999999940395,39,0,671.6999999880791,0,0,experiment,NA,NA,2,0.5,0.5,4,5,215,5,NA
fcp-trial,251,2358437,0.0-226.0-0.0,voc_e2,11750,"[{""event"":""fullscreenenter"",""trial"":1,""time"":1847}]",NA,NA,NA,NA,NA,2,#1CD855,#FA92F8,0,0,1,40,0,1056.2999999821186,39,0,671.0999999940395,0,0,experiment,NA,NA,1,0.7,0.3,2,3,216,5,NA
fcp-trial,252,2361909,0.0-227.0-0.0,voc_e2,11750,"[{""event"":""fullscreenenter"",""trial"":1,""time"":1847}]",NA,NA,NA,NA,NA,2,#3386FF,#D89F1C,0,10,0,40,0,1278.9000000059605,37,1,687.4000000059605,0,0,experiment,NA,NA,0,0.1,0.9,1,0,217,5,NA
fcp-trial,253,2366661,0.0-228.0-0.0,voc_e2,11750,"[{""event"":""fullscreenenter"",""trial"":1,""time"":1847}]",NA,NA,NA,NA,NA,2,#D8271C,#741CD8,10,10,0,40,0,1761.199999988079,37,1,1487.199999988079,10,0,experiment,NA,NA,2,0.5,0.5,5,4,218,5,NA
fcp-trial,254,2370645,0.0-229.0-0.0,voc_e2,11750,"[{""event"":""fullscreenenter"",""trial"":1,""time"":1847}]",NA,NA,NA,NA,NA,6,#D89F1C,#3386FF,10,0,1,40,0,1585.0999999940395,39,0,895.7999999821186,0,0,experiment,NA,NA,0,0.9,0.1,0,1,219,5,NA
fcp-trial,255,2375701,0.0-230.0-0.0,voc_e2,11750,"[{""event"":""fullscreenenter"",""trial"":1,""time"":1847}]",NA,NA,NA,NA,NA,1,#1CD855,#FA92F8,10,10,1,40,0,2897.2999999821186,37,1,654.8999999761581,10,1,experiment,NA,NA,1,0.7,0.3,2,3,220,5,NA
fcp-trial,256,2378453,0.0-231.0-0.0,voc_e2,11750,"[{""event"":""fullscreenenter"",""trial"":1,""time"":1847}]",NA,NA,NA,NA,NA,3,#741CD8,#D8271C,10,0,1,40,0,721.4000000059605,37,1,527.3999999761581,10,1,experiment,NA,NA,2,0.5,0.5,4,5,221,5,NA
fcp-trial,257,2382021,0.0-232.0-0.0,voc_e2,11750,"[{""event"":""fullscreenenter"",""trial"":1,""time"":1847}]",NA,NA,NA,NA,NA,4,#741CD8,#D8271C,10,0,1,40,0,48.5,39,0,2015.3999999761581,0,0,experiment,NA,NA,2,0.5,0.5,4,5,222,5,NA
fcp-trial,258,2384341,0.0-233.0-0.0,voc_e2,11750,"[{""event"":""fullscreenenter"",""trial"":1,""time"":1847}]",NA,NA,NA,NA,NA,1,#D89F1C,#3386FF,10,0,1,40,0,464.7999999821186,37,1,351,10,1,experiment,NA,NA,0,0.9,0.1,0,1,223,5,NA
fcp-trial,259,2387464,0.0-234.0-0.0,voc_e2,11750,"[{""event"":""fullscreenenter"",""trial"":1,""time"":1847}]",NA,NA,NA,NA,NA,3,#D89F1C,#3386FF,10,0,1,40,0,305.10000002384186,37,1,1310.699999988079,10,1,experiment,NA,NA,0,0.9,0.1,0,1,224,5,NA
fcp-trial,260,2390342,0.0-235.0-0.0,voc_e2,11750,"[{""event"":""fullscreenenter"",""trial"":1,""time"":1847}]",NA,NA,NA,NA,NA,4,#FA92F8,#1CD855,0,10,0,40,0,349.7999999821186,39,0,1023.5,10,1,experiment,NA,NA,1,0.3,0.7,3,2,225,5,NA
fcp-trial,261,2393349,0.0-236.0-0.0,voc_e2,11750,"[{""event"":""fullscreenenter"",""trial"":1,""time"":1847}]",NA,NA,NA,NA,NA,6,#FA92F8,#1CD855,0,10,0,40,0,929.2000000178814,37,1,574.4000000059605,0,0,experiment,NA,NA,1,0.3,0.7,3,2,226,6,NA
fcp-trial,262,2396854,0.0-237.0-0.0,voc_e2,11750,"[{""event"":""fullscreenenter"",""trial"":1,""time"":1847}]",NA,NA,NA,NA,NA,0,#D8271C,#741CD8,10,10,0,40,0,721.9000000059605,37,1,1279.0999999940395,10,0,experiment,NA,NA,2,0.5,0.5,5,4,227,6,NA
fcp-trial,263,2399894,0.0-238.0-0.0,voc_e2,11750,"[{""event"":""fullscreenenter"",""trial"":1,""time"":1847}]",NA,NA,NA,NA,NA,5,#741CD8,#D8271C,10,10,1,40,0,160.2999999821186,39,0,1374.9000000059605,10,0,experiment,NA,NA,2,0.5,0.5,4,5,228,6,NA
fcp-trial,264,2403126,0.0-239.0-0.0,voc_e2,11750,"[{""event"":""fullscreenenter"",""trial"":1,""time"":1847}]",NA,NA,NA,NA,NA,0,#3386FF,#D89F1C,0,10,0,40,0,560.5,37,1,1167,0,0,experiment,NA,NA,0,0.1,0.9,1,0,229,6,NA
fcp-trial,265,2406550,0.0-240.0-0.0,voc_e2,11750,"[{""event"":""fullscreenenter"",""trial"":1,""time"":1847}]",NA,NA,NA,NA,NA,5,#FA92F8,#1CD855,0,10,0,40,0,576.5,39,0,1343.5999999940395,10,1,experiment,NA,NA,1,0.3,0.7,3,2,230,6,NA
fcp-trial,266,2410470,0.0-241.0-0.0,voc_e2,11750,"[{""event"":""fullscreenenter"",""trial"":1,""time"":1847}]",NA,NA,NA,NA,NA,3,#FA92F8,#1CD855,10,0,0,40,0,1616.5999999940395,39,0,799.4000000059605,0,1,experiment,NA,NA,1,0.3,0.7,3,2,231,6,NA
fcp-trial,267,2414486,0.0-242.0-0.0,voc_e2,11750,"[{""event"":""fullscreenenter"",""trial"":1,""time"":1847}]",NA,NA,NA,NA,NA,0,#741CD8,#D8271C,0,10,1,40,0,1792.5999999940395,39,0,718.6999999880791,10,0,experiment,NA,NA,2,0.5,0.5,4,5,232,6,NA
fcp-trial,268,2418677,0.0-243.0-0.0,voc_e2,11750,"[{""event"":""fullscreenenter"",""trial"":1,""time"":1847}]",NA,NA,NA,NA,NA,5,#D89F1C,#3386FF,10,0,1,40,0,720.9000000059605,37,1,1967.4000000059605,10,1,experiment,NA,NA,0,0.9,0.1,0,1,233,6,NA
fcp-trial,269,2422533,0.0-244.0-0.0,voc_e2,11750,"[{""event"":""fullscreenenter"",""trial"":1,""time"":1847}]",NA,NA,NA,NA,NA,5,#FA92F8,#1CD855,0,0,0,40,0,1233.5,37,1,1118.7999999821186,0,0,experiment,NA,NA,1,0.3,0.7,3,2,234,6,NA
fcp-trial,270,2424966,0.0-245.0-0.0,voc_e2,11750,"[{""event"":""fullscreenenter"",""trial"":1,""time"":1847}]",NA,NA,NA,NA,NA,3,#D8271C,#741CD8,10,10,0,40,0,97.5,39,0,831,10,1,experiment,NA,NA,2,0.5,0.5,5,4,235,6,NA
fcp-trial,271,2427701,0.0-246.0-0.0,voc_e2,11750,"[{""event"":""fullscreenenter"",""trial"":1,""time"":1847}]",NA,NA,NA,NA,NA,1,#741CD8,#D8271C,0,10,1,40,0,352.7999999821186,39,0,878.5999999940395,10,0,experiment,NA,NA,2,0.5,0.5,4,5,236,6,NA
fcp-trial,272,2430310,0.0-247.0-0.0,voc_e2,11750,"[{""event"":""fullscreenenter"",""trial"":1,""time"":1847}]",NA,NA,NA,NA,NA,1,#3386FF,#D89F1C,0,10,0,40,0,225.09999999403954,39,0,879.5,10,1,experiment,NA,NA,0,0.1,0.9,1,0,237,6,NA
fcp-trial,273,2434070,0.0-248.0-0.0,voc_e2,11750,"[{""event"":""fullscreenenter"",""trial"":1,""time"":1847}]",NA,NA,NA,NA,NA,5,#D8271C,#741CD8,0,10,0,40,0,641,37,1,1613.7999999821186,0,0,experiment,NA,NA,2,0.5,0.5,5,4,238,6,NA
fcp-trial,274,2437526,0.0-249.0-0.0,voc_e2,11750,"[{""event"":""fullscreenenter"",""trial"":1,""time"":1847}]",NA,NA,NA,NA,NA,6,#1CD855,#FA92F8,10,0,1,40,0,1184.6000000238419,37,1,766.8999999761581,10,1,experiment,NA,NA,1,0.7,0.3,2,3,239,6,NA
fcp-trial,275,2443126,0.0-250.0-0.0,voc_e2,11750,"[{""event"":""fullscreenenter"",""trial"":1,""time"":1847}]",NA,NA,NA,NA,NA,2,#3386FF,#D89F1C,0,10,0,40,0,3488.7999999821186,39,0,607.5,10,1,experiment,NA,NA,0,0.1,0.9,1,0,240,6,NA
fcp-trial,276,2449973,0.0-251.0-0.0,voc_e2,11750,"[{""event"":""fullscreenenter"",""trial"":1,""time"":1847}]",NA,NA,NA,NA,NA,2,#D8271C,#741CD8,0,0,0,40,0,4336.4000000059605,39,0,1007.3000000119209,0,1,experiment,NA,NA,2,0.5,0.5,5,4,241,6,NA
fcp-trial,277,2456054,0.0-252.0-0.0,voc_e2,11750,"[{""event"":""fullscreenenter"",""trial"":1,""time"":1847}]",NA,NA,NA,NA,NA,3,#D89F1C,#3386FF,10,0,1,40,0,3681.4000000059605,39,0,894.8000000119209,0,0,experiment,NA,NA,0,0.9,0.1,0,1,242,6,NA
fcp-trial,278,2459765,0.0-253.0-0.0,voc_e2,11750,"[{""event"":""fullscreenenter"",""trial"":1,""time"":1847}]",NA,NA,NA,NA,NA,3,#FA92F8,#1CD855,0,0,0,40,0,1294.7999999821186,37,1,911.1999999880791,0,0,experiment,NA,NA,1,0.3,0.7,3,2,243,6,NA
fcp-trial,279,2464310,0.0-254.0-0.0,voc_e2,11750,"[{""event"":""fullscreenenter"",""trial"":1,""time"":1847}]",NA,NA,NA,NA,NA,4,#3386FF,#D89F1C,0,10,0,40,0,2240.7999999821186,37,1,798.6999999880791,0,0,experiment,NA,NA,0,0.1,0.9,1,0,244,6,NA
fcp-trial,280,2467637,0.0-255.0-0.0,voc_e2,11750,"[{""event"":""fullscreenenter"",""trial"":1,""time"":1847}]",NA,NA,NA,NA,NA,6,#D8271C,#741CD8,0,10,0,40,0,1200.9000000059605,39,0,622.6999999880791,10,1,experiment,NA,NA,2,0.5,0.5,5,4,245,6,NA
fcp-trial,281,2473350,0.0-256.0-0.0,voc_e2,11750,"[{""event"":""fullscreenenter"",""trial"":1,""time"":1847}]",NA,NA,NA,NA,NA,0,#FA92F8,#1CD855,10,10,0,40,0,2560.5999999940395,37,1,1643.199999988079,10,0,experiment,NA,NA,1,0.3,0.7,3,2,246,6,NA
fcp-trial,282,2479237,0.0-257.0-0.0,voc_e2,11750,"[{""event"":""fullscreenenter"",""trial"":1,""time"":1847}]",NA,NA,NA,NA,NA,4,#FA92F8,#1CD855,0,10,0,40,0,2239.899999976158,37,1,2142.2999999821186,0,0,experiment,NA,NA,1,0.3,0.7,3,2,247,6,NA
fcp-trial,283,2481878,0.0-258.0-0.0,voc_e2,11750,"[{""event"":""fullscreenenter"",""trial"":1,""time"":1847}]",NA,NA,NA,NA,NA,0,#D89F1C,#3386FF,10,0,1,40,0,656.7999999821186,37,1,479.30000001192093,10,1,experiment,NA,NA,0,0.9,0.1,0,1,248,6,NA
fcp-trial,284,2484421,0.0-259.0-0.0,voc_e2,11750,"[{""event"":""fullscreenenter"",""trial"":1,""time"":1847}]",NA,NA,NA,NA,NA,4,#741CD8,#D8271C,10,0,1,40,0,495.5,37,1,543.2000000178814,10,1,experiment,NA,NA,2,0.5,0.5,4,5,249,6,NA
fcp-trial,285,2487269,0.0-260.0-0.0,voc_e2,11750,"[{""event"":""fullscreenenter"",""trial"":1,""time"":1847}]",NA,NA,NA,NA,NA,1,#FA92F8,#1CD855,10,10,0,40,0,608,39,0,735.7999999821186,10,1,experiment,NA,NA,1,0.3,0.7,3,2,250,6,NA
fcp-trial,286,2489494,0.0-261.0-0.0,voc_e2,11750,"[{""event"":""fullscreenenter"",""trial"":1,""time"":1847}]",NA,NA,NA,NA,NA,2,#FA92F8,#1CD855,0,10,0,40,0,464.69999998807907,37,1,254.90000000596046,0,0,experiment,NA,NA,1,0.3,0.7,3,2,251,6,NA
fcp-trial,287,2492597,0.0-262.0-0.0,voc_e2,11750,"[{""event"":""fullscreenenter"",""trial"":1,""time"":1847}]",NA,NA,NA,NA,NA,6,#D89F1C,#3386FF,0,0,1,40,0,992.5,37,1,606.5999999940395,0,1,experiment,NA,NA,0,0.9,0.1,0,1,252,6,NA
fcp-trial,288,2496790,0.0-263.0-0.0,voc_e2,11750,"[{""event"":""fullscreenenter"",""trial"":1,""time"":1847}]",NA,NA,NA,NA,NA,2,#3386FF,#D89F1C,10,10,0,40,0,833.1999999880791,37,1,1855.5,10,0,experiment,NA,NA,0,0.1,0.9,1,0,253,6,NA
fcp-trial,289,2500373,0.0-264.0-0.0,voc_e2,11750,"[{""event"":""fullscreenenter"",""trial"":1,""time"":1847}]",NA,NA,NA,NA,NA,1,#D8271C,#741CD8,10,10,0,40,0,640.2999999821186,37,1,1438.699999988079,10,0,experiment,NA,NA,2,0.5,0.5,5,4,254,6,NA
fcp-trial,290,2503349,0.0-265.0-0.0,voc_e2,11750,"[{""event"":""fullscreenenter"",""trial"":1,""time"":1847}]",NA,NA,NA,NA,NA,3,#3386FF,#D89F1C,0,10,0,40,0,960.5999999940395,37,1,510.90000000596046,0,0,experiment,NA,NA,0,0.1,0.9,1,0,255,6,NA
fcp-trial,291,2507301,0.0-266.0-0.0,voc_e2,11750,"[{""event"":""fullscreenenter"",""trial"":1,""time"":1847}]",NA,NA,NA,NA,NA,2,#741CD8,#D8271C,10,10,1,40,0,1361.4000000059605,39,0,1087.2999999821186,10,0,experiment,NA,NA,2,0.5,0.5,4,5,256,6,NA
fcp-trial,292,2511831,0.0-267.0-0.0,voc_e2,11750,"[{""event"":""fullscreenenter"",""trial"":1,""time"":1847}]",NA,NA,NA,NA,NA,3,#FA92F8,#1CD855,0,0,0,40,0,1760.9000000059605,39,0,1263.5,0,1,experiment,NA,NA,1,0.3,0.7,3,2,257,6,NA
fcp-trial,293,2515079,0.0-268.0-0.0,voc_e2,11750,"[{""event"":""fullscreenenter"",""trial"":1,""time"":1847}]",NA,NA,NA,NA,NA,2,#1CD855,#FA92F8,0,0,1,40,0,927.1999999880791,39,0,813.8000000119209,0,0,experiment,NA,NA,1,0.7,0.3,2,3,258,6,NA
fcp-trial,294,2517670,0.0-269.0-0.0,voc_e2,11750,"[{""event"":""fullscreenenter"",""trial"":1,""time"":1847}]",NA,NA,NA,NA,NA,1,#D89F1C,#3386FF,10,10,1,40,0,415.30000001192093,37,1,671.1999999880791,10,1,experiment,NA,NA,0,0.9,0.1,0,1,259,6,NA
fcp-trial,295,2520390,0.0-270.0-0.0,voc_e2,11750,"[{""event"":""fullscreenenter"",""trial"":1,""time"":1847}]",NA,NA,NA,NA,NA,6,#FA92F8,#1CD855,0,10,0,40,0,256.30000001192093,37,1,959.0999999940395,0,0,experiment,NA,NA,1,0.3,0.7,3,2,260,6,NA
fcp-trial,296,2523956,0.0-271.0-0.0,voc_e2,11750,"[{""event"":""fullscreenenter"",""trial"":1,""time"":1847}]",NA,NA,NA,NA,NA,4,#D8271C,#741CD8,10,0,0,40,0,1327.9000000059605,37,1,718.4000000059605,10,0,experiment,NA,NA,2,0.5,0.5,5,4,261,6,NA
fcp-trial,297,2527846,0.0-272.0-0.0,voc_e2,11750,"[{""event"":""fullscreenenter"",""trial"":1,""time"":1847}]",NA,NA,NA,NA,NA,5,#D8271C,#741CD8,0,10,0,40,0,1186.0999999940395,37,1,1198.699999988079,0,0,experiment,NA,NA,2,0.5,0.5,5,4,262,6,NA
fcp-trial,298,2531414,0.0-273.0-0.0,voc_e2,11750,"[{""event"":""fullscreenenter"",""trial"":1,""time"":1847}]",NA,NA,NA,NA,NA,5,#FA92F8,#1CD855,0,10,0,40,0,1103.9000000059605,37,1,959,0,0,experiment,NA,NA,1,0.3,0.7,3,2,263,6,NA
fcp-trial,299,2534853,0.0-274.0-0.0,voc_e2,11750,"[{""event"":""fullscreenenter"",""trial"":1,""time"":1847}]",NA,NA,NA,NA,NA,5,#D89F1C,#3386FF,10,0,1,40,0,1152.5,39,0,783.5999999940395,0,0,experiment,NA,NA,0,0.9,0.1,0,1,264,6,NA
fcp-trial,300,2538230,0.0-275.0-0.0,voc_e2,11750,"[{""event"":""fullscreenenter"",""trial"":1,""time"":1847}]",NA,NA,NA,NA,NA,0,#FA92F8,#1CD855,0,10,0,40,0,1249.199999988079,37,1,623.5999999940395,0,0,experiment,NA,NA,1,0.3,0.7,3,2,265,6,NA
fcp-trial,301,2542726,0.0-276.0-0.0,voc_e2,11750,"[{""event"":""fullscreenenter"",""trial"":1,""time"":1847}]",NA,NA,NA,NA,NA,4,#D89F1C,#3386FF,10,0,1,40,0,928.8000000119209,37,1,2062.199999988079,10,1,experiment,NA,NA,0,0.9,0.1,0,1,266,6,NA
fcp-trial,302,2546662,0.0-277.0-0.0,voc_e2,11750,"[{""event"":""fullscreenenter"",""trial"":1,""time"":1847}]",NA,NA,NA,NA,NA,3,#D8271C,#741CD8,10,0,0,40,0,1632.7000000178814,39,0,798.7000000178814,0,1,experiment,NA,NA,2,0.5,0.5,5,4,267,6,NA
fcp-trial,303,2549558,0.0-278.0-0.0,voc_e2,11750,"[{""event"":""fullscreenenter"",""trial"":1,""time"":1847}]",NA,NA,NA,NA,NA,1,#1CD855,#FA92F8,10,0,1,40,0,672.5999999940395,39,0,719.7999999821186,0,0,experiment,NA,NA,1,0.7,0.3,2,3,268,6,NA
fcp-trial,304,2552838,0.0-279.0-0.0,voc_e2,11750,"[{""event"":""fullscreenenter"",""trial"":1,""time"":1847}]",NA,NA,NA,NA,NA,6,#741CD8,#D8271C,10,0,1,38,1,513.2000000178814,39,0,1263.3999999761581,0,0,experiment,NA,NA,2,0.5,0.5,4,5,269,6,NA
fcp-trial,305,2555974,0.0-280.0-0.0,voc_e2,11750,"[{""event"":""fullscreenenter"",""trial"":1,""time"":1847}]",NA,NA,NA,NA,NA,0,#D8271C,#741CD8,10,10,0,40,0,1104.5999999940395,39,0,527.0999999940395,10,1,experiment,NA,NA,2,0.5,0.5,5,4,270,6,NA
fcp-trial,306,2560247,0.0-281.0-0.0,voc_e2,11750,"[{""event"":""fullscreenenter"",""trial"":1,""time"":1847}]",NA,NA,NA,NA,NA,0,#D89F1C,#3386FF,10,0,1,40,0,1217,37,1,1550.300000011921,10,1,experiment,NA,NA,0,0.9,0.1,0,1,271,7,NA
fcp-trial,307,2563861,0.0-282.0-0.0,voc_e2,11750,"[{""event"":""fullscreenenter"",""trial"":1,""time"":1847}]",NA,NA,NA,NA,NA,6,#3386FF,#D89F1C,0,10,0,40,0,1199.5,37,1,911.5,0,0,experiment,NA,NA,0,0.1,0.9,1,0,272,7,NA
fcp-trial,308,2567381,0.0-283.0-0.0,voc_e2,11750,"[{""event"":""fullscreenenter"",""trial"":1,""time"":1847}]",NA,NA,NA,NA,NA,4,#FA92F8,#1CD855,10,10,0,40,0,1329.5,37,1,686.5,10,0,experiment,NA,NA,1,0.3,0.7,3,2,273,7,NA
fcp-trial,309,2570933,0.0-284.0-0.0,voc_e2,11750,"[{""event"":""fullscreenenter"",""trial"":1,""time"":1847}]",NA,NA,NA,NA,NA,1,#3386FF,#D89F1C,0,10,0,40,0,1019.2000000178814,37,1,1027.699999988079,0,0,experiment,NA,NA,0,0.1,0.9,1,0,274,7,NA
fcp-trial,310,2573920,0.0-285.0-0.0,voc_e2,11750,"[{""event"":""fullscreenenter"",""trial"":1,""time"":1847}]",NA,NA,NA,NA,NA,5,#D89F1C,#3386FF,10,0,1,40,0,784.5,39,0,698.3000000119209,0,0,experiment,NA,NA,0,0.9,0.1,0,1,275,7,NA
fcp-trial,311,2577076,0.0-286.0-0.0,voc_e2,11750,"[{""event"":""fullscreenenter"",""trial"":1,""time"":1847}]",NA,NA,NA,NA,NA,3,#741CD8,#D8271C,0,10,1,40,0,869.5,37,1,783.5999999940395,0,1,experiment,NA,NA,2,0.5,0.5,4,5,276,7,NA
fcp-trial,312,2580710,0.0-287.0-0.0,voc_e2,11750,"[{""event"":""fullscreenenter"",""trial"":1,""time"":1847}]",NA,NA,NA,NA,NA,4,#1CD855,#FA92F8,10,10,1,40,0,1281.2000000178814,39,0,847.0999999940395,10,0,experiment,NA,NA,1,0.7,0.3,2,3,277,7,NA
fcp-trial,313,2584517,0.0-288.0-0.0,voc_e2,11750,"[{""event"":""fullscreenenter"",""trial"":1,""time"":1847}]",NA,NA,NA,NA,NA,3,#D89F1C,#3386FF,10,0,1,40,0,911.9000000059605,39,0,1390.9000000059605,0,0,experiment,NA,NA,0,0.9,0.1,0,1,278,7,NA
fcp-trial,314,2588709,0.0-289.0-0.0,voc_e2,11750,"[{""event"":""fullscreenenter"",""trial"":1,""time"":1847}]",NA,NA,NA,NA,NA,6,#D8271C,#741CD8,10,10,0,40,0,1472.6000000238419,37,1,1215.199999988079,10,0,experiment,NA,NA,2,0.5,0.5,5,4,279,7,NA
fcp-trial,315,2592901,0.0-290.0-0.0,voc_e2,11750,"[{""event"":""fullscreenenter"",""trial"":1,""time"":1847}]",NA,NA,NA,NA,NA,5,#FA92F8,#1CD855,10,10,0,40,0,673,37,1,2015.2000000178814,10,0,experiment,NA,NA,1,0.3,0.7,3,2,280,7,NA
fcp-trial,316,2596358,0.0-291.0-0.0,voc_e2,11750,"[{""event"":""fullscreenenter"",""trial"":1,""time"":1847}]",NA,NA,NA,NA,NA,2,#3386FF,#D89F1C,0,10,0,40,0,1329.0999999940395,39,0,623.3999999761581,10,1,experiment,NA,NA,0,0.1,0.9,1,0,281,7,NA
fcp-trial,317,2600134,0.0-292.0-0.0,voc_e2,11750,"[{""event"":""fullscreenenter"",""trial"":1,""time"":1847}]",NA,NA,NA,NA,NA,3,#FA92F8,#1CD855,0,0,0,40,0,1504.300000011921,37,1,767,0,0,experiment,NA,NA,1,0.3,0.7,3,2,282,7,NA
fcp-trial,318,2606277,0.0-293.0-0.0,voc_e2,11750,"[{""event"":""fullscreenenter"",""trial"":1,""time"":1847}]",NA,NA,NA,NA,NA,4,#741CD8,#D8271C,0,10,1,40,0,2208.300000011921,37,1,2431.5,0,1,experiment,NA,NA,2,0.5,0.5,4,5,283,7,NA
fcp-trial,319,2609573,0.0-294.0-0.0,voc_e2,11750,"[{""event"":""fullscreenenter"",""trial"":1,""time"":1847}]",NA,NA,NA,NA,NA,4,#D89F1C,#3386FF,10,10,1,40,0,704.9000000059605,39,0,1087.0999999940395,10,0,experiment,NA,NA,0,0.9,0.1,0,1,284,7,NA
fcp-trial,320,2613285,0.0-295.0-0.0,voc_e2,11750,"[{""event"":""fullscreenenter"",""trial"":1,""time"":1847}]",NA,NA,NA,NA,NA,5,#741CD8,#D8271C,10,0,1,40,0,1344.5999999940395,37,1,862.8000000119209,10,1,experiment,NA,NA,2,0.5,0.5,4,5,285,7,NA
fcp-trial,321,2616245,0.0-296.0-0.0,voc_e2,11750,"[{""event"":""fullscreenenter"",""trial"":1,""time"":1847}]",NA,NA,NA,NA,NA,6,#3386FF,#D89F1C,0,10,0,40,0,913,39,0,543.4000000059605,10,1,experiment,NA,NA,0,0.1,0.9,1,0,286,7,NA
fcp-trial,322,2620196,0.0-297.0-0.0,voc_e2,11750,"[{""event"":""fullscreenenter"",""trial"":1,""time"":1847}]",NA,NA,NA,NA,NA,6,#1CD855,#FA92F8,10,0,1,40,0,1824.800000011921,39,0,622.9000000059605,0,0,experiment,NA,NA,1,0.7,0.3,2,3,287,7,NA
fcp-trial,323,2623301,0.0-298.0-0.0,voc_e2,11750,"[{""event"":""fullscreenenter"",""trial"":1,""time"":1847}]",NA,NA,NA,NA,NA,2,#1CD855,#FA92F8,0,10,1,40,0,993.4000000059605,37,1,607.3000000119209,0,1,experiment,NA,NA,1,0.7,0.3,2,3,288,7,NA
fcp-trial,324,2631077,0.0-299.0-0.0,voc_e2,11750,"[{""event"":""fullscreenenter"",""trial"":1,""time"":1847}]",NA,NA,NA,NA,NA,2,#741CD8,#D8271C,0,10,1,40,0,4977.300000011921,37,1,1294.9000000059605,0,1,experiment,NA,NA,2,0.5,0.5,4,5,289,7,NA
fcp-trial,325,2635941,0.0-300.0-0.0,voc_e2,11750,"[{""event"":""fullscreenenter"",""trial"":1,""time"":1847}]",NA,NA,NA,NA,NA,0,#D8271C,#741CD8,10,0,0,40,0,1568.5,37,1,1792,10,0,experiment,NA,NA,2,0.5,0.5,5,4,290,7,NA
fcp-trial,326,2639796,0.0-301.0-0.0,voc_e2,11750,"[{""event"":""fullscreenenter"",""trial"":1,""time"":1847}]",NA,NA,NA,NA,NA,0,#D89F1C,#3386FF,10,0,1,40,0,1792.4000000059605,37,1,559,10,1,experiment,NA,NA,0,0.9,0.1,0,1,291,7,NA
fcp-trial,327,2644533,0.0-302.0-0.0,voc_e2,11750,"[{""event"":""fullscreenenter"",""trial"":1,""time"":1847}]",NA,NA,NA,NA,NA,1,#1CD855,#FA92F8,0,0,1,40,0,2065.4000000059605,37,1,1167.6000000238419,0,1,experiment,NA,NA,1,0.7,0.3,2,3,292,7,NA
fcp-trial,328,2648486,0.0-303.0-0.0,voc_e2,11750,"[{""event"":""fullscreenenter"",""trial"":1,""time"":1847}]",NA,NA,NA,NA,NA,0,#FA92F8,#1CD855,0,10,0,40,0,1633,37,1,815.7000000178814,0,0,experiment,NA,NA,1,0.3,0.7,3,2,293,7,NA
fcp-trial,329,2652438,0.0-304.0-0.0,voc_e2,11750,"[{""event"":""fullscreenenter"",""trial"":1,""time"":1847}]",NA,NA,NA,NA,NA,1,#D8271C,#741CD8,10,10,0,40,0,1455.5,37,1,990,10,0,experiment,NA,NA,2,0.5,0.5,5,4,294,7,NA
fcp-trial,330,2655941,0.0-305.0-0.0,voc_e2,11750,"[{""event"":""fullscreenenter"",""trial"":1,""time"":1847}]",NA,NA,NA,NA,NA,1,#D8271C,#741CD8,0,10,0,40,0,1486.8999999761581,37,1,511.2000000178814,0,0,experiment,NA,NA,2,0.5,0.5,5,4,295,7,NA
fcp-trial,331,2660196,0.0-306.0-0.0,voc_e2,11750,"[{""event"":""fullscreenenter"",""trial"":1,""time"":1847}]",NA,NA,NA,NA,NA,0,#3386FF,#D89F1C,10,10,0,40,0,1968.2000000178814,37,1,783.6000000238419,10,0,experiment,NA,NA,0,0.1,0.9,1,0,296,7,NA
fcp-trial,332,2663268,0.0-307.0-0.0,voc_e2,11750,"[{""event"":""fullscreenenter"",""trial"":1,""time"":1847}]",NA,NA,NA,NA,NA,6,#D89F1C,#3386FF,10,0,1,40,0,977.0999999940395,39,0,591.4000000059605,0,0,experiment,NA,NA,0,0.9,0.1,0,1,297,7,NA
fcp-trial,333,2667060,0.0-308.0-0.0,voc_e2,11750,"[{""event"":""fullscreenenter"",""trial"":1,""time"":1847}]",NA,NA,NA,NA,NA,5,#D8271C,#741CD8,10,0,0,40,0,1409.1000000238419,39,0,878.5,0,1,experiment,NA,NA,2,0.5,0.5,5,4,298,7,NA
fcp-trial,334,2670148,0.0-309.0-0.0,voc_e2,11750,"[{""event"":""fullscreenenter"",""trial"":1,""time"":1847}]",NA,NA,NA,NA,NA,6,#FA92F8,#1CD855,10,0,0,40,0,913.4000000059605,39,0,670.2000000178814,0,1,experiment,NA,NA,1,0.3,0.7,3,2,299,7,NA
fcp-trial,335,2673573,0.0-310.0-0.0,voc_e2,11750,"[{""event"":""fullscreenenter"",""trial"":1,""time"":1847}]",NA,NA,NA,NA,NA,6,#D8271C,#741CD8,0,0,0,40,0,1153.5,39,0,767.7000000178814,0,1,experiment,NA,NA,2,0.5,0.5,5,4,300,7,NA
fcp-trial,336,2677460,0.0-311.0-0.0,voc_e2,11750,"[{""event"":""fullscreenenter"",""trial"":1,""time"":1847}]",NA,NA,NA,NA,NA,4,#3386FF,#D89F1C,0,10,0,40,0,1568.5999999940395,39,0,814.8000000119209,10,1,experiment,NA,NA,0,0.1,0.9,1,0,301,7,NA
fcp-trial,337,2683558,0.0-312.0-0.0,voc_e2,11750,"[{""event"":""fullscreenenter"",""trial"":1,""time"":1847}]",NA,NA,NA,NA,NA,3,#741CD8,#D8271C,10,10,1,40,0,1073.4000000059605,39,0,3520.4000000059605,10,0,experiment,NA,NA,2,0.5,0.5,4,5,302,7,NA
fcp-trial,338,2687686,0.0-313.0-0.0,voc_e2,11750,"[{""event"":""fullscreenenter"",""trial"":1,""time"":1847}]",NA,NA,NA,NA,NA,2,#D89F1C,#3386FF,10,0,1,40,0,1823,39,0,799.0999999940395,0,0,experiment,NA,NA,0,0.9,0.1,0,1,303,7,NA
fcp-trial,339,2690389,0.0-314.0-0.0,voc_e2,11750,"[{""event"":""fullscreenenter"",""trial"":1,""time"":1847}]",NA,NA,NA,NA,NA,0,#FA92F8,#1CD855,0,10,0,40,0,63.70000001788139,37,1,1132.7000000178814,0,0,experiment,NA,NA,1,0.3,0.7,3,2,304,7,NA
fcp-trial,340,2692918,0.0-315.0-0.0,voc_e2,11750,"[{""event"":""fullscreenenter"",""trial"":1,""time"":1847}]",NA,NA,NA,NA,NA,2,#FA92F8,#1CD855,10,10,0,40,0,239.7999999821186,37,1,782.7999999821186,10,0,experiment,NA,NA,1,0.3,0.7,3,2,305,7,NA
fcp-trial,341,2695732,0.0-316.0-0.0,voc_e2,11750,"[{""event"":""fullscreenenter"",""trial"":1,""time"":1847}]",NA,NA,NA,NA,NA,0,#D8271C,#741CD8,0,10,0,40,0,287.60000002384186,37,1,1023.1999999880791,0,0,experiment,NA,NA,2,0.5,0.5,5,4,306,7,NA
fcp-trial,342,2699749,0.0-317.0-0.0,voc_e2,11750,"[{""event"":""fullscreenenter"",""trial"":1,""time"":1847}]",NA,NA,NA,NA,NA,5,#D89F1C,#3386FF,10,10,1,40,0,1809.0999999940395,37,1,702.8999999761581,10,1,experiment,NA,NA,0,0.9,0.1,0,1,307,7,NA
fcp-trial,343,2704116,0.0-318.0-0.0,voc_e2,11750,"[{""event"":""fullscreenenter"",""trial"":1,""time"":1847}]",NA,NA,NA,NA,NA,4,#D8271C,#741CD8,0,10,0,40,0,1072.800000011921,39,0,1791,10,1,experiment,NA,NA,2,0.5,0.5,5,4,308,7,NA
fcp-trial,344,2707509,0.0-319.0-0.0,voc_e2,11750,"[{""event"":""fullscreenenter"",""trial"":1,""time"":1847}]",NA,NA,NA,NA,NA,4,#1CD855,#FA92F8,10,0,1,40,0,1409,37,1,479.80000001192093,10,1,experiment,NA,NA,1,0.7,0.3,2,3,309,7,NA
fcp-trial,345,2710389,0.0-320.0-0.0,voc_e2,11750,"[{""event"":""fullscreenenter"",""trial"":1,""time"":1847}]",NA,NA,NA,NA,NA,3,#3386FF,#D89F1C,10,10,0,40,0,673,39,0,702.7999999821186,10,1,experiment,NA,NA,0,0.1,0.9,1,0,310,7,NA
fcp-trial,346,2713669,0.0-321.0-0.0,voc_e2,11750,"[{""event"":""fullscreenenter"",""trial"":1,""time"":1847}]",NA,NA,NA,NA,NA,2,#741CD8,#D8271C,0,10,1,40,0,1039.5,39,0,735.5,10,0,experiment,NA,NA,2,0.5,0.5,4,5,311,7,NA
fcp-trial,347,2717733,0.0-322.0-0.0,voc_e2,11750,"[{""event"":""fullscreenenter"",""trial"":1,""time"":1847}]",NA,NA,NA,NA,NA,3,#1CD855,#FA92F8,0,0,1,40,0,112.39999997615814,37,1,2447.0999999940395,0,1,experiment,NA,NA,1,0.7,0.3,2,3,312,7,NA
fcp-trial,348,2720820,0.0-323.0-0.0,voc_e2,11750,"[{""event"":""fullscreenenter"",""trial"":1,""time"":1847}]",NA,NA,NA,NA,NA,1,#3386FF,#D89F1C,0,10,0,40,0,960.8999999761581,39,0,623.0999999940395,10,1,experiment,NA,NA,0,0.1,0.9,1,0,313,7,NA
fcp-trial,349,2724452,0.0-324.0-0.0,voc_e2,11750,"[{""event"":""fullscreenenter"",""trial"":1,""time"":1847}]",NA,NA,NA,NA,NA,5,#FA92F8,#1CD855,10,0,0,40,0,1265,39,0,863.5,0,1,experiment,NA,NA,1,0.3,0.7,3,2,314,7,NA
fcp-trial,350,2728532,0.0-325.0-0.0,voc_e2,11750,"[{""event"":""fullscreenenter"",""trial"":1,""time"":1847}]",NA,NA,NA,NA,NA,1,#FA92F8,#1CD855,0,10,0,40,0,1825.2999999821186,37,1,751.5,0,0,experiment,NA,NA,1,0.3,0.7,3,2,315,7,NA
audio-instructions,351,2735958,0.0-326.0,voc_e2,11750,"[{""event"":""fullscreenenter"",""trial"":1,""time"":1847}]",NA,1688.5,static/audio/finished.wav,NA,0,NA,NA,NA,NA,NA,NA,NA,NA,NA,NA,NA,NA,NA,NA,NA,NA,NA,NA,NA,NA,NA,NA,NA,NA,NA
audio-instructions,352,2757545,0.0-327.0-0.0,voc_e2,11750,"[{""event"":""fullscreenenter"",""trial"":1,""time"":1847}]",NA,10755.59999999404,static/audio/explicit1.wav,NA,0,NA,NA,NA,NA,NA,NA,NA,NA,NA,NA,NA,NA,NA,NA,NA,NA,NA,NA,NA,NA,NA,NA,NA,NA,NA
audio-instructions,353,2769435,0.0-327.0-1.0,voc_e2,11750,"[{""event"":""fullscreenenter"",""trial"":1,""time"":1847}]",NA,4296,static/audio/explicit2.wav,NA,0,NA,NA,NA,NA,NA,NA,NA,NA,NA,NA,NA,NA,NA,NA,NA,NA,NA,NA,NA,NA,NA,NA,NA,NA,NA
image-slider-response,354,2772152,0.0-328.0,voc_e2,11750,"[{""event"":""fullscreenenter"",""trial"":1,""time"":1847}]",NA,2712.5,static/img/machines/machine4.png,NA,NA,NA,NA,NA,NA,NA,NA,NA,NA,NA,NA,NA,NA,NA,NA,explicit,NA,NA,NA,NA,NA,NA,NA,NA,NA,5
image-slider-response,355,2773115,0.0-329.0,voc_e2,11750,"[{""event"":""fullscreenenter"",""trial"":1,""time"":1847}]",NA,961.4000000059604,static/img/machines/machine5.png,NA,NA,NA,NA,NA,NA,NA,NA,NA,NA,NA,NA,NA,NA,NA,NA,explicit,NA,NA,NA,NA,NA,NA,NA,NA,NA,5
image-slider-response,356,2773944,0.0-330.0,voc_e2,11750,"[{""event"":""fullscreenenter"",""trial"":1,""time"":1847}]",NA,828,static/img/machines/machine6.png,NA,NA,NA,NA,NA,NA,NA,NA,NA,NA,NA,NA,NA,NA,NA,NA,explicit,NA,NA,NA,NA,NA,NA,NA,NA,NA,5
image-slider-response,357,2774798,0.0-331.0,voc_e2,11750,"[{""event"":""fullscreenenter"",""trial"":1,""time"":1847}]",NA,853.1999999880791,static/img/machines/machine3.png,NA,NA,NA,NA,NA,NA,NA,NA,NA,NA,NA,NA,NA,NA,NA,NA,explicit,NA,NA,NA,NA,NA,NA,NA,NA,NA,5
image-slider-response,358,2775470,0.0-332.0,voc_e2,11750,"[{""event"":""fullscreenenter"",""trial"":1,""time"":1847}]",NA,670.3999999761581,static/img/machines/machine2.png,NA,NA,NA,NA,NA,NA,NA,NA,NA,NA,NA,NA,NA,NA,NA,NA,explicit,NA,NA,NA,NA,NA,NA,NA,NA,NA,5
image-slider-response,359,2776230,0.0-333.0,voc_e2,11750,"[{""event"":""fullscreenenter"",""trial"":1,""time"":1847}]",NA,759.1000000238419,static/img/machines/machine1.png,NA,NA,NA,NA,NA,NA,NA,NA,NA,NA,NA,NA,NA,NA,NA,NA,explicit,NA,NA,NA,NA,NA,NA,NA,NA,NA,5
