trial_type,trial_index,time_elapsed,internal_node_id,task_version,subject_id,interactions,success,rt,stimulus,key_press,button_pressed,offer,arcade_color_L,arcade_color_R,arcade_outcome_L,arcade_outcome_R,correct,stage_1_key,stage_1_choice,stage_1_rt,stage_2_key,stage_2_choice,stage_2_rt,stage_3_outcome,accuracy,phase,responses,num_errors,context,reward_prob_L,reward_prob_R,arcade_id_L,arcade_id_R,trial,block,response
pavlovia,0,17,0.0-0.0,voc_e2,11701,[],NA,NA,NA,NA,NA,NA,NA,NA,NA,NA,NA,NA,NA,NA,NA,NA,NA,NA,NA,NA,NA,NA,NA,NA,NA,NA,NA,NA,NA,NA
fullscreen,1,3369,0.0-1.0,voc_e2,11701,"[{""event"":""fullscreenenter"",""trial"":1,""time"":2452}]",TRUE,NA,NA,NA,NA,NA,NA,NA,NA,NA,NA,NA,NA,NA,NA,NA,NA,NA,NA,NA,NA,NA,NA,NA,NA,NA,NA,NA,NA,NA
audio-keyboard-response,2,7786,0.0-2.0,voc_e2,11701,"[{""event"":""fullscreenenter"",""trial"":1,""time"":2452}]",NA,4357,static/audio/beep_loop.wav,32,NA,NA,NA,NA,NA,NA,NA,NA,NA,NA,NA,NA,NA,NA,NA,NA,NA,NA,NA,NA,NA,NA,NA,NA,NA,NA
audio-test,3,13280,0.0-3.0,voc_e2,11701,"[{""event"":""fullscreenenter"",""trial"":1,""time"":2452}]",NA,NA,static/audio/turtle.wav,NA,3,NA,NA,NA,NA,NA,NA,NA,NA,NA,NA,NA,NA,NA,NA,NA,NA,NA,NA,NA,NA,NA,NA,NA,NA,NA
audio-test,4,15874,0.0-4.0,voc_e2,11701,"[{""event"":""fullscreenenter"",""trial"":1,""time"":2452}]",NA,NA,static/audio/shark.wav,NA,2,NA,NA,NA,NA,NA,NA,NA,NA,NA,NA,NA,NA,NA,NA,NA,NA,NA,NA,NA,NA,NA,NA,NA,NA,NA
audio-instructions,5,24050,0.0-5.0-0.0,voc_e2,11701,"[{""event"":""fullscreenenter"",""trial"":1,""time"":2452}]",NA,2391,static/audio/instructions1.wav,NA,0,NA,NA,NA,NA,NA,NA,NA,NA,NA,NA,NA,NA,NA,NA,NA,NA,NA,NA,NA,NA,NA,NA,NA,NA,NA
audio-instructions,6,32531,0.0-5.0-1.0,voc_e2,11701,"[{""event"":""fullscreenenter"",""trial"":1,""time"":2452}]",NA,1735.9999999999854,static/audio/instructions2.wav,NA,0,NA,NA,NA,NA,NA,NA,NA,NA,NA,NA,NA,NA,NA,NA,NA,NA,NA,NA,NA,NA,NA,NA,NA,NA,NA
audio-instructions,7,39048,0.0-5.0-2.0,voc_e2,11701,"[{""event"":""fullscreenenter"",""trial"":1,""time"":2452}]",NA,711,static/audio/instructions3.wav,NA,0,NA,NA,NA,NA,NA,NA,NA,NA,NA,NA,NA,NA,NA,NA,NA,NA,NA,NA,NA,NA,NA,NA,NA,NA,NA
audio-instructions,8,53758,0.0-5.0-3.0,voc_e2,11701,"[{""event"":""fullscreenenter"",""trial"":1,""time"":2452}]",NA,1479.9999999999854,static/audio/instructions4.wav,NA,0,NA,NA,NA,NA,NA,NA,NA,NA,NA,NA,NA,NA,NA,NA,NA,NA,NA,NA,NA,NA,NA,NA,NA,NA,NA
audio-instructions,9,63668,0.0-5.0-4.0,voc_e2,11701,"[{""event"":""fullscreenenter"",""trial"":1,""time"":2452}]",NA,521.0000000000146,static/audio/instructions5.wav,NA,0,NA,NA,NA,NA,NA,NA,NA,NA,NA,NA,NA,NA,NA,NA,NA,NA,NA,NA,NA,NA,NA,NA,NA,NA,NA
fcp-practice,10,66077,0.0-5.0-5.0-0.0,voc_e2,11701,"[{""event"":""fullscreenenter"",""trial"":1,""time"":2452}]",NA,NA,NA,NA,NA,NA,#EDC948,#46d3c8,10,0,1,null,null,null,37,1,899,10,1,practice,NA,NA,NA,NA,NA,NA,NA,NA,NA,NA
fcp-practice,11,68574,0.0-5.0-5.0-1.0,voc_e2,11701,"[{""event"":""fullscreenenter"",""trial"":1,""time"":2452}]",NA,NA,NA,NA,NA,NA,#EDC948,#46d3c8,10,0,1,null,null,null,37,1,989,10,1,practice,NA,NA,NA,NA,NA,NA,NA,NA,NA,NA
fcp-practice,12,70545,0.0-5.0-5.0-2.0,voc_e2,11701,"[{""event"":""fullscreenenter"",""trial"":1,""time"":2452}]",NA,NA,NA,NA,NA,NA,#EDC948,#46d3c8,0,10,1,null,null,null,37,1,463.99999999998545,0,1,practice,NA,NA,NA,NA,NA,NA,NA,NA,NA,NA
fcp-practice,13,72302,0.0-5.0-5.0-3.0,voc_e2,11701,"[{""event"":""fullscreenenter"",""trial"":1,""time"":2452}]",NA,NA,NA,NA,NA,NA,#EDC948,#46d3c8,10,0,1,null,null,null,37,1,250,10,1,practice,NA,NA,NA,NA,NA,NA,NA,NA,NA,NA
fcp-practice,14,73839,0.0-5.0-5.0-4.0,voc_e2,11701,"[{""event"":""fullscreenenter"",""trial"":1,""time"":2452}]",NA,NA,NA,NA,NA,NA,#EDC948,#46d3c8,10,0,1,null,null,null,37,1,31,10,1,practice,NA,NA,NA,NA,NA,NA,NA,NA,NA,NA
audio-instructions,15,94329,0.0-5.0-6.0,voc_e2,11701,"[{""event"":""fullscreenenter"",""trial"":1,""time"":2452}]",NA,2479.999999999971,static/audio/instructions6.wav,NA,0,NA,NA,NA,NA,NA,NA,NA,NA,NA,NA,NA,NA,NA,NA,NA,NA,NA,NA,NA,NA,NA,NA,NA,NA,NA
audio-instructions,16,115461,0.0-5.0-7.0,voc_e2,11701,"[{""event"":""fullscreenenter"",""trial"":1,""time"":2452}]",NA,1930,static/audio/instructions7.wav,NA,0,NA,NA,NA,NA,NA,NA,NA,NA,NA,NA,NA,NA,NA,NA,NA,NA,NA,NA,NA,NA,NA,NA,NA,NA,NA
audio-instructions,17,127193,0.0-5.0-8.0,voc_e2,11701,"[{""event"":""fullscreenenter"",""trial"":1,""time"":2452}]",NA,2256,static/audio/instructions8.wav,NA,0,NA,NA,NA,NA,NA,NA,NA,NA,NA,NA,NA,NA,NA,NA,NA,NA,NA,NA,NA,NA,NA,NA,NA,NA,NA
fcp-comprehension,18,139480,0.0-5.0-9.0,voc_e2,11701,"[{""event"":""fullscreenenter"",""trial"":1,""time"":2452}]",NA,12284,NA,NA,NA,NA,NA,NA,NA,NA,NA,NA,NA,NA,NA,NA,NA,NA,NA,NA,"true,true",0,NA,NA,NA,NA,NA,NA,NA,NA
audio-instructions,19,147601,0.0-6.0-0.0,voc_e2,11701,"[{""event"":""fullscreenenter"",""trial"":1,""time"":2452}]",NA,2570.000000000029,static/audio/instructions9.wav,NA,0,NA,NA,NA,NA,NA,NA,NA,NA,NA,NA,NA,NA,NA,NA,NA,NA,NA,NA,NA,NA,NA,NA,NA,NA,NA
audio-instructions,20,161135,0.0-6.0-1.0,voc_e2,11701,"[{""event"":""fullscreenenter"",""trial"":1,""time"":2452}]",NA,1413,static/audio/instructions10.wav,NA,0,NA,NA,NA,NA,NA,NA,NA,NA,NA,NA,NA,NA,NA,NA,NA,NA,NA,NA,NA,NA,NA,NA,NA,NA,NA
fcp-trial,21,169377,0.0-6.0-2.0,voc_e2,11701,"[{""event"":""fullscreenenter"",""trial"":1,""time"":2452}]",NA,NA,NA,NA,NA,0,#EDC948,#46d3c8,10,10,1,38,1,5657.000000000029,39,0,1075.000000000029,10,0,practice,NA,NA,NA,NA,NA,NA,NA,NA,NA,NA
audio-instructions,22,187257,0.0-6.0-3.0,voc_e2,11701,"[{""event"":""fullscreenenter"",""trial"":1,""time"":2452}]",NA,6866.000000000029,static/audio/instructions11.wav,NA,0,NA,NA,NA,NA,NA,NA,NA,NA,NA,NA,NA,NA,NA,NA,NA,NA,NA,NA,NA,NA,NA,NA,NA,NA,NA
fcp-trial,23,191410,0.0-6.0-4.0,voc_e2,11701,"[{""event"":""fullscreenenter"",""trial"":1,""time"":2452}]",NA,NA,NA,NA,NA,6,#EDC948,#46d3c8,10,10,1,40,0,1833,37,1,814,10,1,practice,NA,NA,NA,NA,NA,NA,NA,NA,NA,NA
audio-instructions,24,215141,0.0-6.0-5.0,voc_e2,11701,"[{""event"":""fullscreenenter"",""trial"":1,""time"":2452}]",NA,5037,static/audio/instructions12.wav,NA,0,NA,NA,NA,NA,NA,NA,NA,NA,NA,NA,NA,NA,NA,NA,NA,NA,NA,NA,NA,NA,NA,NA,NA,NA,NA
audio-instructions,25,337163,0.0-6.0-6.0,voc_e2,11701,"[{""event"":""fullscreenenter"",""trial"":1,""time"":2452}]",NA,114420.99999999994,static/audio/instructions13.wav,NA,0,NA,NA,NA,NA,NA,NA,NA,NA,NA,NA,NA,NA,NA,NA,NA,NA,NA,NA,NA,NA,NA,NA,NA,NA,NA
audio-instructions,26,348609,0.0-6.0-7.0,voc_e2,11701,"[{""event"":""fullscreenenter"",""trial"":1,""time"":2452}]",NA,2994,static/audio/instructions14.wav,NA,0,NA,NA,NA,NA,NA,NA,NA,NA,NA,NA,NA,NA,NA,NA,NA,NA,NA,NA,NA,NA,NA,NA,NA,NA,NA
audio-instructions,27,356800,0.0-7.0-0.0,voc_e2,11701,"[{""event"":""fullscreenenter"",""trial"":1,""time"":2452}]",NA,1276,static/audio/instructions15.wav,NA,0,NA,NA,NA,NA,NA,NA,NA,NA,NA,NA,NA,NA,NA,NA,NA,NA,NA,NA,NA,NA,NA,NA,NA,NA,NA
audio-instructions,28,366242,0.0-7.0-1.0,voc_e2,11701,"[{""event"":""fullscreenenter"",""trial"":1,""time"":2452}]",NA,2611,static/audio/instructions16.wav,NA,0,NA,NA,NA,NA,NA,NA,NA,NA,NA,NA,NA,NA,NA,NA,NA,NA,NA,NA,NA,NA,NA,NA,NA,NA,NA
audio-instructions,29,382884,0.0-7.0-2.0,voc_e2,11701,"[{""event"":""fullscreenenter"",""trial"":1,""time"":2452}]",NA,8960,static/audio/instructions17.wav,NA,0,NA,NA,NA,NA,NA,NA,NA,NA,NA,NA,NA,NA,NA,NA,NA,NA,NA,NA,NA,NA,NA,NA,NA,NA,NA
audio-instructions,30,395065,0.0-7.0-3.0,voc_e2,11701,"[{""event"":""fullscreenenter"",""trial"":1,""time"":2452}]",NA,4413.000000000058,static/audio/instructions18.wav,NA,0,NA,NA,NA,NA,NA,NA,NA,NA,NA,NA,NA,NA,NA,NA,NA,NA,NA,NA,NA,NA,NA,NA,NA,NA,NA
audio-instructions,31,421347,0.0-7.0-4.0,voc_e2,11701,"[{""event"":""fullscreenenter"",""trial"":1,""time"":2452}]",NA,19538,static/audio/instructions19.wav,NA,0,NA,NA,NA,NA,NA,NA,NA,NA,NA,NA,NA,NA,NA,NA,NA,NA,NA,NA,NA,NA,NA,NA,NA,NA,NA
fcp-comprehension,32,555228,0.0-7.0-5.0,voc_e2,11701,"[{""event"":""fullscreenenter"",""trial"":1,""time"":2452}]",NA,133874,NA,NA,NA,NA,NA,NA,NA,NA,NA,NA,NA,NA,NA,NA,NA,NA,NA,NA,"false,true,false,true",1,NA,NA,NA,NA,NA,NA,NA,NA
audio-instructions,33,564074,0.0-7.1-0.1,voc_e2,11701,"[{""event"":""fullscreenenter"",""trial"":1,""time"":2452}]",NA,1929,static/audio/instructions15.wav,NA,0,NA,NA,NA,NA,NA,NA,NA,NA,NA,NA,NA,NA,NA,NA,NA,NA,NA,NA,NA,NA,NA,NA,NA,NA,NA
audio-instructions,34,572486,0.0-7.1-1.1,voc_e2,11701,"[{""event"":""fullscreenenter"",""trial"":1,""time"":2452}]",NA,1580,static/audio/instructions16.wav,NA,0,NA,NA,NA,NA,NA,NA,NA,NA,NA,NA,NA,NA,NA,NA,NA,NA,NA,NA,NA,NA,NA,NA,NA,NA,NA
audio-instructions,35,581062,0.0-7.1-2.1,voc_e2,11701,"[{""event"":""fullscreenenter"",""trial"":1,""time"":2452}]",NA,893,static/audio/instructions17.wav,NA,0,NA,NA,NA,NA,NA,NA,NA,NA,NA,NA,NA,NA,NA,NA,NA,NA,NA,NA,NA,NA,NA,NA,NA,NA,NA
audio-instructions,36,589790,0.0-7.1-3.1,voc_e2,11701,"[{""event"":""fullscreenenter"",""trial"":1,""time"":2452}]",NA,959,static/audio/instructions18.wav,NA,0,NA,NA,NA,NA,NA,NA,NA,NA,NA,NA,NA,NA,NA,NA,NA,NA,NA,NA,NA,NA,NA,NA,NA,NA,NA
audio-instructions,37,597582,0.0-7.1-4.1,voc_e2,11701,"[{""event"":""fullscreenenter"",""trial"":1,""time"":2452}]",NA,1047.0000000001164,static/audio/instructions19.wav,NA,0,NA,NA,NA,NA,NA,NA,NA,NA,NA,NA,NA,NA,NA,NA,NA,NA,NA,NA,NA,NA,NA,NA,NA,NA,NA
fcp-comprehension,38,609029,0.0-7.1-5.1,voc_e2,11701,"[{""event"":""fullscreenenter"",""trial"":1,""time"":2452}]",NA,11446.000000000116,NA,NA,NA,NA,NA,NA,NA,NA,NA,NA,NA,NA,NA,NA,NA,NA,NA,NA,"false,false,false,true",0,NA,NA,NA,NA,NA,NA,NA,NA
audio-instructions,39,632000,0.0-8.0,voc_e2,11701,"[{""event"":""fullscreenenter"",""trial"":1,""time"":2452}]",NA,13749,static/audio/ready.wav,NA,0,NA,NA,NA,NA,NA,NA,NA,NA,NA,NA,NA,NA,NA,NA,NA,NA,NA,NA,NA,NA,NA,NA,NA,NA,NA
fcp-trial,40,638082,0.0-9.0-0.0,voc_e2,11701,"[{""event"":""fullscreenenter"",""trial"":1,""time"":2452}]",NA,NA,NA,NA,NA,3,#741CD8,#D8271C,10,0,0,38,1,3161,39,0,1413,0,1,experiment,NA,NA,1,0.3,0.7,3,2,1,1,NA
fcp-trial,41,642559,0.0-10.0-0.0,voc_e2,11701,"[{""event"":""fullscreenenter"",""trial"":1,""time"":2452}]",NA,NA,NA,NA,NA,1,#FA92F8,#1CD855,10,10,0,38,1,1629,39,0,1338,10,1,experiment,NA,NA,2,0.5,0.5,5,4,2,1,NA
fcp-trial,42,646259,0.0-11.0-0.0,voc_e2,11701,"[{""event"":""fullscreenenter"",""trial"":1,""time"":2452}]",NA,NA,NA,NA,NA,5,#D89F1C,#3386FF,0,0,1,38,1,1458,39,0,733,0,0,experiment,NA,NA,0,0.9,0.1,0,1,3,1,NA
fcp-trial,43,649291,0.0-12.0-0.0,voc_e2,11701,"[{""event"":""fullscreenenter"",""trial"":1,""time"":2452}]",NA,NA,NA,NA,NA,6,#D8271C,#741CD8,10,0,1,38,1,771,39,0,751,0,0,experiment,NA,NA,1,0.7,0.3,2,3,4,1,NA
fcp-trial,44,651961,0.0-13.0-0.0,voc_e2,11701,"[{""event"":""fullscreenenter"",""trial"":1,""time"":2452}]",NA,NA,NA,NA,NA,3,#FA92F8,#1CD855,10,10,0,38,1,738.9999999998836,39,0,419.0000000001164,10,1,experiment,NA,NA,2,0.5,0.5,5,4,5,1,NA
fcp-trial,45,657784,0.0-14.0-0.0,voc_e2,11701,"[{""event"":""fullscreenenter"",""trial"":1,""time"":2452}]",NA,NA,NA,NA,NA,0,#741CD8,#D8271C,0,0,0,38,1,3839,39,0,475,0,1,experiment,NA,NA,1,0.3,0.7,3,2,6,1,NA
fcp-trial,46,662331,0.0-15.0-0.0,voc_e2,11701,"[{""event"":""fullscreenenter"",""trial"":1,""time"":2452}]",NA,NA,NA,NA,NA,0,#D89F1C,#3386FF,10,0,1,38,1,2140,39,0,898,0,0,experiment,NA,NA,0,0.9,0.1,0,1,7,1,NA
fcp-trial,47,665080,0.0-16.0-0.0,voc_e2,11701,"[{""event"":""fullscreenenter"",""trial"":1,""time"":2452}]",NA,NA,NA,NA,NA,4,#FA92F8,#1CD855,10,10,0,38,1,809,39,0,430.0000000001164,10,1,experiment,NA,NA,2,0.5,0.5,5,4,8,1,NA
fcp-trial,48,667901,0.0-17.0-0.0,voc_e2,11701,"[{""event"":""fullscreenenter"",""trial"":1,""time"":2452}]",NA,NA,NA,NA,NA,5,#741CD8,#D8271C,0,10,0,38,1,657,37,1,656.0000000001164,0,0,experiment,NA,NA,1,0.3,0.7,3,2,9,1,NA
fcp-trial,49,671328,0.0-18.0-0.0,voc_e2,11701,"[{""event"":""fullscreenenter"",""trial"":1,""time"":2452}]",NA,NA,NA,NA,NA,5,#1CD855,#FA92F8,0,10,1,38,1,1385,37,1,532,0,1,experiment,NA,NA,2,0.5,0.5,4,5,10,1,NA
fcp-trial,50,675121,0.0-19.0-0.0,voc_e2,11701,"[{""event"":""fullscreenenter"",""trial"":1,""time"":2452}]",NA,NA,NA,NA,NA,4,#741CD8,#D8271C,0,10,0,40,0,761.0000000001164,37,1,1516.9999999998836,0,0,experiment,NA,NA,1,0.3,0.7,3,2,11,1,NA
fcp-trial,51,678516,0.0-20.0-0.0,voc_e2,11701,"[{""event"":""fullscreenenter"",""trial"":1,""time"":2452}]",NA,NA,NA,NA,NA,4,#D89F1C,#3386FF,10,0,1,40,0,859,37,1,1026,10,1,experiment,NA,NA,0,0.9,0.1,0,1,12,1,NA
fcp-trial,52,681307,0.0-21.0-0.0,voc_e2,11701,"[{""event"":""fullscreenenter"",""trial"":1,""time"":2452}]",NA,NA,NA,NA,NA,2,#741CD8,#D8271C,0,0,0,40,0,779,37,1,499.0000000001164,0,0,experiment,NA,NA,1,0.3,0.7,3,2,13,1,NA
fcp-trial,53,686466,0.0-22.0-0.0,voc_e2,11701,"[{""event"":""fullscreenenter"",""trial"":1,""time"":2452}]",NA,NA,NA,NA,NA,2,#3386FF,#D89F1C,0,10,0,38,1,2447,37,1,1157,0,0,experiment,NA,NA,0,0.1,0.9,1,0,14,1,NA
fcp-trial,54,689632,0.0-23.0-0.0,voc_e2,11701,"[{""event"":""fullscreenenter"",""trial"":1,""time"":2452}]",NA,NA,NA,NA,NA,2,#FA92F8,#1CD855,10,10,0,38,1,1063.0000000001164,37,1,545,10,0,experiment,NA,NA,2,0.5,0.5,5,4,15,1,NA
fcp-trial,55,692278,0.0-24.0-0.0,voc_e2,11701,"[{""event"":""fullscreenenter"",""trial"":1,""time"":2452}]",NA,NA,NA,NA,NA,1,#3386FF,#D89F1C,0,10,0,38,1,570,39,0,565.0000000001164,10,1,experiment,NA,NA,0,0.1,0.9,1,0,16,1,NA
fcp-trial,56,698825,0.0-25.0-0.0,voc_e2,11701,"[{""event"":""fullscreenenter"",""trial"":1,""time"":2452}]",NA,NA,NA,NA,NA,1,#741CD8,#D8271C,10,0,0,38,1,4288,39,0,748.9999999998836,0,1,experiment,NA,NA,1,0.3,0.7,3,2,17,1,NA
fcp-trial,57,702545,0.0-26.0-0.0,voc_e2,11701,"[{""event"":""fullscreenenter"",""trial"":1,""time"":2452}]",NA,NA,NA,NA,NA,3,#D89F1C,#3386FF,10,0,1,38,1,1870,37,1,336,10,1,experiment,NA,NA,0,0.9,0.1,0,1,18,1,NA
fcp-trial,58,705609,0.0-27.0-0.0,voc_e2,11701,"[{""event"":""fullscreenenter"",""trial"":1,""time"":2452}]",NA,NA,NA,NA,NA,6,#D89F1C,#3386FF,10,0,1,40,0,930,37,1,600,10,1,experiment,NA,NA,0,0.9,0.1,0,1,19,1,NA
fcp-trial,59,709222,0.0-28.0-0.0,voc_e2,11701,"[{""event"":""fullscreenenter"",""trial"":1,""time"":2452}]",NA,NA,NA,NA,NA,6,#FA92F8,#1CD855,0,10,0,38,1,1807,39,0,267,10,1,experiment,NA,NA,2,0.5,0.5,5,4,20,1,NA
fcp-trial,60,711857,0.0-29.0-0.0,voc_e2,11701,"[{""event"":""fullscreenenter"",""trial"":1,""time"":2452}]",NA,NA,NA,NA,NA,0,#1CD855,#FA92F8,0,0,1,38,1,786,37,1,335,0,1,experiment,NA,NA,2,0.5,0.5,4,5,21,1,NA
fcp-trial,61,714353,0.0-30.0-0.0,voc_e2,11701,"[{""event"":""fullscreenenter"",""trial"":1,""time"":2452}]",NA,NA,NA,NA,NA,5,#FA92F8,#1CD855,10,0,0,38,1,589,39,0,397,0,1,experiment,NA,NA,2,0.5,0.5,5,4,22,1,NA
fcp-trial,62,717915,0.0-31.0-0.0,voc_e2,11701,"[{""event"":""fullscreenenter"",""trial"":1,""time"":2452}]",NA,NA,NA,NA,NA,5,#D89F1C,#3386FF,10,0,1,40,0,1666.0000000001164,37,1,386.9999999998836,10,1,experiment,NA,NA,0,0.9,0.1,0,1,23,1,NA
fcp-trial,63,722110,0.0-32.0-0.0,voc_e2,11701,"[{""event"":""fullscreenenter"",""trial"":1,""time"":2452}]",NA,NA,NA,NA,NA,3,#D8271C,#741CD8,10,0,1,38,1,1789,39,0,894,0,0,experiment,NA,NA,1,0.7,0.3,2,3,24,1,NA
fcp-trial,64,725303,0.0-33.0-0.0,voc_e2,11701,"[{""event"":""fullscreenenter"",""trial"":1,""time"":2452}]",NA,NA,NA,NA,NA,1,#D8271C,#741CD8,0,10,1,40,0,1124,37,1,555,0,1,experiment,NA,NA,1,0.7,0.3,2,3,25,1,NA
fcp-trial,65,728069,0.0-34.0-0.0,voc_e2,11701,"[{""event"":""fullscreenenter"",""trial"":1,""time"":2452}]",NA,NA,NA,NA,NA,5,#D8271C,#741CD8,10,0,1,40,0,592.9999999998836,39,0,663,0,0,experiment,NA,NA,1,0.7,0.3,2,3,26,1,NA
fcp-trial,66,730971,0.0-35.0-0.0,voc_e2,11701,"[{""event"":""fullscreenenter"",""trial"":1,""time"":2452}]",NA,NA,NA,NA,NA,4,#1CD855,#FA92F8,10,10,1,38,1,1065,37,1,326,10,1,experiment,NA,NA,2,0.5,0.5,4,5,27,1,NA
fcp-trial,67,733965,0.0-36.0-0.0,voc_e2,11701,"[{""event"":""fullscreenenter"",""trial"":1,""time"":2452}]",NA,NA,NA,NA,NA,0,#3386FF,#D89F1C,0,10,0,38,1,932,39,0,542,10,1,experiment,NA,NA,0,0.1,0.9,1,0,28,1,NA
fcp-trial,68,738217,0.0-37.0-0.0,voc_e2,11701,"[{""event"":""fullscreenenter"",""trial"":1,""time"":2452}]",NA,NA,NA,NA,NA,3,#FA92F8,#1CD855,10,10,0,38,1,2293,39,0,450,10,1,experiment,NA,NA,2,0.5,0.5,5,4,29,1,NA
fcp-trial,69,740701,0.0-38.0-0.0,voc_e2,11701,"[{""event"":""fullscreenenter"",""trial"":1,""time"":2452}]",NA,NA,NA,NA,NA,6,#FA92F8,#1CD855,10,0,0,38,1,586,39,0,384,0,1,experiment,NA,NA,2,0.5,0.5,5,4,30,1,NA
fcp-trial,70,745611,0.0-39.0-0.0,voc_e2,11701,"[{""event"":""fullscreenenter"",""trial"":1,""time"":2452}]",NA,NA,NA,NA,NA,0,#741CD8,#D8271C,10,10,0,38,1,2023,37,1,1328.0000000001164,10,0,experiment,NA,NA,1,0.3,0.7,3,2,31,1,NA
fcp-trial,71,748062,0.0-40.0-0.0,voc_e2,11701,"[{""event"":""fullscreenenter"",""trial"":1,""time"":2452}]",NA,NA,NA,NA,NA,2,#1CD855,#FA92F8,0,0,1,38,1,665,37,1,268,0,1,experiment,NA,NA,2,0.5,0.5,4,5,32,1,NA
fcp-trial,72,751660,0.0-41.0-0.0,voc_e2,11701,"[{""event"":""fullscreenenter"",""trial"":1,""time"":2452}]",NA,NA,NA,NA,NA,1,#D89F1C,#3386FF,0,0,1,38,1,1757,37,1,329,0,1,experiment,NA,NA,0,0.9,0.1,0,1,33,1,NA
fcp-trial,73,754230,0.0-42.0-0.0,voc_e2,11701,"[{""event"":""fullscreenenter"",""trial"":1,""time"":2452}]",NA,NA,NA,NA,NA,0,#FA92F8,#1CD855,0,10,0,38,1,735,37,1,322,0,0,experiment,NA,NA,2,0.5,0.5,5,4,34,1,NA
fcp-trial,74,756953,0.0-43.0-0.0,voc_e2,11701,"[{""event"":""fullscreenenter"",""trial"":1,""time"":2452}]",NA,NA,NA,NA,NA,4,#3386FF,#D89F1C,0,10,0,38,1,615,37,1,593.0000000001164,0,0,experiment,NA,NA,0,0.1,0.9,1,0,35,1,NA
fcp-trial,75,760088,0.0-44.0-0.0,voc_e2,11701,"[{""event"":""fullscreenenter"",""trial"":1,""time"":2452}]",NA,NA,NA,NA,NA,2,#D8271C,#741CD8,10,0,1,40,0,1089,37,1,535,10,1,experiment,NA,NA,1,0.7,0.3,2,3,36,1,NA
fcp-trial,76,762712,0.0-45.0-0.0,voc_e2,11701,"[{""event"":""fullscreenenter"",""trial"":1,""time"":2452}]",NA,NA,NA,NA,NA,3,#D89F1C,#3386FF,10,0,1,40,0,187.00000000011642,39,0,923,0,0,experiment,NA,NA,0,0.9,0.1,0,1,37,1,NA
fcp-trial,77,765638,0.0-46.0-0.0,voc_e2,11701,"[{""event"":""fullscreenenter"",""trial"":1,""time"":2452}]",NA,NA,NA,NA,NA,2,#3386FF,#D89F1C,0,10,0,40,0,711,39,0,702.9999999998836,10,1,experiment,NA,NA,0,0.1,0.9,1,0,38,1,NA
fcp-trial,78,769042,0.0-47.0-0.0,voc_e2,11701,"[{""event"":""fullscreenenter"",""trial"":1,""time"":2452}]",NA,NA,NA,NA,NA,1,#1CD855,#FA92F8,0,10,1,40,0,998,39,0,893,10,0,experiment,NA,NA,2,0.5,0.5,4,5,39,1,NA
fcp-trial,79,772411,0.0-48.0-0.0,voc_e2,11701,"[{""event"":""fullscreenenter"",""trial"":1,""time"":2452}]",NA,NA,NA,NA,NA,6,#3386FF,#D89F1C,0,10,0,38,1,1060,37,1,796,0,0,experiment,NA,NA,0,0.1,0.9,1,0,40,1,NA
fcp-trial,80,775900,0.0-49.0-0.0,voc_e2,11701,"[{""event"":""fullscreenenter"",""trial"":1,""time"":2452}]",NA,NA,NA,NA,NA,6,#D8271C,#741CD8,10,0,1,40,0,1138,37,1,841,10,1,experiment,NA,NA,1,0.7,0.3,2,3,41,1,NA
fcp-trial,81,779402,0.0-50.0-0.0,voc_e2,11701,"[{""event"":""fullscreenenter"",""trial"":1,""time"":2452}]",NA,NA,NA,NA,NA,4,#D8271C,#741CD8,10,10,1,40,0,1234,39,0,756,10,0,experiment,NA,NA,1,0.7,0.3,2,3,42,1,NA
fcp-trial,82,782416,0.0-51.0-0.0,voc_e2,11701,"[{""event"":""fullscreenenter"",""trial"":1,""time"":2452}]",NA,NA,NA,NA,NA,2,#1CD855,#FA92F8,10,10,1,40,0,1109,39,0,391,10,0,experiment,NA,NA,2,0.5,0.5,4,5,43,1,NA
fcp-trial,83,784756,0.0-52.0-0.0,voc_e2,11701,"[{""event"":""fullscreenenter"",""trial"":1,""time"":2452}]",NA,NA,NA,NA,NA,2,#3386FF,#D89F1C,0,10,0,40,0,432.0000000001164,37,1,396,0,0,experiment,NA,NA,0,0.1,0.9,1,0,44,1,NA
fcp-trial,84,787543,0.0-53.0-0.0,voc_e2,11701,"[{""event"":""fullscreenenter"",""trial"":1,""time"":2452}]",NA,NA,NA,NA,NA,2,#741CD8,#D8271C,0,0,0,40,0,703,37,1,574,0,0,experiment,NA,NA,1,0.3,0.7,3,2,45,1,NA
fcp-trial,85,790700,0.0-54.0-0.0,voc_e2,11701,"[{""event"":""fullscreenenter"",""trial"":1,""time"":2452}]",NA,NA,NA,NA,NA,1,#1CD855,#FA92F8,0,10,1,38,1,1183,39,0,463,10,0,experiment,NA,NA,2,0.5,0.5,4,5,46,2,NA
fcp-trial,86,794611,0.0-55.0-0.0,voc_e2,11701,"[{""event"":""fullscreenenter"",""trial"":1,""time"":2452}]",NA,NA,NA,NA,NA,5,#FA92F8,#1CD855,0,10,0,40,0,1759,39,0,641,10,1,experiment,NA,NA,2,0.5,0.5,5,4,47,2,NA
fcp-trial,87,797375,0.0-56.0-0.0,voc_e2,11701,"[{""event"":""fullscreenenter"",""trial"":1,""time"":2452}]",NA,NA,NA,NA,NA,5,#3386FF,#D89F1C,0,10,0,40,0,607,37,1,647,0,0,experiment,NA,NA,0,0.1,0.9,1,0,48,2,NA
fcp-trial,88,800547,0.0-57.0-0.0,voc_e2,11701,"[{""event"":""fullscreenenter"",""trial"":1,""time"":2452}]",NA,NA,NA,NA,NA,4,#D8271C,#741CD8,10,0,1,40,0,1097,39,0,564,0,0,experiment,NA,NA,1,0.7,0.3,2,3,49,2,NA
fcp-trial,89,803410,0.0-58.0-0.0,voc_e2,11701,"[{""event"":""fullscreenenter"",""trial"":1,""time"":2452}]",NA,NA,NA,NA,NA,3,#1CD855,#FA92F8,10,10,1,38,1,747,37,1,560,10,1,experiment,NA,NA,2,0.5,0.5,4,5,50,2,NA
fcp-trial,90,806140,0.0-59.0-0.0,voc_e2,11701,"[{""event"":""fullscreenenter"",""trial"":1,""time"":2452}]",NA,NA,NA,NA,NA,4,#D89F1C,#3386FF,10,0,1,40,0,646.0000000001164,39,0,569,0,0,experiment,NA,NA,0,0.9,0.1,0,1,51,2,NA
fcp-trial,91,809528,0.0-60.0-0.0,voc_e2,11701,"[{""event"":""fullscreenenter"",""trial"":1,""time"":2452}]",NA,NA,NA,NA,NA,1,#741CD8,#D8271C,0,10,0,38,1,1604,39,0,271,10,1,experiment,NA,NA,1,0.3,0.7,3,2,52,2,NA
fcp-trial,92,811924,0.0-61.0-0.0,voc_e2,11701,"[{""event"":""fullscreenenter"",""trial"":1,""time"":2452}]",NA,NA,NA,NA,NA,5,#D8271C,#741CD8,0,0,1,38,1,599.0000000001164,37,1,283,0,1,experiment,NA,NA,1,0.7,0.3,2,3,53,2,NA
fcp-trial,93,814415,0.0-62.0-0.0,voc_e2,11701,"[{""event"":""fullscreenenter"",""trial"":1,""time"":2452}]",NA,NA,NA,NA,NA,6,#FA92F8,#1CD855,10,0,0,40,0,576,37,1,405,10,0,experiment,NA,NA,2,0.5,0.5,5,4,54,2,NA
fcp-trial,94,817270,0.0-63.0-0.0,voc_e2,11701,"[{""event"":""fullscreenenter"",""trial"":1,""time"":2452}]",NA,NA,NA,NA,NA,6,#D89F1C,#3386FF,10,0,1,40,0,797,37,1,549,10,1,experiment,NA,NA,0,0.9,0.1,0,1,55,2,NA
fcp-trial,95,820535,0.0-64.0-0.0,voc_e2,11701,"[{""event"":""fullscreenenter"",""trial"":1,""time"":2452}]",NA,NA,NA,NA,NA,6,#741CD8,#D8271C,0,0,0,40,0,1139,39,0,613,0,1,experiment,NA,NA,1,0.3,0.7,3,2,56,2,NA
fcp-trial,96,823391,0.0-65.0-0.0,voc_e2,11701,"[{""event"":""fullscreenenter"",""trial"":1,""time"":2452}]",NA,NA,NA,NA,NA,0,#3386FF,#D89F1C,0,10,0,40,0,701,39,0,645,10,1,experiment,NA,NA,0,0.1,0.9,1,0,57,2,NA
fcp-trial,97,825913,0.0-66.0-0.0,voc_e2,11701,"[{""event"":""fullscreenenter"",""trial"":1,""time"":2452}]",NA,NA,NA,NA,NA,0,#1CD855,#FA92F8,10,10,1,38,1,726,37,1,283,10,1,experiment,NA,NA,2,0.5,0.5,4,5,58,2,NA
fcp-trial,98,828946,0.0-67.0-0.0,voc_e2,11701,"[{""event"":""fullscreenenter"",""trial"":1,""time"":2452}]",NA,NA,NA,NA,NA,0,#D8271C,#741CD8,0,0,1,38,1,1141,37,1,334,0,1,experiment,NA,NA,1,0.7,0.3,2,3,59,2,NA
fcp-trial,99,831249,0.0-68.0-0.0,voc_e2,11701,"[{""event"":""fullscreenenter"",""trial"":1,""time"":2452}]",NA,NA,NA,NA,NA,3,#D8271C,#741CD8,10,10,1,38,1,467.9999999998836,39,0,301,10,0,experiment,NA,NA,1,0.7,0.3,2,3,60,2,NA
fcp-trial,100,834789,0.0-69.0-0.0,voc_e2,11701,"[{""event"":""fullscreenenter"",""trial"":1,""time"":2452}]",NA,NA,NA,NA,NA,1,#3386FF,#D89F1C,0,10,0,38,1,1597,39,0,429,10,1,experiment,NA,NA,0,0.1,0.9,1,0,61,2,NA
fcp-trial,101,837388,0.0-70.0-0.0,voc_e2,11701,"[{""event"":""fullscreenenter"",""trial"":1,""time"":2452}]",NA,NA,NA,NA,NA,3,#D89F1C,#3386FF,10,10,1,38,1,592,37,1,450,10,1,experiment,NA,NA,0,0.9,0.1,0,1,62,2,NA
fcp-trial,102,840450,0.0-71.0-0.0,voc_e2,11701,"[{""event"":""fullscreenenter"",""trial"":1,""time"":2452}]",NA,NA,NA,NA,NA,4,#FA92F8,#1CD855,0,0,0,38,1,1056,37,1,495,0,0,experiment,NA,NA,2,0.5,0.5,5,4,63,2,NA
fcp-trial,103,842802,0.0-72.0-0.0,voc_e2,11701,"[{""event"":""fullscreenenter"",""trial"":1,""time"":2452}]",NA,NA,NA,NA,NA,4,#FA92F8,#1CD855,0,0,0,38,1,527,39,0,314.0000000001164,0,1,experiment,NA,NA,2,0.5,0.5,5,4,64,2,NA
fcp-trial,104,846431,0.0-73.0-0.0,voc_e2,11701,"[{""event"":""fullscreenenter"",""trial"":1,""time"":2452}]",NA,NA,NA,NA,NA,6,#1CD855,#FA92F8,10,0,1,40,0,1471.9999999998836,37,1,611,10,1,experiment,NA,NA,2,0.5,0.5,4,5,65,2,NA
fcp-trial,105,850656,0.0-74.0-0.0,voc_e2,11701,"[{""event"":""fullscreenenter"",""trial"":1,""time"":2452}]",NA,NA,NA,NA,NA,6,#D89F1C,#3386FF,0,0,1,40,0,2225.0000000001164,37,1,422.0000000001164,0,1,experiment,NA,NA,0,0.9,0.1,0,1,66,2,NA
fcp-trial,106,853200,0.0-75.0-0.0,voc_e2,11701,"[{""event"":""fullscreenenter"",""trial"":1,""time"":2452}]",NA,NA,NA,NA,NA,1,#D89F1C,#3386FF,10,0,1,40,0,684.0000000001164,37,1,349,10,1,experiment,NA,NA,0,0.9,0.1,0,1,67,2,NA
fcp-trial,107,857031,0.0-76.0-0.0,voc_e2,11701,"[{""event"":""fullscreenenter"",""trial"":1,""time"":2452}]",NA,NA,NA,NA,NA,0,#741CD8,#D8271C,0,10,0,40,0,1180.0000000001164,39,0,1116,10,1,experiment,NA,NA,1,0.3,0.7,3,2,68,2,NA
fcp-trial,108,859730,0.0-77.0-0.0,voc_e2,11701,"[{""event"":""fullscreenenter"",""trial"":1,""time"":2452}]",NA,NA,NA,NA,NA,3,#1CD855,#FA92F8,10,0,1,40,0,904,37,1,284.0000000001164,10,1,experiment,NA,NA,2,0.5,0.5,4,5,69,2,NA
fcp-trial,109,863244,0.0-78.0-0.0,voc_e2,11701,"[{""event"":""fullscreenenter"",""trial"":1,""time"":2452}]",NA,NA,NA,NA,NA,2,#741CD8,#D8271C,0,10,0,38,1,1485,37,1,413,0,0,experiment,NA,NA,1,0.3,0.7,3,2,70,2,NA
fcp-trial,110,866011,0.0-79.0-0.0,voc_e2,11701,"[{""event"":""fullscreenenter"",""trial"":1,""time"":2452}]",NA,NA,NA,NA,NA,5,#D89F1C,#3386FF,10,10,1,40,0,924,37,1,330,10,1,experiment,NA,NA,0,0.9,0.1,0,1,71,2,NA
fcp-trial,111,868591,0.0-80.0-0.0,voc_e2,11701,"[{""event"":""fullscreenenter"",""trial"":1,""time"":2452}]",NA,NA,NA,NA,NA,0,#1CD855,#FA92F8,0,10,1,38,1,766,37,1,282,0,1,experiment,NA,NA,2,0.5,0.5,4,5,72,2,NA
fcp-trial,112,871836,0.0-81.0-0.0,voc_e2,11701,"[{""event"":""fullscreenenter"",""trial"":1,""time"":2452}]",NA,NA,NA,NA,NA,5,#D8271C,#741CD8,10,10,1,40,0,1337,37,1,397,10,1,experiment,NA,NA,1,0.7,0.3,2,3,73,2,NA
fcp-trial,113,874705,0.0-82.0-0.0,voc_e2,11701,"[{""event"":""fullscreenenter"",""trial"":1,""time"":2452}]",NA,NA,NA,NA,NA,4,#3386FF,#D89F1C,0,10,0,40,0,696,37,1,662,0,0,experiment,NA,NA,0,0.1,0.9,1,0,74,2,NA
fcp-trial,114,877300,0.0-83.0-0.0,voc_e2,11701,"[{""event"":""fullscreenenter"",""trial"":1,""time"":2452}]",NA,NA,NA,NA,NA,4,#741CD8,#D8271C,10,10,0,40,0,522,37,1,537.9999999998836,10,0,experiment,NA,NA,1,0.3,0.7,3,2,75,2,NA
fcp-trial,115,880351,0.0-84.0-0.0,voc_e2,11701,"[{""event"":""fullscreenenter"",""trial"":1,""time"":2452}]",NA,NA,NA,NA,NA,2,#D89F1C,#3386FF,0,0,1,40,0,1061,37,1,479,0,1,experiment,NA,NA,0,0.9,0.1,0,1,76,2,NA
fcp-trial,116,883449,0.0-85.0-0.0,voc_e2,11701,"[{""event"":""fullscreenenter"",""trial"":1,""time"":2452}]",NA,NA,NA,NA,NA,2,#FA92F8,#1CD855,0,10,0,38,1,1228,39,0,334,10,1,experiment,NA,NA,2,0.5,0.5,5,4,77,2,NA
fcp-trial,117,887439,0.0-86.0-0.0,voc_e2,11701,"[{""event"":""fullscreenenter"",""trial"":1,""time"":2452}]",NA,NA,NA,NA,NA,3,#D8271C,#741CD8,10,10,1,38,1,1713,39,0,739,10,0,experiment,NA,NA,1,0.7,0.3,2,3,78,2,NA
fcp-trial,118,890642,0.0-87.0-0.0,voc_e2,11701,"[{""event"":""fullscreenenter"",""trial"":1,""time"":2452}]",NA,NA,NA,NA,NA,6,#741CD8,#D8271C,0,10,0,40,0,1259,37,1,433,0,0,experiment,NA,NA,1,0.3,0.7,3,2,79,2,NA
fcp-trial,119,893614,0.0-88.0-0.0,voc_e2,11701,"[{""event"":""fullscreenenter"",""trial"":1,""time"":2452}]",NA,NA,NA,NA,NA,5,#1CD855,#FA92F8,0,0,1,40,0,1112,37,1,350.0000000001164,0,1,experiment,NA,NA,2,0.5,0.5,4,5,80,2,NA
fcp-trial,120,897836,0.0-89.0-0.0,voc_e2,11701,"[{""event"":""fullscreenenter"",""trial"":1,""time"":2452}]",NA,NA,NA,NA,NA,3,#3386FF,#D89F1C,0,10,0,40,0,2161,37,1,550,0,0,experiment,NA,NA,0,0.1,0.9,1,0,81,2,NA
fcp-trial,121,901884,0.0-90.0-0.0,voc_e2,11701,"[{""event"":""fullscreenenter"",""trial"":1,""time"":2452}]",NA,NA,NA,NA,NA,0,#3386FF,#D89F1C,0,10,0,38,1,1390.9999999998836,39,0,1144,10,1,experiment,NA,NA,0,0.1,0.9,1,0,82,2,NA
fcp-trial,122,905155,0.0-91.0-0.0,voc_e2,11701,"[{""event"":""fullscreenenter"",""trial"":1,""time"":2452}]",NA,NA,NA,NA,NA,1,#1CD855,#FA92F8,0,0,1,38,1,1498.9999999998836,39,0,263,0,0,experiment,NA,NA,2,0.5,0.5,4,5,83,2,NA
fcp-trial,123,908884,0.0-92.0-0.0,voc_e2,11701,"[{""event"":""fullscreenenter"",""trial"":1,""time"":2452}]",NA,NA,NA,NA,NA,1,#D8271C,#741CD8,10,0,1,38,1,1770.0000000001164,39,0,447,0,0,experiment,NA,NA,1,0.7,0.3,2,3,84,2,NA
fcp-trial,124,912056,0.0-93.0-0.0,voc_e2,11701,"[{""event"":""fullscreenenter"",""trial"":1,""time"":2452}]",NA,NA,NA,NA,NA,2,#FA92F8,#1CD855,0,0,0,38,1,1335,39,0,325,0,1,experiment,NA,NA,2,0.5,0.5,5,4,85,2,NA
fcp-trial,125,915358,0.0-94.0-0.0,voc_e2,11701,"[{""event"":""fullscreenenter"",""trial"":1,""time"":2452}]",NA,NA,NA,NA,NA,4,#741CD8,#D8271C,0,0,0,38,1,1199,39,0,593,0,1,experiment,NA,NA,1,0.3,0.7,3,2,86,2,NA
fcp-trial,126,918113,0.0-95.0-0.0,voc_e2,11701,"[{""event"":""fullscreenenter"",""trial"":1,""time"":2452}]",NA,NA,NA,NA,NA,3,#D89F1C,#3386FF,10,0,1,38,1,809,37,1,430.9999999998836,10,1,experiment,NA,NA,0,0.9,0.1,0,1,87,2,NA
fcp-trial,127,921295,0.0-96.0-0.0,voc_e2,11701,"[{""event"":""fullscreenenter"",""trial"":1,""time"":2452}]",NA,NA,NA,NA,NA,5,#D8271C,#741CD8,10,10,1,40,0,1381.9999999998836,37,1,287,10,1,experiment,NA,NA,1,0.7,0.3,2,3,88,2,NA
fcp-trial,128,924356,0.0-97.0-0.0,voc_e2,11701,"[{""event"":""fullscreenenter"",""trial"":1,""time"":2452}]",NA,NA,NA,NA,NA,6,#1CD855,#FA92F8,10,10,1,40,0,1141.0000000001164,37,1,384,10,1,experiment,NA,NA,2,0.5,0.5,4,5,89,2,NA
fcp-trial,129,928280,0.0-98.0-0.0,voc_e2,11701,"[{""event"":""fullscreenenter"",""trial"":1,""time"":2452}]",NA,NA,NA,NA,NA,4,#D89F1C,#3386FF,10,0,1,40,0,1536,39,0,877,0,0,experiment,NA,NA,0,0.9,0.1,0,1,90,2,NA
fcp-trial,130,932817,0.0-99.0-0.0,voc_e2,11701,"[{""event"":""fullscreenenter"",""trial"":1,""time"":2452}]",NA,NA,NA,NA,NA,2,#741CD8,#D8271C,10,10,0,38,1,979,37,1,2046.0000000001164,10,0,experiment,NA,NA,1,0.3,0.7,3,2,91,3,NA
fcp-trial,131,936519,0.0-100.0-0.0,voc_e2,11701,"[{""event"":""fullscreenenter"",""trial"":1,""time"":2452}]",NA,NA,NA,NA,NA,0,#3386FF,#D89F1C,0,10,0,38,1,1500,37,1,683,0,0,experiment,NA,NA,0,0.1,0.9,1,0,92,3,NA
fcp-trial,132,940007,0.0-101.0-0.0,voc_e2,11701,"[{""event"":""fullscreenenter"",""trial"":1,""time"":2452}]",NA,NA,NA,NA,NA,0,#D8271C,#741CD8,10,0,1,40,0,1323,39,0,655,0,0,experiment,NA,NA,1,0.7,0.3,2,3,93,3,NA
fcp-trial,133,942729,0.0-102.0-0.0,voc_e2,11701,"[{""event"":""fullscreenenter"",""trial"":1,""time"":2452}]",NA,NA,NA,NA,NA,4,#FA92F8,#1CD855,0,10,0,40,0,927,39,0,285,10,1,experiment,NA,NA,2,0.5,0.5,5,4,94,3,NA
fcp-trial,134,946725,0.0-103.0-0.0,voc_e2,11701,"[{""event"":""fullscreenenter"",""trial"":1,""time"":2452}]",NA,NA,NA,NA,NA,1,#741CD8,#D8271C,10,10,0,38,1,1394,37,1,1066.9999999998836,10,0,experiment,NA,NA,1,0.3,0.7,3,2,95,3,NA
fcp-trial,135,950122,0.0-104.0-0.0,voc_e2,11701,"[{""event"":""fullscreenenter"",""trial"":1,""time"":2452}]",NA,NA,NA,NA,NA,3,#1CD855,#FA92F8,10,0,1,38,1,1619,37,1,267,10,1,experiment,NA,NA,2,0.5,0.5,4,5,96,3,NA
fcp-trial,136,954453,0.0-105.0-0.0,voc_e2,11701,"[{""event"":""fullscreenenter"",""trial"":1,""time"":2452}]",NA,NA,NA,NA,NA,2,#D89F1C,#3386FF,10,0,1,38,1,1687,37,1,1129.9999999998836,10,1,experiment,NA,NA,0,0.9,0.1,0,1,97,3,NA
fcp-trial,137,958084,0.0-106.0-0.0,voc_e2,11701,"[{""event"":""fullscreenenter"",""trial"":1,""time"":2452}]",NA,NA,NA,NA,NA,0,#FA92F8,#1CD855,0,10,0,38,1,1689,37,1,431,0,0,experiment,NA,NA,2,0.5,0.5,5,4,98,3,NA
fcp-trial,138,961326,0.0-107.0-0.0,voc_e2,11701,"[{""event"":""fullscreenenter"",""trial"":1,""time"":2452}]",NA,NA,NA,NA,NA,1,#FA92F8,#1CD855,10,10,0,40,0,730,39,0,995.0000000001164,10,1,experiment,NA,NA,2,0.5,0.5,5,4,99,3,NA
fcp-trial,139,964744,0.0-108.0-0.0,voc_e2,11701,"[{""event"":""fullscreenenter"",""trial"":1,""time"":2452}]",NA,NA,NA,NA,NA,3,#741CD8,#D8271C,0,10,0,40,0,1244,37,1,665,0,0,experiment,NA,NA,1,0.3,0.7,3,2,100,3,NA
fcp-trial,140,968098,0.0-109.0-0.0,voc_e2,11701,"[{""event"":""fullscreenenter"",""trial"":1,""time"":2452}]",NA,NA,NA,NA,NA,6,#D8271C,#741CD8,10,0,1,40,0,1154,39,0,689.0000000001164,0,0,experiment,NA,NA,1,0.7,0.3,2,3,101,3,NA
fcp-trial,141,971036,0.0-110.0-0.0,voc_e2,11701,"[{""event"":""fullscreenenter"",""trial"":1,""time"":2452}]",NA,NA,NA,NA,NA,5,#D89F1C,#3386FF,0,0,1,40,0,983.9999999998836,37,1,441.0000000001164,0,1,experiment,NA,NA,0,0.9,0.1,0,1,102,3,NA
fcp-trial,142,974126,0.0-111.0-0.0,voc_e2,11701,"[{""event"":""fullscreenenter"",""trial"":1,""time"":2452}]",NA,NA,NA,NA,NA,5,#FA92F8,#1CD855,0,10,0,38,1,1295.0000000001164,39,0,284.0000000001164,10,1,experiment,NA,NA,2,0.5,0.5,5,4,103,3,NA
fcp-trial,143,977343,0.0-112.0-0.0,voc_e2,11701,"[{""event"":""fullscreenenter"",""trial"":1,""time"":2452}]",NA,NA,NA,NA,NA,6,#D89F1C,#3386FF,10,0,1,40,0,1154.9999999998836,39,0,503.9999999998836,0,0,experiment,NA,NA,0,0.9,0.1,0,1,104,3,NA
fcp-trial,144,980389,0.0-113.0-0.0,voc_e2,11701,"[{""event"":""fullscreenenter"",""trial"":1,""time"":2452}]",NA,NA,NA,NA,NA,1,#3386FF,#D89F1C,0,10,0,38,1,947.0000000001164,39,0,586,10,1,experiment,NA,NA,0,0.1,0.9,1,0,105,3,NA
audio-instructions,145,1141725,0.0-114.0,voc_e2,11701,"[{""event"":""fullscreenenter"",""trial"":1,""time"":2452}]",NA,156887.00000000012,static/audio/pause.wav,NA,0,NA,NA,NA,NA,NA,NA,NA,NA,NA,NA,NA,NA,NA,NA,NA,NA,NA,NA,NA,NA,NA,NA,NA,NA,NA
fcp-trial,146,1146997,0.0-115.0-0.0,voc_e2,11701,"[{""event"":""fullscreenenter"",""trial"":1,""time"":2452}]",NA,NA,NA,NA,NA,3,#741CD8,#D8271C,0,0,0,38,1,2200,39,0,1560.9999999997672,0,1,experiment,NA,NA,1,0.3,0.7,3,2,106,3,NA
fcp-trial,147,1149946,0.0-116.0-0.0,voc_e2,11701,"[{""event"":""fullscreenenter"",""trial"":1,""time"":2452}]",NA,NA,NA,NA,NA,1,#3386FF,#D89F1C,0,10,0,38,1,1074.0000000002328,37,1,365,0,0,experiment,NA,NA,0,0.1,0.9,1,0,107,3,NA
fcp-trial,148,1152813,0.0-117.0-0.0,voc_e2,11701,"[{""event"":""fullscreenenter"",""trial"":1,""time"":2452}]",NA,NA,NA,NA,NA,4,#1CD855,#FA92F8,10,0,1,38,1,926.9999999997672,39,0,431,0,0,experiment,NA,NA,2,0.5,0.5,4,5,108,3,NA
fcp-trial,149,1156065,0.0-118.0-0.0,voc_e2,11701,"[{""event"":""fullscreenenter"",""trial"":1,""time"":2452}]",NA,NA,NA,NA,NA,1,#FA92F8,#1CD855,0,10,0,40,0,1261,39,0,459,10,1,experiment,NA,NA,2,0.5,0.5,5,4,109,3,NA
fcp-trial,150,1159788,0.0-119.0-0.0,voc_e2,11701,"[{""event"":""fullscreenenter"",""trial"":1,""time"":2452}]",NA,NA,NA,NA,NA,1,#741CD8,#D8271C,0,10,0,38,1,1553.0000000002328,37,1,659,0,0,experiment,NA,NA,1,0.3,0.7,3,2,110,3,NA
fcp-trial,151,1162466,0.0-120.0-0.0,voc_e2,11701,"[{""event"":""fullscreenenter"",""trial"":1,""time"":2452}]",NA,NA,NA,NA,NA,0,#3386FF,#D89F1C,0,10,0,38,1,797,37,1,366,0,0,experiment,NA,NA,0,0.1,0.9,1,0,111,3,NA
fcp-trial,152,1165705,0.0-121.0-0.0,voc_e2,11701,"[{""event"":""fullscreenenter"",""trial"":1,""time"":2452}]",NA,NA,NA,NA,NA,5,#1CD855,#FA92F8,0,10,1,40,0,1063,39,0,666.0000000002328,10,0,experiment,NA,NA,2,0.5,0.5,4,5,112,3,NA
fcp-trial,153,1168633,0.0-122.0-0.0,voc_e2,11701,"[{""event"":""fullscreenenter"",""trial"":1,""time"":2452}]",NA,NA,NA,NA,NA,2,#D89F1C,#3386FF,10,0,1,40,0,849.9999999997672,37,1,566,10,1,experiment,NA,NA,0,0.9,0.1,0,1,113,3,NA
fcp-trial,154,1171411,0.0-123.0-0.0,voc_e2,11701,"[{""event"":""fullscreenenter"",""trial"":1,""time"":2452}]",NA,NA,NA,NA,NA,2,#FA92F8,#1CD855,0,0,0,40,0,944,39,0,324,0,1,experiment,NA,NA,2,0.5,0.5,5,4,114,3,NA
fcp-trial,155,1175479,0.0-124.0-0.0,voc_e2,11701,"[{""event"":""fullscreenenter"",""trial"":1,""time"":2452}]",NA,NA,NA,NA,NA,0,#741CD8,#D8271C,0,0,0,38,1,1682,37,1,876,0,0,experiment,NA,NA,1,0.3,0.7,3,2,115,3,NA
fcp-trial,156,1178362,0.0-125.0-0.0,voc_e2,11701,"[{""event"":""fullscreenenter"",""trial"":1,""time"":2452}]",NA,NA,NA,NA,NA,0,#1CD855,#FA92F8,10,10,1,38,1,1006,37,1,366,10,1,experiment,NA,NA,2,0.5,0.5,4,5,116,3,NA
fcp-trial,157,1183138,0.0-126.0-0.0,voc_e2,11701,"[{""event"":""fullscreenenter"",""trial"":1,""time"":2452}]",NA,NA,NA,NA,NA,5,#3386FF,#D89F1C,0,10,0,40,0,2405,37,1,861,0,0,experiment,NA,NA,0,0.1,0.9,1,0,117,3,NA
fcp-trial,158,1186322,0.0-127.0-0.0,voc_e2,11701,"[{""event"":""fullscreenenter"",""trial"":1,""time"":2452}]",NA,NA,NA,NA,NA,5,#D8271C,#741CD8,10,0,1,40,0,1423,37,1,250.99999999976717,10,1,experiment,NA,NA,1,0.7,0.3,2,3,118,3,NA
fcp-trial,159,1189009,0.0-128.0-0.0,voc_e2,11701,"[{""event"":""fullscreenenter"",""trial"":1,""time"":2452}]",NA,NA,NA,NA,NA,2,#D8271C,#741CD8,10,10,1,40,0,920,37,1,256,10,1,experiment,NA,NA,1,0.7,0.3,2,3,119,3,NA
fcp-trial,160,1192290,0.0-129.0-0.0,voc_e2,11701,"[{""event"":""fullscreenenter"",""trial"":1,""time"":2452}]",NA,NA,NA,NA,NA,3,#3386FF,#D89F1C,0,10,0,40,0,1083,39,0,686,10,1,experiment,NA,NA,0,0.1,0.9,1,0,120,3,NA
fcp-trial,161,1195755,0.0-130.0-0.0,voc_e2,11701,"[{""event"":""fullscreenenter"",""trial"":1,""time"":2452}]",NA,NA,NA,NA,NA,3,#FA92F8,#1CD855,10,10,0,40,0,1308.9999999997672,37,1,624.0000000002328,10,0,experiment,NA,NA,2,0.5,0.5,5,4,121,3,NA
fcp-trial,162,1200531,0.0-131.0-0.0,voc_e2,11701,"[{""event"":""fullscreenenter"",""trial"":1,""time"":2452}]",NA,NA,NA,NA,NA,6,#741CD8,#D8271C,0,10,0,38,1,2764,39,0,495,10,1,experiment,NA,NA,1,0.3,0.7,3,2,122,3,NA
fcp-trial,163,1203976,0.0-132.0-0.0,voc_e2,11701,"[{""event"":""fullscreenenter"",""trial"":1,""time"":2452}]",NA,NA,NA,NA,NA,4,#D89F1C,#3386FF,10,0,1,40,0,1262.0000000002328,39,0,670,0,0,experiment,NA,NA,0,0.9,0.1,0,1,123,3,NA
fcp-trial,164,1207124,0.0-133.0-0.0,voc_e2,11701,"[{""event"":""fullscreenenter"",""trial"":1,""time"":2452}]",NA,NA,NA,NA,NA,6,#FA92F8,#1CD855,10,10,0,40,0,1196.9999999997672,39,0,441,10,1,experiment,NA,NA,2,0.5,0.5,5,4,124,3,NA
fcp-trial,165,1210472,0.0-134.0-0.0,voc_e2,11701,"[{""event"":""fullscreenenter"",""trial"":1,""time"":2452}]",NA,NA,NA,NA,NA,6,#3386FF,#D89F1C,0,10,0,40,0,1156,37,1,682,0,0,experiment,NA,NA,0,0.1,0.9,1,0,125,3,NA
fcp-trial,166,1214603,0.0-135.0-0.0,voc_e2,11701,"[{""event"":""fullscreenenter"",""trial"":1,""time"":2452}]",NA,NA,NA,NA,NA,4,#741CD8,#D8271C,0,0,0,38,1,2006,39,0,610,0,1,experiment,NA,NA,1,0.3,0.7,3,2,126,3,NA
fcp-trial,167,1217719,0.0-136.0-0.0,voc_e2,11701,"[{""event"":""fullscreenenter"",""trial"":1,""time"":2452}]",NA,NA,NA,NA,NA,3,#3386FF,#D89F1C,0,10,0,38,1,1095.0000000002328,37,1,511.9999999997672,0,0,experiment,NA,NA,0,0.1,0.9,1,0,127,3,NA
fcp-trial,168,1221173,0.0-137.0-0.0,voc_e2,11701,"[{""event"":""fullscreenenter"",""trial"":1,""time"":2452}]",NA,NA,NA,NA,NA,1,#FA92F8,#1CD855,10,10,0,38,1,1270,39,0,666,10,1,experiment,NA,NA,2,0.5,0.5,5,4,128,3,NA
fcp-trial,169,1224880,0.0-138.0-0.0,voc_e2,11701,"[{""event"":""fullscreenenter"",""trial"":1,""time"":2452}]",NA,NA,NA,NA,NA,0,#D89F1C,#3386FF,10,0,1,38,1,1738,39,0,458,0,0,experiment,NA,NA,0,0.9,0.1,0,1,129,3,NA
fcp-trial,170,1229135,0.0-139.0-0.0,voc_e2,11701,"[{""event"":""fullscreenenter"",""trial"":1,""time"":2452}]",NA,NA,NA,NA,NA,3,#1CD855,#FA92F8,0,0,1,40,0,2140,39,0,604,0,0,experiment,NA,NA,2,0.5,0.5,4,5,130,3,NA
fcp-trial,171,1231992,0.0-140.0-0.0,voc_e2,11701,"[{""event"":""fullscreenenter"",""trial"":1,""time"":2452}]",NA,NA,NA,NA,NA,0,#D8271C,#741CD8,10,10,1,38,1,933,37,1,414,10,1,experiment,NA,NA,1,0.7,0.3,2,3,131,3,NA
fcp-trial,172,1234839,0.0-141.0-0.0,voc_e2,11701,"[{""event"":""fullscreenenter"",""trial"":1,""time"":2452}]",NA,NA,NA,NA,NA,5,#1CD855,#FA92F8,10,10,1,40,0,905,39,0,431,10,0,experiment,NA,NA,2,0.5,0.5,4,5,132,3,NA
fcp-trial,173,1237796,0.0-142.0-0.0,voc_e2,11701,"[{""event"":""fullscreenenter"",""trial"":1,""time"":2452}]",NA,NA,NA,NA,NA,5,#3386FF,#D89F1C,10,10,0,40,0,1015,37,1,430.0000000002328,10,0,experiment,NA,NA,0,0.1,0.9,1,0,133,3,NA
fcp-trial,174,1241255,0.0-143.0-0.0,voc_e2,11701,"[{""event"":""fullscreenenter"",""trial"":1,""time"":2452}]",NA,NA,NA,NA,NA,3,#D8271C,#741CD8,10,10,1,38,1,1607,37,1,316,10,1,experiment,NA,NA,1,0.7,0.3,2,3,134,3,NA
fcp-trial,175,1244189,0.0-144.0-0.0,voc_e2,11701,"[{""event"":""fullscreenenter"",""trial"":1,""time"":2452}]",NA,NA,NA,NA,NA,1,#D8271C,#741CD8,10,10,1,38,1,1125,37,1,296.99999999976717,10,1,experiment,NA,NA,1,0.7,0.3,2,3,135,3,NA
fcp-trial,176,1247230,0.0-145.0-0.0,voc_e2,11701,"[{""event"":""fullscreenenter"",""trial"":1,""time"":2452}]",NA,NA,NA,NA,NA,1,#3386FF,#D89F1C,10,0,0,40,0,1055,39,0,476,0,1,experiment,NA,NA,0,0.1,0.9,1,0,136,4,NA
fcp-trial,177,1250381,0.0-146.0-0.0,voc_e2,11701,"[{""event"":""fullscreenenter"",""trial"":1,""time"":2452}]",NA,NA,NA,NA,NA,2,#1CD855,#FA92F8,0,0,1,38,1,1116,37,1,524,0,1,experiment,NA,NA,2,0.5,0.5,4,5,137,4,NA
fcp-trial,178,1252901,0.0-147.0-0.0,voc_e2,11701,"[{""event"":""fullscreenenter"",""trial"":1,""time"":2452}]",NA,NA,NA,NA,NA,6,#1CD855,#FA92F8,0,0,1,38,1,625.9999999997672,37,1,384,0,1,experiment,NA,NA,2,0.5,0.5,4,5,138,4,NA
fcp-trial,179,1256066,0.0-148.0-0.0,voc_e2,11701,"[{""event"":""fullscreenenter"",""trial"":1,""time"":2452}]",NA,NA,NA,NA,NA,6,#D89F1C,#3386FF,10,10,1,40,0,1269,39,0,385,10,0,experiment,NA,NA,0,0.9,0.1,0,1,139,4,NA
fcp-trial,180,1258816,0.0-149.0-0.0,voc_e2,11701,"[{""event"":""fullscreenenter"",""trial"":1,""time"":2452}]",NA,NA,NA,NA,NA,2,#D8271C,#741CD8,10,10,1,38,1,946.0000000002328,37,1,267,10,1,experiment,NA,NA,1,0.7,0.3,2,3,140,4,NA
fcp-trial,181,1262087,0.0-150.0-0.0,voc_e2,11701,"[{""event"":""fullscreenenter"",""trial"":1,""time"":2452}]",NA,NA,NA,NA,NA,4,#FA92F8,#1CD855,0,0,0,40,0,1160,37,1,578,0,0,experiment,NA,NA,2,0.5,0.5,5,4,141,4,NA
fcp-trial,182,1265058,0.0-151.0-0.0,voc_e2,11701,"[{""event"":""fullscreenenter"",""trial"":1,""time"":2452}]",NA,NA,NA,NA,NA,4,#D8271C,#741CD8,0,0,1,38,1,948,37,1,512.9999999997672,0,1,experiment,NA,NA,1,0.7,0.3,2,3,142,4,NA
fcp-trial,183,1267970,0.0-152.0-0.0,voc_e2,11701,"[{""event"":""fullscreenenter"",""trial"":1,""time"":2452}]",NA,NA,NA,NA,NA,0,#FA92F8,#1CD855,0,0,0,40,0,909,37,1,492,0,0,experiment,NA,NA,2,0.5,0.5,5,4,143,4,NA
fcp-trial,184,1272165,0.0-153.0-0.0,voc_e2,11701,"[{""event"":""fullscreenenter"",""trial"":1,""time"":2452}]",NA,NA,NA,NA,NA,2,#D89F1C,#3386FF,10,0,1,40,0,2156,39,0,528,0,0,experiment,NA,NA,0,0.9,0.1,0,1,144,4,NA
fcp-trial,185,1275314,0.0-154.0-0.0,voc_e2,11701,"[{""event"":""fullscreenenter"",""trial"":1,""time"":2452}]",NA,NA,NA,NA,NA,6,#D8271C,#741CD8,10,0,1,40,0,1026,39,0,614.0000000002328,0,0,experiment,NA,NA,1,0.7,0.3,2,3,145,4,NA
fcp-trial,186,1278220,0.0-155.0-0.0,voc_e2,11701,"[{""event"":""fullscreenenter"",""trial"":1,""time"":2452}]",NA,NA,NA,NA,NA,4,#3386FF,#D89F1C,0,10,0,40,0,992.9999999997672,37,1,402,0,0,experiment,NA,NA,0,0.1,0.9,1,0,146,4,NA
fcp-trial,187,1282467,0.0-156.0-0.0,voc_e2,11701,"[{""event"":""fullscreenenter"",""trial"":1,""time"":2452}]",NA,NA,NA,NA,NA,5,#741CD8,#D8271C,10,0,0,38,1,2180,39,0,534,0,1,experiment,NA,NA,1,0.3,0.7,3,2,147,4,NA
fcp-trial,188,1285410,0.0-157.0-0.0,voc_e2,11701,"[{""event"":""fullscreenenter"",""trial"":1,""time"":2452}]",NA,NA,NA,NA,NA,4,#741CD8,#D8271C,0,10,0,38,1,860,39,0,545,10,1,experiment,NA,NA,1,0.3,0.7,3,2,148,4,NA
fcp-trial,189,1288060,0.0-158.0-0.0,voc_e2,11701,"[{""event"":""fullscreenenter"",""trial"":1,""time"":2452}]",NA,NA,NA,NA,NA,2,#741CD8,#D8271C,0,0,0,38,1,779,39,0,360.9999999997672,0,1,experiment,NA,NA,1,0.3,0.7,3,2,149,4,NA
fcp-trial,190,1290801,0.0-159.0-0.0,voc_e2,11701,"[{""event"":""fullscreenenter"",""trial"":1,""time"":2452}]",NA,NA,NA,NA,NA,2,#D89F1C,#3386FF,10,0,1,40,0,738,39,0,466,0,0,experiment,NA,NA,0,0.9,0.1,0,1,150,4,NA
fcp-trial,191,1293490,0.0-160.0-0.0,voc_e2,11701,"[{""event"":""fullscreenenter"",""trial"":1,""time"":2452}]",NA,NA,NA,NA,NA,3,#D8271C,#741CD8,10,0,1,38,1,913,37,1,263.00000000023283,10,1,experiment,NA,NA,1,0.7,0.3,2,3,151,4,NA
fcp-trial,192,1296549,0.0-161.0-0.0,voc_e2,11701,"[{""event"":""fullscreenenter"",""trial"":1,""time"":2452}]",NA,NA,NA,NA,NA,3,#D89F1C,#3386FF,10,0,1,40,0,1003,37,1,545,10,1,experiment,NA,NA,0,0.9,0.1,0,1,152,4,NA
fcp-trial,193,1299523,0.0-162.0-0.0,voc_e2,11701,"[{""event"":""fullscreenenter"",""trial"":1,""time"":2452}]",NA,NA,NA,NA,NA,3,#FA92F8,#1CD855,10,10,0,38,1,1178,39,0,282.99999999976717,10,1,experiment,NA,NA,2,0.5,0.5,5,4,153,4,NA
fcp-trial,194,1302835,0.0-163.0-0.0,voc_e2,11701,"[{""event"":""fullscreenenter"",""trial"":1,""time"":2452}]",NA,NA,NA,NA,NA,6,#FA92F8,#1CD855,0,10,0,40,0,1270,37,1,530.0000000002328,0,0,experiment,NA,NA,2,0.5,0.5,5,4,154,4,NA
fcp-trial,195,1305403,0.0-164.0-0.0,voc_e2,11701,"[{""event"":""fullscreenenter"",""trial"":1,""time"":2452}]",NA,NA,NA,NA,NA,1,#741CD8,#D8271C,0,10,0,38,1,692,39,0,365,10,1,experiment,NA,NA,1,0.3,0.7,3,2,155,4,NA
fcp-trial,196,1308222,0.0-165.0-0.0,voc_e2,11701,"[{""event"":""fullscreenenter"",""trial"":1,""time"":2452}]",NA,NA,NA,NA,NA,4,#D89F1C,#3386FF,10,0,1,40,0,844,37,1,440,10,1,experiment,NA,NA,0,0.9,0.1,0,1,156,4,NA
fcp-trial,197,1311045,0.0-166.0-0.0,voc_e2,11701,"[{""event"":""fullscreenenter"",""trial"":1,""time"":2452}]",NA,NA,NA,NA,NA,1,#D89F1C,#3386FF,10,0,1,38,1,1052,37,1,260,10,1,experiment,NA,NA,0,0.9,0.1,0,1,157,4,NA
fcp-trial,198,1314292,0.0-167.0-0.0,voc_e2,11701,"[{""event"":""fullscreenenter"",""trial"":1,""time"":2452}]",NA,NA,NA,NA,NA,2,#FA92F8,#1CD855,10,10,0,38,1,1090,39,0,602,10,1,experiment,NA,NA,2,0.5,0.5,5,4,158,4,NA
fcp-trial,199,1318323,0.0-168.0-0.0,voc_e2,11701,"[{""event"":""fullscreenenter"",""trial"":1,""time"":2452}]",NA,NA,NA,NA,NA,0,#D89F1C,#3386FF,10,0,1,38,1,1459,37,1,1060,10,1,experiment,NA,NA,0,0.9,0.1,0,1,159,4,NA
fcp-trial,200,1321598,0.0-169.0-0.0,voc_e2,11701,"[{""event"":""fullscreenenter"",""trial"":1,""time"":2452}]",NA,NA,NA,NA,NA,5,#D8271C,#741CD8,0,10,1,40,0,1321.0000000002328,39,0,446,10,0,experiment,NA,NA,1,0.7,0.3,2,3,160,4,NA
fcp-trial,201,1325418,0.0-170.0-0.0,voc_e2,11701,"[{""event"":""fullscreenenter"",""trial"":1,""time"":2452}]",NA,NA,NA,NA,NA,0,#FA92F8,#1CD855,10,10,0,38,1,1562,39,0,744.9999999997672,10,1,experiment,NA,NA,2,0.5,0.5,5,4,161,4,NA
fcp-trial,202,1328138,0.0-171.0-0.0,voc_e2,11701,"[{""event"":""fullscreenenter"",""trial"":1,""time"":2452}]",NA,NA,NA,NA,NA,6,#D8271C,#741CD8,10,0,1,38,1,785,37,1,416.9999999997672,10,1,experiment,NA,NA,1,0.7,0.3,2,3,162,4,NA
fcp-trial,203,1331514,0.0-172.0-0.0,voc_e2,11701,"[{""event"":""fullscreenenter"",""trial"":1,""time"":2452}]",NA,NA,NA,NA,NA,5,#FA92F8,#1CD855,10,10,0,40,0,1352,37,1,513,10,0,experiment,NA,NA,2,0.5,0.5,5,4,163,4,NA
fcp-trial,204,1334725,0.0-173.0-0.0,voc_e2,11701,"[{""event"":""fullscreenenter"",""trial"":1,""time"":2452}]",NA,NA,NA,NA,NA,5,#3386FF,#D89F1C,0,10,0,40,0,1302,37,1,397,0,0,experiment,NA,NA,0,0.1,0.9,1,0,164,4,NA
fcp-trial,205,1337379,0.0-174.0-0.0,voc_e2,11701,"[{""event"":""fullscreenenter"",""trial"":1,""time"":2452}]",NA,NA,NA,NA,NA,6,#D89F1C,#3386FF,10,0,1,40,0,791,39,0,352,0,0,experiment,NA,NA,0,0.9,0.1,0,1,165,4,NA
fcp-trial,206,1340191,0.0-175.0-0.0,voc_e2,11701,"[{""event"":""fullscreenenter"",""trial"":1,""time"":2452}]",NA,NA,NA,NA,NA,0,#741CD8,#D8271C,10,0,0,38,1,769,39,0,532,0,1,experiment,NA,NA,1,0.3,0.7,3,2,166,4,NA
fcp-trial,207,1343072,0.0-176.0-0.0,voc_e2,11701,"[{""event"":""fullscreenenter"",""trial"":1,""time"":2452}]",NA,NA,NA,NA,NA,1,#FA92F8,#1CD855,0,10,0,38,1,878.9999999997672,39,0,490,10,1,experiment,NA,NA,2,0.5,0.5,5,4,167,4,NA
fcp-trial,208,1346158,0.0-177.0-0.0,voc_e2,11701,"[{""event"":""fullscreenenter"",""trial"":1,""time"":2452}]",NA,NA,NA,NA,NA,4,#FA92F8,#1CD855,0,0,0,38,1,1313.0000000002328,39,0,263.99999999976717,0,1,experiment,NA,NA,2,0.5,0.5,5,4,168,4,NA
fcp-trial,209,1348539,0.0-178.0-0.0,voc_e2,11701,"[{""event"":""fullscreenenter"",""trial"":1,""time"":2452}]",NA,NA,NA,NA,NA,1,#1CD855,#FA92F8,10,10,1,38,1,568,37,1,300.00000000023283,10,1,experiment,NA,NA,2,0.5,0.5,4,5,169,4,NA
fcp-trial,210,1351156,0.0-179.0-0.0,voc_e2,11701,"[{""event"":""fullscreenenter"",""trial"":1,""time"":2452}]",NA,NA,NA,NA,NA,3,#1CD855,#FA92F8,10,0,1,38,1,703,37,1,401,10,1,experiment,NA,NA,2,0.5,0.5,4,5,170,4,NA
fcp-trial,211,1354681,0.0-180.0-0.0,voc_e2,11701,"[{""event"":""fullscreenenter"",""trial"":1,""time"":2452}]",NA,NA,NA,NA,NA,4,#D8271C,#741CD8,10,0,1,38,1,1326,37,1,663,10,1,experiment,NA,NA,1,0.7,0.3,2,3,171,4,NA
fcp-trial,212,1357076,0.0-181.0-0.0,voc_e2,11701,"[{""event"":""fullscreenenter"",""trial"":1,""time"":2452}]",NA,NA,NA,NA,NA,5,#1CD855,#FA92F8,10,0,1,38,1,530,37,1,352,10,1,experiment,NA,NA,2,0.5,0.5,4,5,172,4,NA
fcp-trial,213,1360365,0.0-182.0-0.0,voc_e2,11701,"[{""event"":""fullscreenenter"",""trial"":1,""time"":2452}]",NA,NA,NA,NA,NA,0,#3386FF,#D89F1C,10,10,0,38,1,1143,37,1,635,10,0,experiment,NA,NA,0,0.1,0.9,1,0,173,4,NA
fcp-trial,214,1362715,0.0-183.0-0.0,voc_e2,11701,"[{""event"":""fullscreenenter"",""trial"":1,""time"":2452}]",NA,NA,NA,NA,NA,2,#3386FF,#D89F1C,10,10,0,38,1,583,37,1,250,10,0,experiment,NA,NA,0,0.1,0.9,1,0,174,4,NA
fcp-trial,215,1365578,0.0-184.0-0.0,voc_e2,11701,"[{""event"":""fullscreenenter"",""trial"":1,""time"":2452}]",NA,NA,NA,NA,NA,3,#D8271C,#741CD8,10,0,1,38,1,1012,37,1,298,10,1,experiment,NA,NA,1,0.7,0.3,2,3,175,4,NA
fcp-trial,216,1368056,0.0-185.0-0.0,voc_e2,11701,"[{""event"":""fullscreenenter"",""trial"":1,""time"":2452}]",NA,NA,NA,NA,NA,4,#1CD855,#FA92F8,10,0,1,38,1,499,37,1,447,10,1,experiment,NA,NA,2,0.5,0.5,4,5,176,4,NA
fcp-trial,217,1371020,0.0-186.0-0.0,voc_e2,11701,"[{""event"":""fullscreenenter"",""trial"":1,""time"":2452}]",NA,NA,NA,NA,NA,5,#741CD8,#D8271C,0,10,0,38,1,922,39,0,532.0000000002328,10,1,experiment,NA,NA,1,0.3,0.7,3,2,177,4,NA
fcp-trial,218,1374930,0.0-187.0-0.0,voc_e2,11701,"[{""event"":""fullscreenenter"",""trial"":1,""time"":2452}]",NA,NA,NA,NA,NA,3,#3386FF,#D89F1C,0,10,0,40,0,2088,37,1,308,0,0,experiment,NA,NA,0,0.1,0.9,1,0,178,4,NA
fcp-trial,219,1377806,0.0-188.0-0.0,voc_e2,11701,"[{""event"":""fullscreenenter"",""trial"":1,""time"":2452}]",NA,NA,NA,NA,NA,5,#3386FF,#D89F1C,0,10,0,40,0,913,39,0,452,10,1,experiment,NA,NA,0,0.1,0.9,1,0,179,4,NA
fcp-trial,220,1381566,0.0-189.0-0.0,voc_e2,11701,"[{""event"":""fullscreenenter"",""trial"":1,""time"":2452}]",NA,NA,NA,NA,NA,6,#1CD855,#FA92F8,10,0,1,38,1,1694,37,1,532,10,1,experiment,NA,NA,2,0.5,0.5,4,5,180,4,NA
fcp-trial,221,1385508,0.0-190.0-0.0,voc_e2,11701,"[{""event"":""fullscreenenter"",""trial"":1,""time"":2452}]",NA,NA,NA,NA,NA,1,#3386FF,#D89F1C,0,0,0,40,0,1910,39,0,522,0,1,experiment,NA,NA,0,0.1,0.9,1,0,181,5,NA
fcp-trial,222,1388706,0.0-191.0-0.0,voc_e2,11701,"[{""event"":""fullscreenenter"",""trial"":1,""time"":2452}]",NA,NA,NA,NA,NA,1,#741CD8,#D8271C,0,10,0,38,1,1431,39,0,251,10,1,experiment,NA,NA,1,0.3,0.7,3,2,182,5,NA
fcp-trial,223,1391230,0.0-192.0-0.0,voc_e2,11701,"[{""event"":""fullscreenenter"",""trial"":1,""time"":2452}]",NA,NA,NA,NA,NA,2,#D8271C,#741CD8,0,10,1,38,1,729,37,1,283,0,1,experiment,NA,NA,1,0.7,0.3,2,3,183,5,NA
fcp-trial,224,1394337,0.0-193.0-0.0,voc_e2,11701,"[{""event"":""fullscreenenter"",""trial"":1,""time"":2452}]",NA,NA,NA,NA,NA,6,#3386FF,#D89F1C,0,10,0,40,0,1285,39,0,311.00000000023283,10,1,experiment,NA,NA,0,0.1,0.9,1,0,184,5,NA
fcp-trial,225,1397006,0.0-194.0-0.0,voc_e2,11701,"[{""event"":""fullscreenenter"",""trial"":1,""time"":2452}]",NA,NA,NA,NA,NA,0,#1CD855,#FA92F8,0,0,1,38,1,844.9999999997672,37,1,314,0,1,experiment,NA,NA,2,0.5,0.5,4,5,185,5,NA
fcp-trial,226,1399788,0.0-195.0-0.0,voc_e2,11701,"[{""event"":""fullscreenenter"",""trial"":1,""time"":2452}]",NA,NA,NA,NA,NA,0,#D8271C,#741CD8,10,10,1,38,1,827,37,1,444,10,1,experiment,NA,NA,1,0.7,0.3,2,3,186,5,NA
fcp-trial,227,1402718,0.0-196.0-0.0,voc_e2,11701,"[{""event"":""fullscreenenter"",""trial"":1,""time"":2452}]",NA,NA,NA,NA,NA,2,#1CD855,#FA92F8,0,0,1,38,1,1013,37,1,398.9999999997672,0,1,experiment,NA,NA,2,0.5,0.5,4,5,187,5,NA
fcp-trial,228,1405134,0.0-197.0-0.0,voc_e2,11701,"[{""event"":""fullscreenenter"",""trial"":1,""time"":2452}]",NA,NA,NA,NA,NA,6,#D8271C,#741CD8,10,10,1,38,1,603,37,1,301,10,1,experiment,NA,NA,1,0.7,0.3,2,3,188,5,NA
fcp-trial,229,1408411,0.0-198.0-0.0,voc_e2,11701,"[{""event"":""fullscreenenter"",""trial"":1,""time"":2452}]",NA,NA,NA,NA,NA,4,#D89F1C,#3386FF,10,0,1,40,0,1307,39,0,457,0,0,experiment,NA,NA,0,0.9,0.1,0,1,189,5,NA
fcp-trial,230,1411426,0.0-199.0-0.0,voc_e2,11701,"[{""event"":""fullscreenenter"",""trial"":1,""time"":2452}]",NA,NA,NA,NA,NA,1,#3386FF,#D89F1C,0,10,0,40,0,912,39,0,593,10,1,experiment,NA,NA,0,0.1,0.9,1,0,190,5,NA
fcp-trial,231,1414296,0.0-200.0-0.0,voc_e2,11701,"[{""event"":""fullscreenenter"",""trial"":1,""time"":2452}]",NA,NA,NA,NA,NA,2,#D8271C,#741CD8,10,0,1,38,1,943,37,1,417,10,1,experiment,NA,NA,1,0.7,0.3,2,3,191,5,NA
fcp-trial,232,1417646,0.0-201.0-0.0,voc_e2,11701,"[{""event"":""fullscreenenter"",""trial"":1,""time"":2452}]",NA,NA,NA,NA,NA,0,#D89F1C,#3386FF,10,0,1,38,1,1155,37,1,686.0000000002328,10,1,experiment,NA,NA,0,0.9,0.1,0,1,192,5,NA
fcp-trial,233,1420011,0.0-202.0-0.0,voc_e2,11701,"[{""event"":""fullscreenenter"",""trial"":1,""time"":2452}]",NA,NA,NA,NA,NA,4,#FA92F8,#1CD855,10,0,0,38,1,570,39,0,284.00000000023283,0,1,experiment,NA,NA,2,0.5,0.5,5,4,193,5,NA
fcp-trial,234,1422875,0.0-203.0-0.0,voc_e2,11701,"[{""event"":""fullscreenenter"",""trial"":1,""time"":2452}]",NA,NA,NA,NA,NA,3,#FA92F8,#1CD855,0,0,0,38,1,1084.9999999997672,39,0,266.99999999976717,0,1,experiment,NA,NA,2,0.5,0.5,5,4,194,5,NA
fcp-trial,235,1427020,0.0-204.0-0.0,voc_e2,11701,"[{""event"":""fullscreenenter"",""trial"":1,""time"":2452}]",NA,NA,NA,NA,NA,5,#D8271C,#741CD8,10,0,1,40,0,1867,39,0,766,0,0,experiment,NA,NA,1,0.7,0.3,2,3,195,5,NA
fcp-trial,236,1429837,0.0-205.0-0.0,voc_e2,11701,"[{""event"":""fullscreenenter"",""trial"":1,""time"":2452}]",NA,NA,NA,NA,NA,3,#D89F1C,#3386FF,10,0,1,38,1,956,37,1,350,10,1,experiment,NA,NA,0,0.9,0.1,0,1,196,5,NA
fcp-trial,237,1432270,0.0-206.0-0.0,voc_e2,11701,"[{""event"":""fullscreenenter"",""trial"":1,""time"":2452}]",NA,NA,NA,NA,NA,1,#D8271C,#741CD8,10,0,1,38,1,667,37,1,254,10,1,experiment,NA,NA,1,0.7,0.3,2,3,197,5,NA
fcp-trial,238,1435642,0.0-207.0-0.0,voc_e2,11701,"[{""event"":""fullscreenenter"",""trial"":1,""time"":2452}]",NA,NA,NA,NA,NA,5,#FA92F8,#1CD855,0,0,0,40,0,1333.9999999997672,39,0,527,0,1,experiment,NA,NA,2,0.5,0.5,5,4,198,5,NA
fcp-trial,239,1439612,0.0-208.0-0.0,voc_e2,11701,"[{""event"":""fullscreenenter"",""trial"":1,""time"":2452}]",NA,NA,NA,NA,NA,0,#741CD8,#D8271C,0,10,0,38,1,1847,39,0,613,10,1,experiment,NA,NA,1,0.3,0.7,3,2,199,5,NA
fcp-trial,240,1442564,0.0-209.0-0.0,voc_e2,11701,"[{""event"":""fullscreenenter"",""trial"":1,""time"":2452}]",NA,NA,NA,NA,NA,4,#3386FF,#D89F1C,10,10,0,40,0,992,37,1,449,10,0,experiment,NA,NA,0,0.1,0.9,1,0,200,5,NA
fcp-trial,241,1445812,0.0-210.0-0.0,voc_e2,11701,"[{""event"":""fullscreenenter"",""trial"":1,""time"":2452}]",NA,NA,NA,NA,NA,6,#FA92F8,#1CD855,0,10,0,40,0,1120,39,0,615,10,1,experiment,NA,NA,2,0.5,0.5,5,4,201,5,NA
fcp-trial,242,1449076,0.0-211.0-0.0,voc_e2,11701,"[{""event"":""fullscreenenter"",""trial"":1,""time"":2452}]",NA,NA,NA,NA,NA,2,#D89F1C,#3386FF,0,0,1,38,1,1434,37,1,317,0,1,experiment,NA,NA,0,0.9,0.1,0,1,202,5,NA
fcp-trial,243,1452505,0.0-212.0-0.0,voc_e2,11701,"[{""event"":""fullscreenenter"",""trial"":1,""time"":2452}]",NA,NA,NA,NA,NA,3,#741CD8,#D8271C,10,10,0,40,0,1148.9999999997672,37,1,747,10,0,experiment,NA,NA,1,0.3,0.7,3,2,203,5,NA
fcp-trial,244,1455926,0.0-213.0-0.0,voc_e2,11701,"[{""event"":""fullscreenenter"",""trial"":1,""time"":2452}]",NA,NA,NA,NA,NA,1,#1CD855,#FA92F8,10,10,1,40,0,1162,39,0,744.0000000002328,10,0,experiment,NA,NA,2,0.5,0.5,4,5,204,5,NA
fcp-trial,245,1458419,0.0-214.0-0.0,voc_e2,11701,"[{""event"":""fullscreenenter"",""trial"":1,""time"":2452}]",NA,NA,NA,NA,NA,0,#FA92F8,#1CD855,10,0,0,38,1,680,39,0,280,0,1,experiment,NA,NA,2,0.5,0.5,5,4,205,5,NA
fcp-trial,246,1462295,0.0-215.0-0.0,voc_e2,11701,"[{""event"":""fullscreenenter"",""trial"":1,""time"":2452}]",NA,NA,NA,NA,NA,5,#3386FF,#D89F1C,0,10,0,40,0,1938,39,0,428,10,1,experiment,NA,NA,0,0.1,0.9,1,0,206,5,NA
fcp-trial,247,1465249,0.0-216.0-0.0,voc_e2,11701,"[{""event"":""fullscreenenter"",""trial"":1,""time"":2452}]",NA,NA,NA,NA,NA,6,#3386FF,#D89F1C,0,10,0,40,0,1138,39,0,304,10,1,experiment,NA,NA,0,0.1,0.9,1,0,207,5,NA
fcp-trial,248,1468230,0.0-217.0-0.0,voc_e2,11701,"[{""event"":""fullscreenenter"",""trial"":1,""time"":2452}]",NA,NA,NA,NA,NA,4,#D8271C,#741CD8,10,0,1,38,1,991,37,1,479,10,1,experiment,NA,NA,1,0.7,0.3,2,3,208,5,NA
fcp-trial,249,1471080,0.0-218.0-0.0,voc_e2,11701,"[{""event"":""fullscreenenter"",""trial"":1,""time"":2452}]",NA,NA,NA,NA,NA,6,#D8271C,#741CD8,10,0,1,40,0,621,39,0,719.0000000002328,0,0,experiment,NA,NA,1,0.7,0.3,2,3,209,5,NA
fcp-trial,250,1475378,0.0-219.0-0.0,voc_e2,11701,"[{""event"":""fullscreenenter"",""trial"":1,""time"":2452}]",NA,NA,NA,NA,NA,2,#1CD855,#FA92F8,0,10,1,38,1,2460,39,0,303,10,0,experiment,NA,NA,2,0.5,0.5,4,5,210,5,NA
audio-instructions,251,1642582,0.0-220.0,voc_e2,11701,"[{""event"":""fullscreenenter"",""trial"":1,""time"":2452}]",NA,162756,static/audio/pause.wav,NA,0,NA,NA,NA,NA,NA,NA,NA,NA,NA,NA,NA,NA,NA,NA,NA,NA,NA,NA,NA,NA,NA,NA,NA,NA,NA
fcp-trial,252,1646015,0.0-221.0-0.0,voc_e2,11701,"[{""event"":""fullscreenenter"",""trial"":1,""time"":2452}]",NA,NA,NA,NA,NA,3,#1CD855,#FA92F8,10,0,1,40,0,1293,39,0,633,0,0,experiment,NA,NA,2,0.5,0.5,4,5,211,5,NA
fcp-trial,253,1649784,0.0-222.0-0.0,voc_e2,11701,"[{""event"":""fullscreenenter"",""trial"":1,""time"":2452}]",NA,NA,NA,NA,NA,2,#3386FF,#D89F1C,0,10,0,38,1,1874,39,0,384,10,1,experiment,NA,NA,0,0.1,0.9,1,0,212,5,NA
fcp-trial,254,1653027,0.0-223.0-0.0,voc_e2,11701,"[{""event"":""fullscreenenter"",""trial"":1,""time"":2452}]",NA,NA,NA,NA,NA,5,#D8271C,#741CD8,10,10,1,40,0,1452,37,1,281,10,1,experiment,NA,NA,1,0.7,0.3,2,3,213,5,NA
fcp-trial,255,1655925,0.0-224.0-0.0,voc_e2,11701,"[{""event"":""fullscreenenter"",""trial"":1,""time"":2452}]",NA,NA,NA,NA,NA,0,#3386FF,#D89F1C,0,10,0,38,1,1111,39,0,276,10,1,experiment,NA,NA,0,0.1,0.9,1,0,214,5,NA
fcp-trial,256,1659078,0.0-225.0-0.0,voc_e2,11701,"[{""event"":""fullscreenenter"",""trial"":1,""time"":2452}]",NA,NA,NA,NA,NA,0,#1CD855,#FA92F8,0,10,1,38,1,1058,37,1,584,0,1,experiment,NA,NA,2,0.5,0.5,4,5,215,5,NA
fcp-trial,257,1662119,0.0-226.0-0.0,voc_e2,11701,"[{""event"":""fullscreenenter"",""trial"":1,""time"":2452}]",NA,NA,NA,NA,NA,4,#D8271C,#741CD8,10,0,1,38,1,956,37,1,529,10,1,experiment,NA,NA,1,0.7,0.3,2,3,216,5,NA
fcp-trial,258,1664475,0.0-227.0-0.0,voc_e2,11701,"[{""event"":""fullscreenenter"",""trial"":1,""time"":2452}]",NA,NA,NA,NA,NA,6,#1CD855,#FA92F8,0,0,1,38,1,538,39,0,299,0,0,experiment,NA,NA,2,0.5,0.5,4,5,217,5,NA
fcp-trial,259,1667838,0.0-228.0-0.0,voc_e2,11701,"[{""event"":""fullscreenenter"",""trial"":1,""time"":2452}]",NA,NA,NA,NA,NA,5,#3386FF,#D89F1C,0,10,0,38,1,1224,39,0,581,10,1,experiment,NA,NA,0,0.1,0.9,1,0,218,5,NA
fcp-trial,260,1671002,0.0-229.0-0.0,voc_e2,11701,"[{""event"":""fullscreenenter"",""trial"":1,""time"":2452}]",NA,NA,NA,NA,NA,6,#3386FF,#D89F1C,0,10,0,40,0,1309,39,0,344,10,1,experiment,NA,NA,0,0.1,0.9,1,0,219,5,NA
fcp-trial,261,1674124,0.0-230.0-0.0,voc_e2,11701,"[{""event"":""fullscreenenter"",""trial"":1,""time"":2452}]",NA,NA,NA,NA,NA,2,#741CD8,#D8271C,0,0,0,38,1,1092.9999999997672,39,0,470,0,1,experiment,NA,NA,1,0.3,0.7,3,2,220,5,NA
fcp-trial,262,1677632,0.0-231.0-0.0,voc_e2,11701,"[{""event"":""fullscreenenter"",""trial"":1,""time"":2452}]",NA,NA,NA,NA,NA,2,#FA92F8,#1CD855,0,10,0,38,1,1731.9999999997672,37,1,265,0,0,experiment,NA,NA,2,0.5,0.5,5,4,221,5,NA
fcp-trial,263,1680494,0.0-232.0-0.0,voc_e2,11701,"[{""event"":""fullscreenenter"",""trial"":1,""time"":2452}]",NA,NA,NA,NA,NA,1,#FA92F8,#1CD855,0,0,0,38,1,877,39,0,451,0,1,experiment,NA,NA,2,0.5,0.5,5,4,222,5,NA
fcp-trial,264,1684023,0.0-233.0-0.0,voc_e2,11701,"[{""event"":""fullscreenenter"",""trial"":1,""time"":2452}]",NA,NA,NA,NA,NA,1,#741CD8,#D8271C,0,10,0,38,1,1523,39,0,496,10,1,experiment,NA,NA,1,0.3,0.7,3,2,223,5,NA
fcp-trial,265,1687142,0.0-234.0-0.0,voc_e2,11701,"[{""event"":""fullscreenenter"",""trial"":1,""time"":2452}]",NA,NA,NA,NA,NA,3,#D89F1C,#3386FF,10,0,1,38,1,1259,37,1,349,10,1,experiment,NA,NA,0,0.9,0.1,0,1,224,5,NA
fcp-trial,266,1690172,0.0-235.0-0.0,voc_e2,11701,"[{""event"":""fullscreenenter"",""trial"":1,""time"":2452}]",NA,NA,NA,NA,NA,6,#741CD8,#D8271C,0,0,0,38,1,1182,39,0,334,0,1,experiment,NA,NA,1,0.3,0.7,3,2,225,5,NA
fcp-trial,267,1693771,0.0-236.0-0.0,voc_e2,11701,"[{""event"":""fullscreenenter"",""trial"":1,""time"":2452}]",NA,NA,NA,NA,NA,0,#D8271C,#741CD8,10,0,1,38,1,1345,37,1,715,10,1,experiment,NA,NA,1,0.7,0.3,2,3,226,6,NA
fcp-trial,268,1697283,0.0-237.0-0.0,voc_e2,11701,"[{""event"":""fullscreenenter"",""trial"":1,""time"":2452}]",NA,NA,NA,NA,NA,5,#1CD855,#FA92F8,10,10,1,40,0,1486,37,1,490,10,1,experiment,NA,NA,2,0.5,0.5,4,5,227,6,NA
fcp-trial,269,1700699,0.0-238.0-0.0,voc_e2,11701,"[{""event"":""fullscreenenter"",""trial"":1,""time"":2452}]",NA,NA,NA,NA,NA,4,#3386FF,#D89F1C,10,10,0,38,1,1597,39,0,262,10,1,experiment,NA,NA,0,0.1,0.9,1,0,228,6,NA
fcp-trial,270,1703678,0.0-239.0-0.0,voc_e2,11701,"[{""event"":""fullscreenenter"",""trial"":1,""time"":2452}]",NA,NA,NA,NA,NA,1,#D89F1C,#3386FF,0,0,1,38,1,1086,37,1,382,0,1,experiment,NA,NA,0,0.9,0.1,0,1,229,6,NA
fcp-trial,271,1706528,0.0-240.0-0.0,voc_e2,11701,"[{""event"":""fullscreenenter"",""trial"":1,""time"":2452}]",NA,NA,NA,NA,NA,3,#741CD8,#D8271C,0,10,0,38,1,786,39,0,495,10,1,experiment,NA,NA,1,0.3,0.7,3,2,230,6,NA
fcp-trial,272,1710310,0.0-241.0-0.0,voc_e2,11701,"[{""event"":""fullscreenenter"",""trial"":1,""time"":2452}]",NA,NA,NA,NA,NA,4,#FA92F8,#1CD855,10,0,0,38,1,1766.9999999997672,37,1,498.0000000002328,10,0,experiment,NA,NA,2,0.5,0.5,5,4,231,6,NA
fcp-trial,273,1713365,0.0-242.0-0.0,voc_e2,11701,"[{""event"":""fullscreenenter"",""trial"":1,""time"":2452}]",NA,NA,NA,NA,NA,6,#741CD8,#D8271C,10,10,0,38,1,1149,39,0,392,10,1,experiment,NA,NA,1,0.3,0.7,3,2,232,6,NA
fcp-trial,274,1716505,0.0-243.0-0.0,voc_e2,11701,"[{""event"":""fullscreenenter"",""trial"":1,""time"":2452}]",NA,NA,NA,NA,NA,4,#3386FF,#D89F1C,0,10,0,38,1,1162,39,0,467,10,1,experiment,NA,NA,0,0.1,0.9,1,0,233,6,NA
fcp-trial,275,1720123,0.0-244.0-0.0,voc_e2,11701,"[{""event"":""fullscreenenter"",""trial"":1,""time"":2452}]",NA,NA,NA,NA,NA,2,#1CD855,#FA92F8,10,0,1,38,1,1541,37,1,568,10,1,experiment,NA,NA,2,0.5,0.5,4,5,234,6,NA
fcp-trial,276,1724898,0.0-245.0-0.0,voc_e2,11701,"[{""event"":""fullscreenenter"",""trial"":1,""time"":2452}]",NA,NA,NA,NA,NA,2,#D8271C,#741CD8,10,0,1,38,1,2742,37,1,496,10,1,experiment,NA,NA,1,0.7,0.3,2,3,235,6,NA
fcp-trial,277,1728235,0.0-246.0-0.0,voc_e2,11701,"[{""event"":""fullscreenenter"",""trial"":1,""time"":2452}]",NA,NA,NA,NA,NA,2,#D89F1C,#3386FF,10,0,1,38,1,1392,37,1,434,10,1,experiment,NA,NA,0,0.9,0.1,0,1,236,6,NA
fcp-trial,278,1730763,0.0-247.0-0.0,voc_e2,11701,"[{""event"":""fullscreenenter"",""trial"":1,""time"":2452}]",NA,NA,NA,NA,NA,3,#D8271C,#741CD8,10,0,1,38,1,579,37,1,417,10,1,experiment,NA,NA,1,0.7,0.3,2,3,237,6,NA
fcp-trial,279,1733946,0.0-248.0-0.0,voc_e2,11701,"[{""event"":""fullscreenenter"",""trial"":1,""time"":2452}]",NA,NA,NA,NA,NA,0,#FA92F8,#1CD855,0,0,0,38,1,1359,39,0,312,0,1,experiment,NA,NA,2,0.5,0.5,5,4,238,6,NA
fcp-trial,280,1737008,0.0-249.0-0.0,voc_e2,11701,"[{""event"":""fullscreenenter"",""trial"":1,""time"":2452}]",NA,NA,NA,NA,NA,1,#FA92F8,#1CD855,0,10,0,38,1,712,39,0,812,10,1,experiment,NA,NA,2,0.5,0.5,5,4,239,6,NA
fcp-trial,281,1739789,0.0-250.0-0.0,voc_e2,11701,"[{""event"":""fullscreenenter"",""trial"":1,""time"":2452}]",NA,NA,NA,NA,NA,3,#FA92F8,#1CD855,0,10,0,38,1,975,37,1,294,0,0,experiment,NA,NA,2,0.5,0.5,5,4,240,6,NA
fcp-trial,282,1742715,0.0-251.0-0.0,voc_e2,11701,"[{""event"":""fullscreenenter"",""trial"":1,""time"":2452}]",NA,NA,NA,NA,NA,0,#D89F1C,#3386FF,0,0,1,38,1,1003.9999999997672,37,1,407,0,1,experiment,NA,NA,0,0.9,0.1,0,1,241,6,NA
fcp-trial,283,1746017,0.0-252.0-0.0,voc_e2,11701,"[{""event"":""fullscreenenter"",""trial"":1,""time"":2452}]",NA,NA,NA,NA,NA,0,#D8271C,#741CD8,10,10,1,38,1,830,37,1,962,10,1,experiment,NA,NA,1,0.7,0.3,2,3,242,6,NA
fcp-trial,284,1749049,0.0-253.0-0.0,voc_e2,11701,"[{""event"":""fullscreenenter"",""trial"":1,""time"":2452}]",NA,NA,NA,NA,NA,5,#1CD855,#FA92F8,0,10,1,38,1,1039,39,0,480,10,0,experiment,NA,NA,2,0.5,0.5,4,5,243,6,NA
fcp-trial,285,1751902,0.0-254.0-0.0,voc_e2,11701,"[{""event"":""fullscreenenter"",""trial"":1,""time"":2452}]",NA,NA,NA,NA,NA,6,#3386FF,#D89F1C,0,10,0,38,1,973.9999999997672,39,0,367,10,1,experiment,NA,NA,0,0.1,0.9,1,0,244,6,NA
fcp-trial,286,1754652,0.0-255.0-0.0,voc_e2,11701,"[{""event"":""fullscreenenter"",""trial"":1,""time"":2452}]",NA,NA,NA,NA,NA,1,#D8271C,#741CD8,10,0,1,38,1,948,37,1,283,10,1,experiment,NA,NA,1,0.7,0.3,2,3,245,6,NA
fcp-trial,287,1757216,0.0-256.0-0.0,voc_e2,11701,"[{""event"":""fullscreenenter"",""trial"":1,""time"":2452}]",NA,NA,NA,NA,NA,4,#D8271C,#741CD8,10,10,1,38,1,783,37,1,266,10,1,experiment,NA,NA,1,0.7,0.3,2,3,246,6,NA
fcp-trial,288,1759815,0.0-257.0-0.0,voc_e2,11701,"[{""event"":""fullscreenenter"",""trial"":1,""time"":2452}]",NA,NA,NA,NA,NA,4,#1CD855,#FA92F8,0,0,1,40,0,732,39,0,355,0,0,experiment,NA,NA,2,0.5,0.5,4,5,247,6,NA
fcp-trial,289,1762487,0.0-258.0-0.0,voc_e2,11701,"[{""event"":""fullscreenenter"",""trial"":1,""time"":2452}]",NA,NA,NA,NA,NA,6,#1CD855,#FA92F8,0,10,1,40,0,457.00000000023283,37,1,705,0,1,experiment,NA,NA,2,0.5,0.5,4,5,248,6,NA
fcp-trial,290,1765122,0.0-259.0-0.0,voc_e2,11701,"[{""event"":""fullscreenenter"",""trial"":1,""time"":2452}]",NA,NA,NA,NA,NA,5,#3386FF,#D89F1C,0,10,0,38,1,643,39,0,482,10,1,experiment,NA,NA,0,0.1,0.9,1,0,249,6,NA
fcp-trial,291,1768319,0.0-260.0-0.0,voc_e2,11701,"[{""event"":""fullscreenenter"",""trial"":1,""time"":2452}]",NA,NA,NA,NA,NA,3,#3386FF,#D89F1C,0,10,0,38,1,1237,39,0,449,10,1,experiment,NA,NA,0,0.1,0.9,1,0,250,6,NA
fcp-trial,292,1771921,0.0-261.0-0.0,voc_e2,11701,"[{""event"":""fullscreenenter"",""trial"":1,""time"":2452}]",NA,NA,NA,NA,NA,5,#D8271C,#741CD8,10,0,1,38,1,1808,37,1,282,10,1,experiment,NA,NA,1,0.7,0.3,2,3,251,6,NA
fcp-trial,293,1775333,0.0-262.0-0.0,voc_e2,11701,"[{""event"":""fullscreenenter"",""trial"":1,""time"":2452}]",NA,NA,NA,NA,NA,1,#D89F1C,#3386FF,10,0,1,38,1,1418.0000000002328,37,1,479,10,1,experiment,NA,NA,0,0.9,0.1,0,1,252,6,NA
fcp-trial,294,1778382,0.0-263.0-0.0,voc_e2,11701,"[{""event"":""fullscreenenter"",""trial"":1,""time"":2452}]",NA,NA,NA,NA,NA,1,#FA92F8,#1CD855,0,10,0,40,0,1091,37,1,447,0,0,experiment,NA,NA,2,0.5,0.5,5,4,253,6,NA
fcp-trial,295,1781402,0.0-264.0-0.0,voc_e2,11701,"[{""event"":""fullscreenenter"",""trial"":1,""time"":2452}]",NA,NA,NA,NA,NA,3,#741CD8,#D8271C,0,10,0,38,1,1238,39,0,266,10,1,experiment,NA,NA,1,0.3,0.7,3,2,254,6,NA
fcp-trial,296,1783968,0.0-265.0-0.0,voc_e2,11701,"[{""event"":""fullscreenenter"",""trial"":1,""time"":2452}]",NA,NA,NA,NA,NA,1,#D8271C,#741CD8,10,10,1,38,1,695,37,1,317,10,1,experiment,NA,NA,1,0.7,0.3,2,3,255,6,NA
fcp-trial,297,1786363,0.0-266.0-0.0,voc_e2,11701,"[{""event"":""fullscreenenter"",""trial"":1,""time"":2452}]",NA,NA,NA,NA,NA,4,#D8271C,#741CD8,10,0,1,38,1,584.0000000002328,37,1,298,10,1,experiment,NA,NA,1,0.7,0.3,2,3,256,6,NA
fcp-trial,298,1789691,0.0-267.0-0.0,voc_e2,11701,"[{""event"":""fullscreenenter"",""trial"":1,""time"":2452}]",NA,NA,NA,NA,NA,1,#D89F1C,#3386FF,10,0,1,38,1,1254,37,1,563,10,1,experiment,NA,NA,0,0.9,0.1,0,1,257,6,NA
fcp-trial,299,1792654,0.0-268.0-0.0,voc_e2,11701,"[{""event"":""fullscreenenter"",""trial"":1,""time"":2452}]",NA,NA,NA,NA,NA,3,#FA92F8,#1CD855,0,0,0,40,0,1071,39,0,381,0,1,experiment,NA,NA,2,0.5,0.5,5,4,258,6,NA
fcp-trial,300,1796059,0.0-269.0-0.0,voc_e2,11701,"[{""event"":""fullscreenenter"",""trial"":1,""time"":2452}]",NA,NA,NA,NA,NA,5,#D8271C,#741CD8,10,0,1,38,1,1629.0000000002328,37,1,265.99999999976717,10,1,experiment,NA,NA,1,0.7,0.3,2,3,259,6,NA
fcp-trial,301,1799436,0.0-270.0-0.0,voc_e2,11701,"[{""event"":""fullscreenenter"",""trial"":1,""time"":2452}]",NA,NA,NA,NA,NA,0,#1CD855,#FA92F8,0,0,1,38,1,1565,37,1,301,0,1,experiment,NA,NA,2,0.5,0.5,4,5,260,6,NA
fcp-trial,302,1802830,0.0-271.0-0.0,voc_e2,11701,"[{""event"":""fullscreenenter"",""trial"":1,""time"":2452}]",NA,NA,NA,NA,NA,6,#3386FF,#D89F1C,0,10,0,40,0,1389,37,1,495,0,0,experiment,NA,NA,0,0.1,0.9,1,0,261,6,NA
fcp-trial,303,1805737,0.0-272.0-0.0,voc_e2,11701,"[{""event"":""fullscreenenter"",""trial"":1,""time"":2452}]",NA,NA,NA,NA,NA,2,#FA92F8,#1CD855,10,10,0,40,0,1078,39,0,318.00000000023283,10,1,experiment,NA,NA,2,0.5,0.5,5,4,262,6,NA
fcp-trial,304,1809396,0.0-273.0-0.0,voc_e2,11701,"[{""event"":""fullscreenenter"",""trial"":1,""time"":2452}]",NA,NA,NA,NA,NA,6,#741CD8,#D8271C,0,0,0,38,1,1858,39,0,281,0,1,experiment,NA,NA,1,0.3,0.7,3,2,263,6,NA
fcp-trial,305,1812158,0.0-274.0-0.0,voc_e2,11701,"[{""event"":""fullscreenenter"",""trial"":1,""time"":2452}]",NA,NA,NA,NA,NA,5,#FA92F8,#1CD855,10,0,0,40,0,783.9999999997672,37,1,465,10,0,experiment,NA,NA,2,0.5,0.5,5,4,264,6,NA
fcp-trial,306,1815156,0.0-275.0-0.0,voc_e2,11701,"[{""event"":""fullscreenenter"",""trial"":1,""time"":2452}]",NA,NA,NA,NA,NA,6,#FA92F8,#1CD855,10,0,0,40,0,1161.9999999997672,37,1,324.99999999976717,10,0,experiment,NA,NA,2,0.5,0.5,5,4,265,6,NA
fcp-trial,307,1818006,0.0-276.0-0.0,voc_e2,11701,"[{""event"":""fullscreenenter"",""trial"":1,""time"":2452}]",NA,NA,NA,NA,NA,2,#D89F1C,#3386FF,10,0,1,38,1,894,37,1,445.0000000002328,10,1,experiment,NA,NA,0,0.9,0.1,0,1,266,6,NA
fcp-trial,308,1820630,0.0-277.0-0.0,voc_e2,11701,"[{""event"":""fullscreenenter"",""trial"":1,""time"":2452}]",NA,NA,NA,NA,NA,0,#741CD8,#D8271C,0,10,0,38,1,677.9999999997672,39,0,434,10,1,experiment,NA,NA,1,0.3,0.7,3,2,267,6,NA
fcp-trial,309,1825185,0.0-278.0-0.0,voc_e2,11701,"[{""event"":""fullscreenenter"",""trial"":1,""time"":2452}]",NA,NA,NA,NA,NA,4,#3386FF,#D89F1C,0,0,0,38,1,2611.999999999767,39,0,429,0,1,experiment,NA,NA,0,0.1,0.9,1,0,268,6,NA
fcp-trial,310,1827998,0.0-279.0-0.0,voc_e2,11701,"[{""event"":""fullscreenenter"",""trial"":1,""time"":2452}]",NA,NA,NA,NA,NA,2,#D8271C,#741CD8,0,10,1,38,1,845,37,1,456,0,1,experiment,NA,NA,1,0.7,0.3,2,3,269,6,NA
fcp-trial,311,1831298,0.0-280.0-0.0,voc_e2,11701,"[{""event"":""fullscreenenter"",""trial"":1,""time"":2452}]",NA,NA,NA,NA,NA,4,#1CD855,#FA92F8,10,0,1,40,0,1175,39,0,615,0,0,experiment,NA,NA,2,0.5,0.5,4,5,270,6,NA
fcp-trial,312,1834279,0.0-281.0-0.0,voc_e2,11701,"[{""event"":""fullscreenenter"",""trial"":1,""time"":2452}]",NA,NA,NA,NA,NA,3,#3386FF,#D89F1C,0,10,0,38,1,991,39,0,480,10,1,experiment,NA,NA,0,0.1,0.9,1,0,271,7,NA
fcp-trial,313,1836785,0.0-282.0-0.0,voc_e2,11701,"[{""event"":""fullscreenenter"",""trial"":1,""time"":2452}]",NA,NA,NA,NA,NA,0,#D89F1C,#3386FF,10,0,1,38,1,742,39,0,253.00000000023283,0,0,experiment,NA,NA,0,0.9,0.1,0,1,272,7,NA
fcp-trial,314,1839099,0.0-283.0-0.0,voc_e2,11701,"[{""event"":""fullscreenenter"",""trial"":1,""time"":2452}]",NA,NA,NA,NA,NA,5,#3386FF,#D89F1C,0,10,0,38,1,476.00000000023283,39,0,300,10,1,experiment,NA,NA,0,0.1,0.9,1,0,273,7,NA
fcp-trial,315,1841778,0.0-284.0-0.0,voc_e2,11701,"[{""event"":""fullscreenenter"",""trial"":1,""time"":2452}]",NA,NA,NA,NA,NA,5,#D89F1C,#3386FF,10,0,1,38,1,646,37,1,497,10,1,experiment,NA,NA,0,0.9,0.1,0,1,274,7,NA
fcp-trial,316,1844163,0.0-285.0-0.0,voc_e2,11701,"[{""event"":""fullscreenenter"",""trial"":1,""time"":2452}]",NA,NA,NA,NA,NA,6,#D89F1C,#3386FF,10,0,1,38,1,586,37,1,283,10,1,experiment,NA,NA,0,0.9,0.1,0,1,275,7,NA
fcp-trial,317,1847091,0.0-286.0-0.0,voc_e2,11701,"[{""event"":""fullscreenenter"",""trial"":1,""time"":2452}]",NA,NA,NA,NA,NA,2,#FA92F8,#1CD855,10,10,0,38,1,1114,39,0,302,10,1,experiment,NA,NA,2,0.5,0.5,5,4,276,7,NA
fcp-trial,318,1849654,0.0-287.0-0.0,voc_e2,11701,"[{""event"":""fullscreenenter"",""trial"":1,""time"":2452}]",NA,NA,NA,NA,NA,1,#FA92F8,#1CD855,0,10,0,38,1,625,39,0,428,10,1,experiment,NA,NA,2,0.5,0.5,5,4,277,7,NA
fcp-trial,319,1852134,0.0-288.0-0.0,voc_e2,11701,"[{""event"":""fullscreenenter"",""trial"":1,""time"":2452}]",NA,NA,NA,NA,NA,4,#741CD8,#D8271C,10,0,0,38,1,621,39,0,349.99999999976717,0,1,experiment,NA,NA,1,0.3,0.7,3,2,278,7,NA
fcp-trial,320,1854768,0.0-289.0-0.0,voc_e2,11701,"[{""event"":""fullscreenenter"",""trial"":1,""time"":2452}]",NA,NA,NA,NA,NA,2,#741CD8,#D8271C,0,10,0,38,1,840,39,0,284,10,1,experiment,NA,NA,1,0.3,0.7,3,2,279,7,NA
fcp-trial,321,1857387,0.0-290.0-0.0,voc_e2,11701,"[{""event"":""fullscreenenter"",""trial"":1,""time"":2452}]",NA,NA,NA,NA,NA,2,#3386FF,#D89F1C,0,10,0,38,1,726,39,0,379.9999999997672,10,1,experiment,NA,NA,0,0.1,0.9,1,0,280,7,NA
fcp-trial,322,1859898,0.0-291.0-0.0,voc_e2,11701,"[{""event"":""fullscreenenter"",""trial"":1,""time"":2452}]",NA,NA,NA,NA,NA,6,#1CD855,#FA92F8,0,10,1,38,1,723,37,1,277,0,1,experiment,NA,NA,2,0.5,0.5,4,5,281,7,NA
fcp-trial,323,1862315,0.0-292.0-0.0,voc_e2,11701,"[{""event"":""fullscreenenter"",""trial"":1,""time"":2452}]",NA,NA,NA,NA,NA,3,#3386FF,#D89F1C,0,10,0,38,1,635,39,0,267.00000000023283,10,1,experiment,NA,NA,0,0.1,0.9,1,0,282,7,NA
fcp-trial,324,1864814,0.0-293.0-0.0,voc_e2,11701,"[{""event"":""fullscreenenter"",""trial"":1,""time"":2452}]",NA,NA,NA,NA,NA,6,#741CD8,#D8271C,0,0,0,38,1,676,39,0,311.00000000023283,0,1,experiment,NA,NA,1,0.3,0.7,3,2,283,7,NA
fcp-trial,325,1868459,0.0-294.0-0.0,voc_e2,11701,"[{""event"":""fullscreenenter"",""trial"":1,""time"":2452}]",NA,NA,NA,NA,NA,4,#D89F1C,#3386FF,0,0,1,38,1,1832.9999999997672,37,1,300.00000000023283,0,1,experiment,NA,NA,0,0.9,0.1,0,1,284,7,NA
fcp-trial,326,1871528,0.0-295.0-0.0,voc_e2,11701,"[{""event"":""fullscreenenter"",""trial"":1,""time"":2452}]",NA,NA,NA,NA,NA,0,#1CD855,#FA92F8,0,0,1,38,1,1229,37,1,320.99999999976717,0,1,experiment,NA,NA,2,0.5,0.5,4,5,285,7,NA
fcp-trial,327,1874426,0.0-296.0-0.0,voc_e2,11701,"[{""event"":""fullscreenenter"",""trial"":1,""time"":2452}]",NA,NA,NA,NA,NA,0,#3386FF,#D89F1C,0,10,0,38,1,1002,39,0,383,10,1,experiment,NA,NA,0,0.1,0.9,1,0,286,7,NA
fcp-trial,328,1877382,0.0-297.0-0.0,voc_e2,11701,"[{""event"":""fullscreenenter"",""trial"":1,""time"":2452}]",NA,NA,NA,NA,NA,3,#741CD8,#D8271C,0,10,0,40,0,949,37,1,497.0000000002328,0,0,experiment,NA,NA,1,0.3,0.7,3,2,287,7,NA
fcp-trial,329,1880137,0.0-298.0-0.0,voc_e2,11701,"[{""event"":""fullscreenenter"",""trial"":1,""time"":2452}]",NA,NA,NA,NA,NA,1,#741CD8,#D8271C,0,10,0,38,1,842,39,0,399.9999999997672,10,1,experiment,NA,NA,1,0.3,0.7,3,2,288,7,NA
fcp-trial,330,1882829,0.0-299.0-0.0,voc_e2,11701,"[{""event"":""fullscreenenter"",""trial"":1,""time"":2452}]",NA,NA,NA,NA,NA,4,#FA92F8,#1CD855,0,0,0,40,0,866,39,0,314,0,1,experiment,NA,NA,2,0.5,0.5,5,4,289,7,NA
fcp-trial,331,1886547,0.0-300.0-0.0,voc_e2,11701,"[{""event"":""fullscreenenter"",""trial"":1,""time"":2452}]",NA,NA,NA,NA,NA,1,#D89F1C,#3386FF,10,0,1,38,1,1281,37,1,924.9999999997672,10,1,experiment,NA,NA,0,0.9,0.1,0,1,290,7,NA
fcp-trial,332,1890232,0.0-301.0-0.0,voc_e2,11701,"[{""event"":""fullscreenenter"",""trial"":1,""time"":2452}]",NA,NA,NA,NA,NA,5,#FA92F8,#1CD855,10,0,0,40,0,1176,37,1,998,10,0,experiment,NA,NA,2,0.5,0.5,5,4,291,7,NA
fcp-trial,333,1898123,0.0-302.0-0.0,voc_e2,11701,"[{""event"":""fullscreenenter"",""trial"":1,""time"":2452}]",NA,NA,NA,NA,NA,3,#1CD855,#FA92F8,10,0,1,40,0,1958,37,1,4419,10,1,experiment,NA,NA,2,0.5,0.5,4,5,292,7,NA
fcp-trial,334,1901456,0.0-303.0-0.0,voc_e2,11701,"[{""event"":""fullscreenenter"",""trial"":1,""time"":2452}]",NA,NA,NA,NA,NA,0,#D8271C,#741CD8,0,0,1,38,1,1488,37,1,335,0,1,experiment,NA,NA,1,0.7,0.3,2,3,293,7,NA
fcp-trial,335,1904019,0.0-304.0-0.0,voc_e2,11701,"[{""event"":""fullscreenenter"",""trial"":1,""time"":2452}]",NA,NA,NA,NA,NA,5,#741CD8,#D8271C,0,10,0,38,1,584.9999999997672,39,0,446,10,1,experiment,NA,NA,1,0.3,0.7,3,2,294,7,NA
fcp-trial,336,1906667,0.0-305.0-0.0,voc_e2,11701,"[{""event"":""fullscreenenter"",""trial"":1,""time"":2452}]",NA,NA,NA,NA,NA,0,#3386FF,#D89F1C,0,10,0,38,1,663,39,0,474,10,1,experiment,NA,NA,0,0.1,0.9,1,0,295,7,NA
fcp-trial,337,1909416,0.0-306.0-0.0,voc_e2,11701,"[{""event"":""fullscreenenter"",""trial"":1,""time"":2452}]",NA,NA,NA,NA,NA,1,#3386FF,#D89F1C,10,10,0,38,1,891.0000000002328,39,0,300,10,1,experiment,NA,NA,0,0.1,0.9,1,0,296,7,NA
fcp-trial,338,1912333,0.0-307.0-0.0,voc_e2,11701,"[{""event"":""fullscreenenter"",""trial"":1,""time"":2452}]",NA,NA,NA,NA,NA,2,#FA92F8,#1CD855,0,0,0,38,1,1069,39,0,335.00000000023283,0,1,experiment,NA,NA,2,0.5,0.5,5,4,297,7,NA
fcp-trial,339,1916058,0.0-308.0-0.0,voc_e2,11701,"[{""event"":""fullscreenenter"",""trial"":1,""time"":2452}]",NA,NA,NA,NA,NA,5,#1CD855,#FA92F8,0,10,1,40,0,1432,39,0,779,10,0,experiment,NA,NA,2,0.5,0.5,4,5,298,7,NA
fcp-trial,340,1919173,0.0-309.0-0.0,voc_e2,11701,"[{""event"":""fullscreenenter"",""trial"":1,""time"":2452}]",NA,NA,NA,NA,NA,1,#D8271C,#741CD8,10,0,1,38,1,874,37,1,730,10,1,experiment,NA,NA,1,0.7,0.3,2,3,299,7,NA
fcp-trial,341,1921856,0.0-310.0-0.0,voc_e2,11701,"[{""event"":""fullscreenenter"",""trial"":1,""time"":2452}]",NA,NA,NA,NA,NA,4,#3386FF,#D89F1C,10,0,0,38,1,830,39,0,341,0,1,experiment,NA,NA,0,0.1,0.9,1,0,300,7,NA
fcp-trial,342,1924293,0.0-311.0-0.0,voc_e2,11701,"[{""event"":""fullscreenenter"",""trial"":1,""time"":2452}]",NA,NA,NA,NA,NA,3,#D8271C,#741CD8,10,0,1,38,1,579,37,1,346,10,1,experiment,NA,NA,1,0.7,0.3,2,3,301,7,NA
fcp-trial,343,1927332,0.0-312.0-0.0,voc_e2,11701,"[{""event"":""fullscreenenter"",""trial"":1,""time"":2452}]",NA,NA,NA,NA,NA,6,#741CD8,#D8271C,10,10,0,40,0,1045.9999999997672,37,1,461,10,0,experiment,NA,NA,1,0.3,0.7,3,2,302,7,NA
fcp-trial,344,1931154,0.0-313.0-0.0,voc_e2,11701,"[{""event"":""fullscreenenter"",""trial"":1,""time"":2452}]",NA,NA,NA,NA,NA,3,#1CD855,#FA92F8,0,10,1,38,1,1862,37,1,452,0,1,experiment,NA,NA,2,0.5,0.5,4,5,303,7,NA
fcp-trial,345,1933571,0.0-314.0-0.0,voc_e2,11701,"[{""event"":""fullscreenenter"",""trial"":1,""time"":2452}]",NA,NA,NA,NA,NA,0,#D8271C,#741CD8,10,0,1,38,1,516,37,1,366,10,1,experiment,NA,NA,1,0.7,0.3,2,3,304,7,NA
fcp-trial,346,1937230,0.0-315.0-0.0,voc_e2,11701,"[{""event"":""fullscreenenter"",""trial"":1,""time"":2452}]",NA,NA,NA,NA,NA,2,#D89F1C,#3386FF,10,0,1,38,1,1666.9999999997672,37,1,458,10,1,experiment,NA,NA,0,0.9,0.1,0,1,305,7,NA
fcp-trial,347,1939711,0.0-316.0-0.0,voc_e2,11701,"[{""event"":""fullscreenenter"",""trial"":1,""time"":2452}]",NA,NA,NA,NA,NA,2,#741CD8,#D8271C,0,10,0,38,1,596,39,0,373,10,1,experiment,NA,NA,1,0.3,0.7,3,2,306,7,NA
fcp-trial,348,1942231,0.0-317.0-0.0,voc_e2,11701,"[{""event"":""fullscreenenter"",""trial"":1,""time"":2452}]",NA,NA,NA,NA,NA,3,#D89F1C,#3386FF,10,0,1,38,1,611,37,1,396.9999999997672,10,1,experiment,NA,NA,0,0.9,0.1,0,1,307,7,NA
fcp-trial,349,1948309,0.0-318.0-0.0,voc_e2,11701,"[{""event"":""fullscreenenter"",""trial"":1,""time"":2452}]",NA,NA,NA,NA,NA,0,#1CD855,#FA92F8,0,0,1,38,1,3983,37,1,585,0,1,experiment,NA,NA,2,0.5,0.5,4,5,308,7,NA
fcp-trial,350,1951024,0.0-319.0-0.0,voc_e2,11701,"[{""event"":""fullscreenenter"",""trial"":1,""time"":2452}]",NA,NA,NA,NA,NA,5,#3386FF,#D89F1C,0,10,0,38,1,836,39,0,366,10,1,experiment,NA,NA,0,0.1,0.9,1,0,309,7,NA
fcp-trial,351,1954187,0.0-320.0-0.0,voc_e2,11701,"[{""event"":""fullscreenenter"",""trial"":1,""time"":2452}]",NA,NA,NA,NA,NA,4,#1CD855,#FA92F8,0,0,1,40,0,1277,37,1,331,0,1,experiment,NA,NA,2,0.5,0.5,4,5,310,7,NA
fcp-trial,352,1957936,0.0-321.0-0.0,voc_e2,11701,"[{""event"":""fullscreenenter"",""trial"":1,""time"":2452}]",NA,NA,NA,NA,NA,4,#741CD8,#D8271C,0,10,0,38,1,1718,39,0,519,10,1,experiment,NA,NA,1,0.3,0.7,3,2,311,7,NA
fcp-trial,353,1961347,0.0-322.0-0.0,voc_e2,11701,"[{""event"":""fullscreenenter"",""trial"":1,""time"":2452}]",NA,NA,NA,NA,NA,1,#FA92F8,#1CD855,0,10,0,38,1,1619.0000000002328,39,0,279,10,1,experiment,NA,NA,2,0.5,0.5,5,4,312,7,NA
fcp-trial,354,1965429,0.0-323.0-0.0,voc_e2,11701,"[{""event"":""fullscreenenter"",""trial"":1,""time"":2452}]",NA,NA,NA,NA,NA,6,#1CD855,#FA92F8,0,0,1,40,0,1524,37,1,1047,0,1,experiment,NA,NA,2,0.5,0.5,4,5,313,7,NA
fcp-trial,355,1971445,0.0-324.0-0.0,voc_e2,11701,"[{""event"":""fullscreenenter"",""trial"":1,""time"":2452}]",NA,NA,NA,NA,NA,6,#3386FF,#D89F1C,0,10,0,38,1,3803,39,0,699,10,1,experiment,NA,NA,0,0.1,0.9,1,0,314,7,NA
fcp-trial,356,1974710,0.0-325.0-0.0,voc_e2,11701,"[{""event"":""fullscreenenter"",""trial"":1,""time"":2452}]",NA,NA,NA,NA,NA,5,#741CD8,#D8271C,0,10,0,40,0,1318,37,1,436.0000000002328,0,0,experiment,NA,NA,1,0.3,0.7,3,2,315,7,NA
audio-instructions,357,1982457,0.0-326.0,voc_e2,11701,"[{""event"":""fullscreenenter"",""trial"":1,""time"":2452}]",NA,2108,static/audio/finished.wav,NA,0,NA,NA,NA,NA,NA,NA,NA,NA,NA,NA,NA,NA,NA,NA,NA,NA,NA,NA,NA,NA,NA,NA,NA,NA,NA
audio-instructions,358,1994351,0.0-327.0-0.0,voc_e2,11701,"[{""event"":""fullscreenenter"",""trial"":1,""time"":2452}]",NA,1054.0000000002328,static/audio/explicit1.wav,NA,0,NA,NA,NA,NA,NA,NA,NA,NA,NA,NA,NA,NA,NA,NA,NA,NA,NA,NA,NA,NA,NA,NA,NA,NA,NA
audio-instructions,359,2003043,0.0-327.0-1.0,voc_e2,11701,"[{""event"":""fullscreenenter"",""trial"":1,""time"":2452}]",NA,1095.0000000002328,static/audio/explicit2.wav,NA,0,NA,NA,NA,NA,NA,NA,NA,NA,NA,NA,NA,NA,NA,NA,NA,NA,NA,NA,NA,NA,NA,NA,NA,NA,NA
image-slider-response,360,2008493,0.0-328.0,voc_e2,11701,"[{""event"":""fullscreenenter"",""trial"":1,""time"":2452}]",NA,5445.999999999767,static/img/machines/machine4.png,NA,NA,NA,NA,NA,NA,NA,NA,NA,NA,NA,NA,NA,NA,NA,NA,explicit,NA,NA,NA,NA,NA,NA,NA,NA,NA,7
image-slider-response,361,2012420,0.0-329.0,voc_e2,11701,"[{""event"":""fullscreenenter"",""trial"":1,""time"":2452}]",NA,3924,static/img/machines/machine3.png,NA,NA,NA,NA,NA,NA,NA,NA,NA,NA,NA,NA,NA,NA,NA,NA,explicit,NA,NA,NA,NA,NA,NA,NA,NA,NA,3
image-slider-response,362,2016468,0.0-330.0,voc_e2,11701,"[{""event"":""fullscreenenter"",""trial"":1,""time"":2452}]",NA,4044.0000000004657,static/img/machines/machine6.png,NA,NA,NA,NA,NA,NA,NA,NA,NA,NA,NA,NA,NA,NA,NA,NA,explicit,NA,NA,NA,NA,NA,NA,NA,NA,NA,7
image-slider-response,363,2019751,0.0-331.0,voc_e2,11701,"[{""event"":""fullscreenenter"",""trial"":1,""time"":2452}]",NA,3279,static/img/machines/machine5.png,NA,NA,NA,NA,NA,NA,NA,NA,NA,NA,NA,NA,NA,NA,NA,NA,explicit,NA,NA,NA,NA,NA,NA,NA,NA,NA,6
image-slider-response,364,2023147,0.0-332.0,voc_e2,11701,"[{""event"":""fullscreenenter"",""trial"":1,""time"":2452}]",NA,3393.999999999767,static/img/machines/machine1.png,NA,NA,NA,NA,NA,NA,NA,NA,NA,NA,NA,NA,NA,NA,NA,NA,explicit,NA,NA,NA,NA,NA,NA,NA,NA,NA,8
image-slider-response,365,2032630,0.0-333.0,voc_e2,11701,"[{""event"":""fullscreenenter"",""trial"":1,""time"":2452}]",NA,9481.000000000233,static/img/machines/machine2.png,NA,NA,NA,NA,NA,NA,NA,NA,NA,NA,NA,NA,NA,NA,NA,NA,explicit,NA,NA,NA,NA,NA,NA,NA,NA,NA,3
