trial_type,trial_index,time_elapsed,internal_node_id,task_version,subject_id,interactions,success,rt,stimulus,key_press,button_pressed,offer,arcade_color_L,arcade_color_R,arcade_outcome_L,arcade_outcome_R,correct,stage_1_key,stage_1_choice,stage_1_rt,stage_2_key,stage_2_choice,stage_2_rt,stage_3_outcome,accuracy,phase,responses,num_errors,context,reward_prob_L,reward_prob_R,arcade_id_L,arcade_id_R,trial,block,response
pavlovia,0,5,0.0-0.0,voc_e2,11940,[],NA,NA,NA,NA,NA,NA,NA,NA,NA,NA,NA,NA,NA,NA,NA,NA,NA,NA,NA,NA,NA,NA,NA,NA,NA,NA,NA,NA,NA,NA
fullscreen,1,2911,0.0-1.0,voc_e2,11940,"[{""event"":""fullscreenenter"",""trial"":1,""time"":1947}]",TRUE,NA,NA,NA,NA,NA,NA,NA,NA,NA,NA,NA,NA,NA,NA,NA,NA,NA,NA,NA,NA,NA,NA,NA,NA,NA,NA,NA,NA,NA
audio-keyboard-response,2,7708,0.0-2.0,voc_e2,11940,"[{""event"":""fullscreenenter"",""trial"":1,""time"":1947}]",NA,0,static/audio/beep_loop.wav,32,NA,NA,NA,NA,NA,NA,NA,NA,NA,NA,NA,NA,NA,NA,NA,NA,NA,NA,NA,NA,NA,NA,NA,NA,NA,NA
audio-test,3,9740,0.0-3.0,voc_e2,11940,"[{""event"":""fullscreenenter"",""trial"":1,""time"":1947}]",NA,NA,static/audio/turtle.wav,NA,3,NA,NA,NA,NA,NA,NA,NA,NA,NA,NA,NA,NA,NA,NA,NA,NA,NA,NA,NA,NA,NA,NA,NA,NA,NA
audio-test,4,12191,0.0-4.0,voc_e2,11940,"[{""event"":""fullscreenenter"",""trial"":1,""time"":1947}]",NA,NA,static/audio/shark.wav,NA,2,NA,NA,NA,NA,NA,NA,NA,NA,NA,NA,NA,NA,NA,NA,NA,NA,NA,NA,NA,NA,NA,NA,NA,NA,NA
audio-instructions,5,19658,0.0-5.0-0.0,voc_e2,11940,"[{""event"":""fullscreenenter"",""trial"":1,""time"":1947}]",NA,1683,static/audio/instructions1.wav,NA,0,NA,NA,NA,NA,NA,NA,NA,NA,NA,NA,NA,NA,NA,NA,NA,NA,NA,NA,NA,NA,NA,NA,NA,NA,NA
audio-instructions,6,28941,0.0-5.0-1.0,voc_e2,11940,"[{""event"":""fullscreenenter"",""trial"":1,""time"":1947}]",NA,2540.9999999999964,static/audio/instructions2.wav,NA,0,NA,NA,NA,NA,NA,NA,NA,NA,NA,NA,NA,NA,NA,NA,NA,NA,NA,NA,NA,NA,NA,NA,NA,NA,NA
audio-instructions,7,35724,0.0-5.0-2.0,voc_e2,11940,"[{""event"":""fullscreenenter"",""trial"":1,""time"":1947}]",NA,979.0000000000072,static/audio/instructions3.wav,NA,0,NA,NA,NA,NA,NA,NA,NA,NA,NA,NA,NA,NA,NA,NA,NA,NA,NA,NA,NA,NA,NA,NA,NA,NA,NA
audio-instructions,8,50958,0.0-5.0-3.0,voc_e2,11940,"[{""event"":""fullscreenenter"",""trial"":1,""time"":1947}]",NA,2008,static/audio/instructions4.wav,NA,0,NA,NA,NA,NA,NA,NA,NA,NA,NA,NA,NA,NA,NA,NA,NA,NA,NA,NA,NA,NA,NA,NA,NA,NA,NA
audio-instructions,9,62025,0.0-5.0-4.0,voc_e2,11940,"[{""event"":""fullscreenenter"",""trial"":1,""time"":1947}]",NA,1679,static/audio/instructions5.wav,NA,0,NA,NA,NA,NA,NA,NA,NA,NA,NA,NA,NA,NA,NA,NA,NA,NA,NA,NA,NA,NA,NA,NA,NA,NA,NA
fcp-practice,10,66044,0.0-5.0-5.0-0.0,voc_e2,11940,"[{""event"":""fullscreenenter"",""trial"":1,""time"":1947}]",NA,NA,NA,NA,NA,NA,#EDC948,#46d3c8,10,0,1,null,null,null,37,1,2515,10,1,practice,NA,NA,NA,NA,NA,NA,NA,NA,NA,NA
fcp-practice,11,67877,0.0-5.0-5.0-1.0,voc_e2,11940,"[{""event"":""fullscreenenter"",""trial"":1,""time"":1947}]",NA,NA,NA,NA,NA,NA,#EDC948,#46d3c8,10,0,1,null,null,null,37,1,326,10,1,practice,NA,NA,NA,NA,NA,NA,NA,NA,NA,NA
fcp-practice,12,69967,0.0-5.0-5.0-2.0,voc_e2,11940,"[{""event"":""fullscreenenter"",""trial"":1,""time"":1947}]",NA,NA,NA,NA,NA,NA,#EDC948,#46d3c8,0,10,1,null,null,null,37,1,583,0,1,practice,NA,NA,NA,NA,NA,NA,NA,NA,NA,NA
fcp-practice,13,72447,0.0-5.0-5.0-3.0,voc_e2,11940,"[{""event"":""fullscreenenter"",""trial"":1,""time"":1947}]",NA,NA,NA,NA,NA,NA,#EDC948,#46d3c8,10,0,1,null,null,null,37,1,972,10,1,practice,NA,NA,NA,NA,NA,NA,NA,NA,NA,NA
fcp-practice,14,74210,0.0-5.0-5.0-4.0,voc_e2,11940,"[{""event"":""fullscreenenter"",""trial"":1,""time"":1947}]",NA,NA,NA,NA,NA,NA,#EDC948,#46d3c8,10,0,1,null,null,null,37,1,255,10,1,practice,NA,NA,NA,NA,NA,NA,NA,NA,NA,NA
audio-instructions,15,95459,0.0-5.0-6.0,voc_e2,11940,"[{""event"":""fullscreenenter"",""trial"":1,""time"":1947}]",NA,3237,static/audio/instructions6.wav,NA,0,NA,NA,NA,NA,NA,NA,NA,NA,NA,NA,NA,NA,NA,NA,NA,NA,NA,NA,NA,NA,NA,NA,NA,NA,NA
audio-instructions,16,116226,0.0-5.0-7.0,voc_e2,11940,"[{""event"":""fullscreenenter"",""trial"":1,""time"":1947}]",NA,1567,static/audio/instructions7.wav,NA,0,NA,NA,NA,NA,NA,NA,NA,NA,NA,NA,NA,NA,NA,NA,NA,NA,NA,NA,NA,NA,NA,NA,NA,NA,NA
audio-instructions,17,246648,0.0-5.0-8.0,voc_e2,11940,"[{""event"":""fullscreenenter"",""trial"":1,""time"":1947},{""event"":""blur"",""trial"":17,""time"":191930},{""event"":""focus"",""trial"":17,""time"":244525}]",NA,120946,static/audio/instructions8.wav,NA,0,NA,NA,NA,NA,NA,NA,NA,NA,NA,NA,NA,NA,NA,NA,NA,NA,NA,NA,NA,NA,NA,NA,NA,NA,NA
fcp-comprehension,18,263285,0.0-5.0-9.0,voc_e2,11940,"[{""event"":""fullscreenenter"",""trial"":1,""time"":1947},{""event"":""blur"",""trial"":17,""time"":191930},{""event"":""focus"",""trial"":17,""time"":244525}]",NA,16633.99999999997,NA,NA,NA,NA,NA,NA,NA,NA,NA,NA,NA,NA,NA,NA,NA,NA,NA,NA,"true,true",0,NA,NA,NA,NA,NA,NA,NA,NA
audio-instructions,19,276699,0.0-6.0-0.0,voc_e2,11940,"[{""event"":""fullscreenenter"",""trial"":1,""time"":1947},{""event"":""blur"",""trial"":17,""time"":191930},{""event"":""focus"",""trial"":17,""time"":244525}]",NA,7865,static/audio/instructions9.wav,NA,0,NA,NA,NA,NA,NA,NA,NA,NA,NA,NA,NA,NA,NA,NA,NA,NA,NA,NA,NA,NA,NA,NA,NA,NA,NA
audio-instructions,20,294016,0.0-6.0-1.0,voc_e2,11940,"[{""event"":""fullscreenenter"",""trial"":1,""time"":1947},{""event"":""blur"",""trial"":17,""time"":191930},{""event"":""focus"",""trial"":17,""time"":244525}]",NA,5198,static/audio/instructions10.wav,NA,0,NA,NA,NA,NA,NA,NA,NA,NA,NA,NA,NA,NA,NA,NA,NA,NA,NA,NA,NA,NA,NA,NA,NA,NA,NA
fcp-trial,21,302541,0.0-6.0-2.0,voc_e2,11940,"[{""event"":""fullscreenenter"",""trial"":1,""time"":1947},{""event"":""blur"",""trial"":17,""time"":191930},{""event"":""focus"",""trial"":17,""time"":244525}]",NA,NA,NA,NA,NA,0,#EDC948,#46d3c8,10,10,1,38,1,1416,37,1,5600,10,1,practice,NA,NA,NA,NA,NA,NA,NA,NA,NA,NA
audio-instructions,22,320450,0.0-6.0-3.0,voc_e2,11940,"[{""event"":""fullscreenenter"",""trial"":1,""time"":1947},{""event"":""blur"",""trial"":17,""time"":191930},{""event"":""focus"",""trial"":17,""time"":244525}]",NA,6895.999999999942,static/audio/instructions11.wav,NA,0,NA,NA,NA,NA,NA,NA,NA,NA,NA,NA,NA,NA,NA,NA,NA,NA,NA,NA,NA,NA,NA,NA,NA,NA,NA
fcp-trial,23,324185,0.0-6.0-4.0,voc_e2,11940,"[{""event"":""fullscreenenter"",""trial"":1,""time"":1947},{""event"":""blur"",""trial"":17,""time"":191930},{""event"":""focus"",""trial"":17,""time"":244525}]",NA,NA,NA,NA,NA,6,#EDC948,#46d3c8,10,10,1,40,0,1251,37,1,978,10,1,practice,NA,NA,NA,NA,NA,NA,NA,NA,NA,NA
audio-instructions,24,359767,0.0-6.0-5.0,voc_e2,11940,"[{""event"":""fullscreenenter"",""trial"":1,""time"":1947},{""event"":""blur"",""trial"":17,""time"":191930},{""event"":""focus"",""trial"":17,""time"":244525}]",NA,16889,static/audio/instructions12.wav,NA,0,NA,NA,NA,NA,NA,NA,NA,NA,NA,NA,NA,NA,NA,NA,NA,NA,NA,NA,NA,NA,NA,NA,NA,NA,NA
audio-instructions,25,383764,0.0-6.0-6.0,voc_e2,11940,"[{""event"":""fullscreenenter"",""trial"":1,""time"":1947},{""event"":""blur"",""trial"":17,""time"":191930},{""event"":""focus"",""trial"":17,""time"":244525}]",NA,16404,static/audio/instructions13.wav,NA,0,NA,NA,NA,NA,NA,NA,NA,NA,NA,NA,NA,NA,NA,NA,NA,NA,NA,NA,NA,NA,NA,NA,NA,NA,NA
audio-instructions,26,419824,0.0-6.0-7.0,voc_e2,11940,"[{""event"":""fullscreenenter"",""trial"":1,""time"":1947},{""event"":""blur"",""trial"":17,""time"":191930},{""event"":""focus"",""trial"":17,""time"":244525}]",NA,27616,static/audio/instructions14.wav,NA,0,NA,NA,NA,NA,NA,NA,NA,NA,NA,NA,NA,NA,NA,NA,NA,NA,NA,NA,NA,NA,NA,NA,NA,NA,NA
audio-instructions,27,429824,0.0-7.0-0.0,voc_e2,11940,"[{""event"":""fullscreenenter"",""trial"":1,""time"":1947},{""event"":""blur"",""trial"":17,""time"":191930},{""event"":""focus"",""trial"":17,""time"":244525}]",NA,3086,static/audio/instructions15.wav,NA,0,NA,NA,NA,NA,NA,NA,NA,NA,NA,NA,NA,NA,NA,NA,NA,NA,NA,NA,NA,NA,NA,NA,NA,NA,NA
audio-instructions,28,440541,0.0-7.0-1.0,voc_e2,11940,"[{""event"":""fullscreenenter"",""trial"":1,""time"":1947},{""event"":""blur"",""trial"":17,""time"":191930},{""event"":""focus"",""trial"":17,""time"":244525}]",NA,3890,static/audio/instructions16.wav,NA,0,NA,NA,NA,NA,NA,NA,NA,NA,NA,NA,NA,NA,NA,NA,NA,NA,NA,NA,NA,NA,NA,NA,NA,NA,NA
audio-instructions,29,451274,0.0-7.0-2.0,voc_e2,11940,"[{""event"":""fullscreenenter"",""trial"":1,""time"":1947},{""event"":""blur"",""trial"":17,""time"":191930},{""event"":""focus"",""trial"":17,""time"":244525}]",NA,3054,static/audio/instructions17.wav,NA,0,NA,NA,NA,NA,NA,NA,NA,NA,NA,NA,NA,NA,NA,NA,NA,NA,NA,NA,NA,NA,NA,NA,NA,NA,NA
audio-instructions,30,464941,0.0-7.0-3.0,voc_e2,11940,"[{""event"":""fullscreenenter"",""trial"":1,""time"":1947},{""event"":""blur"",""trial"":17,""time"":191930},{""event"":""focus"",""trial"":17,""time"":244525}]",NA,5901,static/audio/instructions18.wav,NA,0,NA,NA,NA,NA,NA,NA,NA,NA,NA,NA,NA,NA,NA,NA,NA,NA,NA,NA,NA,NA,NA,NA,NA,NA,NA
audio-instructions,31,473392,0.0-7.0-4.0,voc_e2,11940,"[{""event"":""fullscreenenter"",""trial"":1,""time"":1947},{""event"":""blur"",""trial"":17,""time"":191930},{""event"":""focus"",""trial"":17,""time"":244525}]",NA,1706,static/audio/instructions19.wav,NA,0,NA,NA,NA,NA,NA,NA,NA,NA,NA,NA,NA,NA,NA,NA,NA,NA,NA,NA,NA,NA,NA,NA,NA,NA,NA
fcp-comprehension,32,507814,0.0-7.0-5.0,voc_e2,11940,"[{""event"":""fullscreenenter"",""trial"":1,""time"":1947},{""event"":""blur"",""trial"":17,""time"":191930},{""event"":""focus"",""trial"":17,""time"":244525}]",NA,34421.00000000006,NA,NA,NA,NA,NA,NA,NA,NA,NA,NA,NA,NA,NA,NA,NA,NA,NA,NA,"false,false,false,true",0,NA,NA,NA,NA,NA,NA,NA,NA
audio-instructions,33,519175,0.0-8.0,voc_e2,11940,"[{""event"":""fullscreenenter"",""trial"":1,""time"":1947},{""event"":""blur"",""trial"":17,""time"":191930},{""event"":""focus"",""trial"":17,""time"":244525}]",NA,2139,static/audio/ready.wav,NA,0,NA,NA,NA,NA,NA,NA,NA,NA,NA,NA,NA,NA,NA,NA,NA,NA,NA,NA,NA,NA,NA,NA,NA,NA,NA
fcp-trial,34,524884,0.0-9.0-0.0,voc_e2,11940,"[{""event"":""fullscreenenter"",""trial"":1,""time"":1947},{""event"":""blur"",""trial"":17,""time"":191930},{""event"":""focus"",""trial"":17,""time"":244525}]",NA,NA,NA,NA,NA,0,#1CD855,#FA92F8,10,0,1,38,1,3237.999999999942,37,1,964.0000000000582,10,1,experiment,NA,NA,1,0.7,0.3,2,3,1,1,NA
fcp-trial,35,529432,0.0-10.0-0.0,voc_e2,11940,"[{""event"":""fullscreenenter"",""trial"":1,""time"":1947},{""event"":""blur"",""trial"":17,""time"":191930},{""event"":""focus"",""trial"":17,""time"":244525}]",NA,NA,NA,NA,NA,0,#D89F1C,#3386FF,10,0,1,38,1,2153,39,0,882,0,0,experiment,NA,NA,0,0.9,0.1,0,1,2,1,NA
fcp-trial,36,533258,0.0-11.0-0.0,voc_e2,11940,"[{""event"":""fullscreenenter"",""trial"":1,""time"":1947},{""event"":""blur"",""trial"":17,""time"":191930},{""event"":""focus"",""trial"":17,""time"":244525}]",NA,NA,NA,NA,NA,4,#1CD855,#FA92F8,10,0,1,38,1,1623.0000000001164,37,1,688,10,1,experiment,NA,NA,1,0.7,0.3,2,3,3,1,NA
fcp-trial,37,538035,0.0-12.0-0.0,voc_e2,11940,"[{""event"":""fullscreenenter"",""trial"":1,""time"":1947},{""event"":""blur"",""trial"":17,""time"":191930},{""event"":""focus"",""trial"":17,""time"":244525}]",NA,NA,NA,NA,NA,1,#741CD8,#D8271C,0,10,1,38,1,2146.9999999998836,37,1,1119,0,1,experiment,NA,NA,2,0.5,0.5,4,5,4,1,NA
fcp-trial,38,542382,0.0-13.0-0.0,voc_e2,11940,"[{""event"":""fullscreenenter"",""trial"":1,""time"":1947},{""event"":""blur"",""trial"":17,""time"":191930},{""event"":""focus"",""trial"":17,""time"":244525}]",NA,NA,NA,NA,NA,5,#D89F1C,#3386FF,10,0,1,38,1,2002,39,0,833,0,0,experiment,NA,NA,0,0.9,0.1,0,1,5,1,NA
fcp-trial,39,545717,0.0-14.0-0.0,voc_e2,11940,"[{""event"":""fullscreenenter"",""trial"":1,""time"":1947},{""event"":""blur"",""trial"":17,""time"":191930},{""event"":""focus"",""trial"":17,""time"":244525}]",NA,NA,NA,NA,NA,4,#D89F1C,#3386FF,10,0,1,40,0,1155,39,0,668,0,0,experiment,NA,NA,0,0.9,0.1,0,1,6,1,NA
fcp-trial,40,551399,0.0-15.0-0.0,voc_e2,11940,"[{""event"":""fullscreenenter"",""trial"":1,""time"":1947},{""event"":""blur"",""trial"":17,""time"":191930},{""event"":""focus"",""trial"":17,""time"":244525}]",NA,NA,NA,NA,NA,2,#D8271C,#741CD8,0,0,0,38,1,3322,37,1,850,0,0,experiment,NA,NA,2,0.5,0.5,5,4,7,1,NA
fcp-trial,41,555567,0.0-16.0-0.0,voc_e2,11940,"[{""event"":""fullscreenenter"",""trial"":1,""time"":1947},{""event"":""blur"",""trial"":17,""time"":191930},{""event"":""focus"",""trial"":17,""time"":244525}]",NA,NA,NA,NA,NA,2,#1CD855,#FA92F8,0,0,1,38,1,1959.0000000001164,37,1,697,0,1,experiment,NA,NA,1,0.7,0.3,2,3,8,1,NA
fcp-trial,42,559353,0.0-17.0-0.0,voc_e2,11940,"[{""event"":""fullscreenenter"",""trial"":1,""time"":1947},{""event"":""blur"",""trial"":17,""time"":191930},{""event"":""focus"",""trial"":17,""time"":244525}]",NA,NA,NA,NA,NA,6,#741CD8,#D8271C,0,0,1,40,0,1586,39,0,690,0,0,experiment,NA,NA,2,0.5,0.5,4,5,9,1,NA
fcp-trial,43,563869,0.0-18.0-0.0,voc_e2,11940,"[{""event"":""fullscreenenter"",""trial"":1,""time"":1947},{""event"":""blur"",""trial"":17,""time"":191930},{""event"":""focus"",""trial"":17,""time"":244525}]",NA,NA,NA,NA,NA,3,#D89F1C,#3386FF,0,0,1,38,1,2038,39,0,968,0,0,experiment,NA,NA,0,0.9,0.1,0,1,10,1,NA
fcp-trial,44,566851,0.0-19.0-0.0,voc_e2,11940,"[{""event"":""fullscreenenter"",""trial"":1,""time"":1947},{""event"":""blur"",""trial"":17,""time"":191930},{""event"":""focus"",""trial"":17,""time"":244525}]",NA,NA,NA,NA,NA,3,#FA92F8,#1CD855,0,10,0,38,1,936.0000000001164,39,0,534,10,1,experiment,NA,NA,1,0.3,0.7,3,2,11,1,NA
fcp-trial,45,570928,0.0-20.0-0.0,voc_e2,11940,"[{""event"":""fullscreenenter"",""trial"":1,""time"":1947},{""event"":""blur"",""trial"":17,""time"":191930},{""event"":""focus"",""trial"":17,""time"":244525}]",NA,NA,NA,NA,NA,0,#741CD8,#D8271C,0,0,1,40,0,1854,39,0,694.9999999998836,0,0,experiment,NA,NA,2,0.5,0.5,4,5,12,1,NA
fcp-trial,46,574198,0.0-21.0-0.0,voc_e2,11940,"[{""event"":""fullscreenenter"",""trial"":1,""time"":1947},{""event"":""blur"",""trial"":17,""time"":191930},{""event"":""focus"",""trial"":17,""time"":244525}]",NA,NA,NA,NA,NA,6,#FA92F8,#1CD855,10,0,0,38,1,1162,39,0,597,0,1,experiment,NA,NA,1,0.3,0.7,3,2,13,1,NA
fcp-trial,47,577949,0.0-22.0-0.0,voc_e2,11940,"[{""event"":""fullscreenenter"",""trial"":1,""time"":1947},{""event"":""blur"",""trial"":17,""time"":191930},{""event"":""focus"",""trial"":17,""time"":244525}]",NA,NA,NA,NA,NA,4,#741CD8,#D8271C,10,0,1,40,0,1537,39,0,662.9999999998836,0,0,experiment,NA,NA,2,0.5,0.5,4,5,14,1,NA
fcp-trial,48,583802,0.0-23.0-0.0,voc_e2,11940,"[{""event"":""fullscreenenter"",""trial"":1,""time"":1947},{""event"":""blur"",""trial"":17,""time"":191930},{""event"":""focus"",""trial"":17,""time"":244525}]",NA,NA,NA,NA,NA,6,#D89F1C,#3386FF,10,0,1,40,0,3505,37,1,835,10,1,experiment,NA,NA,0,0.9,0.1,0,1,15,1,NA
fcp-trial,49,590383,0.0-24.0-0.0,voc_e2,11940,"[{""event"":""fullscreenenter"",""trial"":1,""time"":1947},{""event"":""blur"",""trial"":17,""time"":191930},{""event"":""focus"",""trial"":17,""time"":244525}]",NA,NA,NA,NA,NA,5,#D8271C,#741CD8,0,0,0,38,1,4288,39,0,781.0000000001164,0,1,experiment,NA,NA,2,0.5,0.5,5,4,16,1,NA
fcp-trial,50,594734,0.0-25.0-0.0,voc_e2,11940,"[{""event"":""fullscreenenter"",""trial"":1,""time"":1947},{""event"":""blur"",""trial"":17,""time"":191930},{""event"":""focus"",""trial"":17,""time"":244525}]",NA,NA,NA,NA,NA,1,#1CD855,#FA92F8,0,0,1,38,1,1406,37,1,1434.0000000001164,0,1,experiment,NA,NA,1,0.7,0.3,2,3,17,1,NA
fcp-trial,51,602767,0.0-26.0-0.0,voc_e2,11940,"[{""event"":""fullscreenenter"",""trial"":1,""time"":1947},{""event"":""blur"",""trial"":17,""time"":191930},{""event"":""focus"",""trial"":17,""time"":244525}]",NA,NA,NA,NA,NA,2,#D89F1C,#3386FF,0,0,1,38,1,4606,37,1,1916,0,1,experiment,NA,NA,0,0.9,0.1,0,1,18,1,NA
fcp-trial,52,606483,0.0-27.0-0.0,voc_e2,11940,"[{""event"":""fullscreenenter"",""trial"":1,""time"":1947},{""event"":""blur"",""trial"":17,""time"":191930},{""event"":""focus"",""trial"":17,""time"":244525}]",NA,NA,NA,NA,NA,1,#D89F1C,#3386FF,10,10,1,38,1,1221,39,0,983,10,0,experiment,NA,NA,0,0.9,0.1,0,1,19,1,NA
fcp-trial,53,610651,0.0-28.0-0.0,voc_e2,11940,"[{""event"":""fullscreenenter"",""trial"":1,""time"":1947},{""event"":""blur"",""trial"":17,""time"":191930},{""event"":""focus"",""trial"":17,""time"":244525}]",NA,NA,NA,NA,NA,3,#741CD8,#D8271C,10,10,1,38,1,1507,37,1,1150,10,1,experiment,NA,NA,2,0.5,0.5,4,5,20,1,NA
fcp-trial,54,614817,0.0-29.0-0.0,voc_e2,11940,"[{""event"":""fullscreenenter"",""trial"":1,""time"":1947},{""event"":""blur"",""trial"":17,""time"":191930},{""event"":""focus"",""trial"":17,""time"":244525}]",NA,NA,NA,NA,NA,5,#1CD855,#FA92F8,10,0,1,38,1,1370,37,1,1283.0000000001164,10,1,experiment,NA,NA,1,0.7,0.3,2,3,21,1,NA
fcp-trial,55,618767,0.0-30.0-0.0,voc_e2,11940,"[{""event"":""fullscreenenter"",""trial"":1,""time"":1947},{""event"":""blur"",""trial"":17,""time"":191930},{""event"":""focus"",""trial"":17,""time"":244525}]",NA,NA,NA,NA,NA,4,#1CD855,#FA92F8,10,10,1,38,1,1437,37,1,1000,10,1,experiment,NA,NA,1,0.7,0.3,2,3,22,1,NA
fcp-trial,56,623334,0.0-31.0-0.0,voc_e2,11940,"[{""event"":""fullscreenenter"",""trial"":1,""time"":1947},{""event"":""blur"",""trial"":17,""time"":191930},{""event"":""focus"",""trial"":17,""time"":244525}]",NA,NA,NA,NA,NA,6,#D89F1C,#3386FF,10,0,1,38,1,2239,39,0,816,0,0,experiment,NA,NA,0,0.9,0.1,0,1,23,1,NA
fcp-trial,57,627016,0.0-32.0-0.0,voc_e2,11940,"[{""event"":""fullscreenenter"",""trial"":1,""time"":1947},{""event"":""blur"",""trial"":17,""time"":191930},{""event"":""focus"",""trial"":17,""time"":244525}]",NA,NA,NA,NA,NA,2,#D89F1C,#3386FF,0,0,1,38,1,1539,39,0,631.9999999998836,0,0,experiment,NA,NA,0,0.9,0.1,0,1,24,1,NA
fcp-trial,58,630618,0.0-33.0-0.0,voc_e2,11940,"[{""event"":""fullscreenenter"",""trial"":1,""time"":1947},{""event"":""blur"",""trial"":17,""time"":191930},{""event"":""focus"",""trial"":17,""time"":244525}]",NA,NA,NA,NA,NA,3,#741CD8,#D8271C,10,10,1,38,1,1356,37,1,733.9999999998836,10,1,experiment,NA,NA,2,0.5,0.5,4,5,25,1,NA
fcp-trial,59,634038,0.0-34.0-0.0,voc_e2,11940,"[{""event"":""fullscreenenter"",""trial"":1,""time"":1947},{""event"":""blur"",""trial"":17,""time"":191930},{""event"":""focus"",""trial"":17,""time"":244525}]",NA,NA,NA,NA,NA,3,#1CD855,#FA92F8,10,0,1,38,1,1238,37,1,671.0000000001164,10,1,experiment,NA,NA,1,0.7,0.3,2,3,26,1,NA
fcp-trial,60,637402,0.0-35.0-0.0,voc_e2,11940,"[{""event"":""fullscreenenter"",""trial"":1,""time"":1947},{""event"":""blur"",""trial"":17,""time"":191930},{""event"":""focus"",""trial"":17,""time"":244525}]",NA,NA,NA,NA,NA,1,#741CD8,#D8271C,0,0,1,38,1,1238.9999999998836,37,1,569,0,1,experiment,NA,NA,2,0.5,0.5,4,5,27,1,NA
fcp-trial,61,641472,0.0-36.0-0.0,voc_e2,11940,"[{""event"":""fullscreenenter"",""trial"":1,""time"":1947},{""event"":""blur"",""trial"":17,""time"":191930},{""event"":""focus"",""trial"":17,""time"":244525}]",NA,NA,NA,NA,NA,1,#D89F1C,#3386FF,10,10,1,38,1,2054.0000000001164,37,1,504,10,1,experiment,NA,NA,0,0.9,0.1,0,1,28,1,NA
fcp-trial,62,646701,0.0-37.0-0.0,voc_e2,11940,"[{""event"":""fullscreenenter"",""trial"":1,""time"":1947},{""event"":""blur"",""trial"":17,""time"":191930},{""event"":""focus"",""trial"":17,""time"":244525}]",NA,NA,NA,NA,NA,5,#D8271C,#741CD8,0,0,0,38,1,2720,39,0,999,0,1,experiment,NA,NA,2,0.5,0.5,5,4,29,1,NA
fcp-trial,63,650416,0.0-38.0-0.0,voc_e2,11940,"[{""event"":""fullscreenenter"",""trial"":1,""time"":1947},{""event"":""blur"",""trial"":17,""time"":191930},{""event"":""focus"",""trial"":17,""time"":244525}]",NA,NA,NA,NA,NA,1,#1CD855,#FA92F8,10,10,1,38,1,1537,37,1,664,10,1,experiment,NA,NA,1,0.7,0.3,2,3,30,1,NA
fcp-trial,64,657313,0.0-39.0-0.0,voc_e2,11940,"[{""event"":""fullscreenenter"",""trial"":1,""time"":1947},{""event"":""blur"",""trial"":17,""time"":191930},{""event"":""focus"",""trial"":17,""time"":244525}]",NA,NA,NA,NA,NA,5,#3386FF,#D89F1C,0,10,0,40,0,3722,39,0,1663,10,1,experiment,NA,NA,0,0.1,0.9,1,0,31,1,NA
fcp-trial,65,660668,0.0-40.0-0.0,voc_e2,11940,"[{""event"":""fullscreenenter"",""trial"":1,""time"":1947},{""event"":""blur"",""trial"":17,""time"":191930},{""event"":""focus"",""trial"":17,""time"":244525}]",NA,NA,NA,NA,NA,6,#D8271C,#741CD8,10,10,0,38,1,1112,39,0,733,10,1,experiment,NA,NA,2,0.5,0.5,5,4,32,1,NA
fcp-trial,66,664694,0.0-41.0-0.0,voc_e2,11940,"[{""event"":""fullscreenenter"",""trial"":1,""time"":1947},{""event"":""blur"",""trial"":17,""time"":191930},{""event"":""focus"",""trial"":17,""time"":244525}]",NA,NA,NA,NA,NA,2,#1CD855,#FA92F8,0,10,1,38,1,1772,37,1,739,0,1,experiment,NA,NA,1,0.7,0.3,2,3,33,1,NA
fcp-trial,67,669367,0.0-42.0-0.0,voc_e2,11940,"[{""event"":""fullscreenenter"",""trial"":1,""time"":1947},{""event"":""blur"",""trial"":17,""time"":191930},{""event"":""focus"",""trial"":17,""time"":244525}]",NA,NA,NA,NA,NA,3,#D89F1C,#3386FF,10,10,1,38,1,2368,37,1,795,10,1,experiment,NA,NA,0,0.9,0.1,0,1,34,1,NA
fcp-trial,68,672720,0.0-43.0-0.0,voc_e2,11940,"[{""event"":""fullscreenenter"",""trial"":1,""time"":1947},{""event"":""blur"",""trial"":17,""time"":191930},{""event"":""focus"",""trial"":17,""time"":244525}]",NA,NA,NA,NA,NA,4,#D8271C,#741CD8,10,0,0,38,1,1106,39,0,733.9999999998836,0,1,experiment,NA,NA,2,0.5,0.5,5,4,35,1,NA
fcp-trial,69,679050,0.0-44.0-0.0,voc_e2,11940,"[{""event"":""fullscreenenter"",""trial"":1,""time"":1947},{""event"":""blur"",""trial"":17,""time"":191930},{""event"":""focus"",""trial"":17,""time"":244525}]",NA,NA,NA,NA,NA,0,#FA92F8,#1CD855,0,10,0,38,1,4222,37,1,599,0,0,experiment,NA,NA,1,0.3,0.7,3,2,36,1,NA
fcp-trial,70,682571,0.0-45.0-0.0,voc_e2,11940,"[{""event"":""fullscreenenter"",""trial"":1,""time"":1947},{""event"":""blur"",""trial"":17,""time"":191930},{""event"":""focus"",""trial"":17,""time"":244525}]",NA,NA,NA,NA,NA,5,#1CD855,#FA92F8,10,0,1,38,1,1440,37,1,569,10,1,experiment,NA,NA,1,0.7,0.3,2,3,37,1,NA
fcp-trial,71,686102,0.0-46.0-0.0,voc_e2,11940,"[{""event"":""fullscreenenter"",""trial"":1,""time"":1947},{""event"":""blur"",""trial"":17,""time"":191930},{""event"":""focus"",""trial"":17,""time"":244525}]",NA,NA,NA,NA,NA,0,#D8271C,#741CD8,0,10,0,38,1,1254,39,0,767,10,1,experiment,NA,NA,2,0.5,0.5,5,4,38,1,NA
fcp-trial,72,690514,0.0-47.0-0.0,voc_e2,11940,"[{""event"":""fullscreenenter"",""trial"":1,""time"":1947},{""event"":""blur"",""trial"":17,""time"":191930},{""event"":""focus"",""trial"":17,""time"":244525}]",NA,NA,NA,NA,NA,4,#3386FF,#D89F1C,0,10,0,40,0,1955.0000000001164,37,1,945,0,0,experiment,NA,NA,0,0.1,0.9,1,0,39,1,NA
fcp-trial,73,693768,0.0-48.0-0.0,voc_e2,11940,"[{""event"":""fullscreenenter"",""trial"":1,""time"":1947},{""event"":""blur"",""trial"":17,""time"":191930},{""event"":""focus"",""trial"":17,""time"":244525}]",NA,NA,NA,NA,NA,2,#741CD8,#D8271C,10,0,1,38,1,1099,37,1,645,10,1,experiment,NA,NA,2,0.5,0.5,4,5,40,1,NA
fcp-trial,74,698601,0.0-49.0-0.0,voc_e2,11940,"[{""event"":""fullscreenenter"",""trial"":1,""time"":1947},{""event"":""blur"",""trial"":17,""time"":191930},{""event"":""focus"",""trial"":17,""time"":244525}]",NA,NA,NA,NA,NA,0,#D89F1C,#3386FF,10,0,1,38,1,1588,39,0,1732,0,0,experiment,NA,NA,0,0.9,0.1,0,1,41,1,NA
fcp-trial,75,703571,0.0-50.0-0.0,voc_e2,11940,"[{""event"":""fullscreenenter"",""trial"":1,""time"":1947},{""event"":""blur"",""trial"":17,""time"":191930},{""event"":""focus"",""trial"":17,""time"":244525}]",NA,NA,NA,NA,NA,6,#FA92F8,#1CD855,0,10,0,38,1,1156.9999999998836,37,1,2301,0,0,experiment,NA,NA,1,0.3,0.7,3,2,42,1,NA
fcp-trial,76,708998,0.0-51.0-0.0,voc_e2,11940,"[{""event"":""fullscreenenter"",""trial"":1,""time"":1947},{""event"":""blur"",""trial"":17,""time"":191930},{""event"":""focus"",""trial"":17,""time"":244525}]",NA,NA,NA,NA,NA,6,#FA92F8,#1CD855,0,10,0,40,0,3053,37,1,862.9999999998836,0,0,experiment,NA,NA,1,0.3,0.7,3,2,43,1,NA
fcp-trial,77,712817,0.0-52.0-0.0,voc_e2,11940,"[{""event"":""fullscreenenter"",""trial"":1,""time"":1947},{""event"":""blur"",""trial"":17,""time"":191930},{""event"":""focus"",""trial"":17,""time"":244525}]",NA,NA,NA,NA,NA,6,#D8271C,#741CD8,0,0,0,38,1,1196,39,0,1114,0,1,experiment,NA,NA,2,0.5,0.5,5,4,44,1,NA
fcp-trial,78,715978,0.0-53.0-0.0,voc_e2,11940,"[{""event"":""fullscreenenter"",""trial"":1,""time"":1947},{""event"":""blur"",""trial"":17,""time"":191930},{""event"":""focus"",""trial"":17,""time"":244525}]",NA,NA,NA,NA,NA,4,#741CD8,#D8271C,0,0,1,38,1,1107,37,1,537,0,1,experiment,NA,NA,2,0.5,0.5,4,5,45,1,NA
fcp-trial,79,719236,0.0-54.0-0.0,voc_e2,11940,"[{""event"":""fullscreenenter"",""trial"":1,""time"":1947},{""event"":""blur"",""trial"":17,""time"":191930},{""event"":""focus"",""trial"":17,""time"":244525}]",NA,NA,NA,NA,NA,0,#D8271C,#741CD8,0,10,0,38,1,1250,39,0,497,10,1,experiment,NA,NA,2,0.5,0.5,5,4,46,2,NA
fcp-trial,80,725986,0.0-55.0-0.0,voc_e2,11940,"[{""event"":""fullscreenenter"",""trial"":1,""time"":1947},{""event"":""blur"",""trial"":17,""time"":191930},{""event"":""focus"",""trial"":17,""time"":244525}]",NA,NA,NA,NA,NA,4,#3386FF,#D89F1C,0,10,0,38,1,3131,39,0,2065.9999999998836,10,1,experiment,NA,NA,0,0.1,0.9,1,0,47,2,NA
fcp-trial,81,730588,0.0-56.0-0.0,voc_e2,11940,"[{""event"":""fullscreenenter"",""trial"":1,""time"":1947},{""event"":""blur"",""trial"":17,""time"":191930},{""event"":""focus"",""trial"":17,""time"":244525}]",NA,NA,NA,NA,NA,3,#FA92F8,#1CD855,10,0,0,38,1,2608.9999999998836,37,1,482,10,0,experiment,NA,NA,1,0.3,0.7,3,2,48,2,NA
fcp-trial,82,734170,0.0-57.0-0.0,voc_e2,11940,"[{""event"":""fullscreenenter"",""trial"":1,""time"":1947},{""event"":""blur"",""trial"":17,""time"":191930},{""event"":""focus"",""trial"":17,""time"":244525}]",NA,NA,NA,NA,NA,2,#D8271C,#741CD8,10,0,0,38,1,1054,39,0,1018,0,1,experiment,NA,NA,2,0.5,0.5,5,4,49,2,NA
fcp-trial,83,738757,0.0-58.0-0.0,voc_e2,11940,"[{""event"":""fullscreenenter"",""trial"":1,""time"":1947},{""event"":""blur"",""trial"":17,""time"":191930},{""event"":""focus"",""trial"":17,""time"":244525}]",NA,NA,NA,NA,NA,1,#3386FF,#D89F1C,0,10,0,38,1,2322,37,1,754,0,0,experiment,NA,NA,0,0.1,0.9,1,0,50,2,NA
fcp-trial,84,742271,0.0-59.0-0.0,voc_e2,11940,"[{""event"":""fullscreenenter"",""trial"":1,""time"":1947},{""event"":""blur"",""trial"":17,""time"":191930},{""event"":""focus"",""trial"":17,""time"":244525}]",NA,NA,NA,NA,NA,6,#3386FF,#D89F1C,0,10,0,38,1,969,39,0,1034,10,1,experiment,NA,NA,0,0.1,0.9,1,0,51,2,NA
fcp-trial,85,745929,0.0-60.0-0.0,voc_e2,11940,"[{""event"":""fullscreenenter"",""trial"":1,""time"":1947},{""event"":""blur"",""trial"":17,""time"":191930},{""event"":""focus"",""trial"":17,""time"":244525}]",NA,NA,NA,NA,NA,5,#FA92F8,#1CD855,0,10,0,38,1,1506,37,1,637,0,0,experiment,NA,NA,1,0.3,0.7,3,2,52,2,NA
fcp-trial,86,750185,0.0-61.0-0.0,voc_e2,11940,"[{""event"":""fullscreenenter"",""trial"":1,""time"":1947},{""event"":""blur"",""trial"":17,""time"":191930},{""event"":""focus"",""trial"":17,""time"":244525}]",NA,NA,NA,NA,NA,5,#D89F1C,#3386FF,0,0,1,38,1,2147,37,1,599,0,1,experiment,NA,NA,0,0.9,0.1,0,1,53,2,NA
fcp-trial,87,753236,0.0-62.0-0.0,voc_e2,11940,"[{""event"":""fullscreenenter"",""trial"":1,""time"":1947},{""event"":""blur"",""trial"":17,""time"":191930},{""event"":""focus"",""trial"":17,""time"":244525}]",NA,NA,NA,NA,NA,1,#741CD8,#D8271C,10,10,1,38,1,1055,37,1,483,10,1,experiment,NA,NA,2,0.5,0.5,4,5,54,2,NA
fcp-trial,88,756922,0.0-63.0-0.0,voc_e2,11940,"[{""event"":""fullscreenenter"",""trial"":1,""time"":1947},{""event"":""blur"",""trial"":17,""time"":191930},{""event"":""focus"",""trial"":17,""time"":244525}]",NA,NA,NA,NA,NA,2,#D89F1C,#3386FF,10,0,1,38,1,1677.9999999998836,37,1,484,10,1,experiment,NA,NA,0,0.9,0.1,0,1,55,2,NA
fcp-trial,89,763072,0.0-64.0-0.0,voc_e2,11940,"[{""event"":""fullscreenenter"",""trial"":1,""time"":1947},{""event"":""blur"",""trial"":17,""time"":191930},{""event"":""focus"",""trial"":17,""time"":244525}]",NA,NA,NA,NA,NA,0,#1CD855,#FA92F8,10,0,1,38,1,2955.0000000001164,39,0,1684,0,0,experiment,NA,NA,1,0.7,0.3,2,3,56,2,NA
fcp-trial,90,766904,0.0-65.0-0.0,voc_e2,11940,"[{""event"":""fullscreenenter"",""trial"":1,""time"":1947},{""event"":""blur"",""trial"":17,""time"":191930},{""event"":""focus"",""trial"":17,""time"":244525}]",NA,NA,NA,NA,NA,0,#D89F1C,#3386FF,10,0,1,38,1,1420,37,1,899,10,1,experiment,NA,NA,0,0.9,0.1,0,1,57,2,NA
fcp-trial,91,772370,0.0-66.0-0.0,voc_e2,11940,"[{""event"":""fullscreenenter"",""trial"":1,""time"":1947},{""event"":""blur"",""trial"":17,""time"":191930},{""event"":""focus"",""trial"":17,""time"":244525}]",NA,NA,NA,NA,NA,1,#FA92F8,#1CD855,0,0,0,38,1,3423,37,1,533,0,0,experiment,NA,NA,1,0.3,0.7,3,2,58,2,NA
fcp-trial,92,775420,0.0-67.0-0.0,voc_e2,11940,"[{""event"":""fullscreenenter"",""trial"":1,""time"":1947},{""event"":""blur"",""trial"":17,""time"":191930},{""event"":""focus"",""trial"":17,""time"":244525}]",NA,NA,NA,NA,NA,3,#D8271C,#741CD8,10,10,0,38,1,972,39,0,567.0000000001164,10,1,experiment,NA,NA,2,0.5,0.5,5,4,59,2,NA
fcp-trial,93,778619,0.0-68.0-0.0,voc_e2,11940,"[{""event"":""fullscreenenter"",""trial"":1,""time"":1947},{""event"":""blur"",""trial"":17,""time"":191930},{""event"":""focus"",""trial"":17,""time"":244525}]",NA,NA,NA,NA,NA,3,#3386FF,#D89F1C,0,10,0,38,1,992,39,0,696,10,1,experiment,NA,NA,0,0.1,0.9,1,0,60,2,NA
fcp-trial,94,784604,0.0-69.0-0.0,voc_e2,11940,"[{""event"":""fullscreenenter"",""trial"":1,""time"":1947},{""event"":""blur"",""trial"":17,""time"":191930},{""event"":""focus"",""trial"":17,""time"":244525}]",NA,NA,NA,NA,NA,2,#FA92F8,#1CD855,10,10,0,38,1,3190.0000000001164,39,0,1283,10,1,experiment,NA,NA,1,0.3,0.7,3,2,61,2,NA
fcp-trial,95,788180,0.0-70.0-0.0,voc_e2,11940,"[{""event"":""fullscreenenter"",""trial"":1,""time"":1947},{""event"":""blur"",""trial"":17,""time"":191930},{""event"":""focus"",""trial"":17,""time"":244525}]",NA,NA,NA,NA,NA,4,#1CD855,#FA92F8,10,10,1,38,1,1474.0000000001164,37,1,586.9999999998836,10,1,experiment,NA,NA,1,0.7,0.3,2,3,62,2,NA
fcp-trial,96,791556,0.0-71.0-0.0,voc_e2,11940,"[{""event"":""fullscreenenter"",""trial"":1,""time"":1947},{""event"":""blur"",""trial"":17,""time"":191930},{""event"":""focus"",""trial"":17,""time"":244525}]",NA,NA,NA,NA,NA,5,#741CD8,#D8271C,0,0,1,38,1,1048,37,1,817.9999999998836,0,1,experiment,NA,NA,2,0.5,0.5,4,5,63,2,NA
fcp-trial,97,797021,0.0-72.0-0.0,voc_e2,11940,"[{""event"":""fullscreenenter"",""trial"":1,""time"":1947},{""event"":""blur"",""trial"":17,""time"":191930},{""event"":""focus"",""trial"":17,""time"":244525}]",NA,NA,NA,NA,NA,0,#D89F1C,#3386FF,10,0,1,38,1,1204,37,1,2751.0000000001164,10,1,experiment,NA,NA,0,0.9,0.1,0,1,64,2,NA
fcp-trial,98,800321,0.0-73.0-0.0,voc_e2,11940,"[{""event"":""fullscreenenter"",""trial"":1,""time"":1947},{""event"":""blur"",""trial"":17,""time"":191930},{""event"":""focus"",""trial"":17,""time"":244525}]",NA,NA,NA,NA,NA,4,#D8271C,#741CD8,10,10,0,38,1,903,39,0,884,10,1,experiment,NA,NA,2,0.5,0.5,5,4,65,2,NA
fcp-trial,99,803620,0.0-74.0-0.0,voc_e2,11940,"[{""event"":""fullscreenenter"",""trial"":1,""time"":1947},{""event"":""blur"",""trial"":17,""time"":191930},{""event"":""focus"",""trial"":17,""time"":244525}]",NA,NA,NA,NA,NA,1,#741CD8,#D8271C,0,0,1,38,1,1023,37,1,766,0,1,experiment,NA,NA,2,0.5,0.5,4,5,66,2,NA
fcp-trial,100,807705,0.0-75.0-0.0,voc_e2,11940,"[{""event"":""fullscreenenter"",""trial"":1,""time"":1947},{""event"":""blur"",""trial"":17,""time"":191930},{""event"":""focus"",""trial"":17,""time"":244525}]",NA,NA,NA,NA,NA,2,#FA92F8,#1CD855,10,10,0,38,1,1873,37,1,701,10,0,experiment,NA,NA,1,0.3,0.7,3,2,67,2,NA
fcp-trial,101,810921,0.0-76.0-0.0,voc_e2,11940,"[{""event"":""fullscreenenter"",""trial"":1,""time"":1947},{""event"":""blur"",""trial"":17,""time"":191930},{""event"":""focus"",""trial"":17,""time"":244525}]",NA,NA,NA,NA,NA,4,#FA92F8,#1CD855,0,10,0,38,1,1139,37,1,566,0,0,experiment,NA,NA,1,0.3,0.7,3,2,68,2,NA
fcp-trial,102,814036,0.0-77.0-0.0,voc_e2,11940,"[{""event"":""fullscreenenter"",""trial"":1,""time"":1947},{""event"":""blur"",""trial"":17,""time"":191930},{""event"":""focus"",""trial"":17,""time"":244525}]",NA,NA,NA,NA,NA,5,#D89F1C,#3386FF,10,0,1,38,1,995,37,1,600,10,1,experiment,NA,NA,0,0.9,0.1,0,1,69,2,NA
fcp-trial,103,817222,0.0-78.0-0.0,voc_e2,11940,"[{""event"":""fullscreenenter"",""trial"":1,""time"":1947},{""event"":""blur"",""trial"":17,""time"":191930},{""event"":""focus"",""trial"":17,""time"":244525}]",NA,NA,NA,NA,NA,6,#741CD8,#D8271C,0,10,1,38,1,1024.9999999998836,37,1,651,0,1,experiment,NA,NA,2,0.5,0.5,4,5,70,2,NA
fcp-trial,104,822641,0.0-79.0-0.0,voc_e2,11940,"[{""event"":""fullscreenenter"",""trial"":1,""time"":1947},{""event"":""blur"",""trial"":17,""time"":191930},{""event"":""focus"",""trial"":17,""time"":244525}]",NA,NA,NA,NA,NA,5,#1CD855,#FA92F8,0,0,1,38,1,1869.9999999998836,37,1,2036,0,1,experiment,NA,NA,1,0.7,0.3,2,3,71,2,NA
fcp-trial,105,826954,0.0-80.0-0.0,voc_e2,11940,"[{""event"":""fullscreenenter"",""trial"":1,""time"":1947},{""event"":""blur"",""trial"":17,""time"":191930},{""event"":""focus"",""trial"":17,""time"":244525}]",NA,NA,NA,NA,NA,6,#FA92F8,#1CD855,0,10,0,38,1,1055,37,1,1747,0,0,experiment,NA,NA,1,0.3,0.7,3,2,72,2,NA
fcp-trial,106,829756,0.0-81.0-0.0,voc_e2,11940,"[{""event"":""fullscreenenter"",""trial"":1,""time"":1947},{""event"":""blur"",""trial"":17,""time"":191930},{""event"":""focus"",""trial"":17,""time"":244525}]",NA,NA,NA,NA,NA,2,#D8271C,#741CD8,10,10,0,38,1,705.9999999998836,39,0,583.9999999998836,10,1,experiment,NA,NA,2,0.5,0.5,5,4,73,2,NA
fcp-trial,107,833669,0.0-82.0-0.0,voc_e2,11940,"[{""event"":""fullscreenenter"",""trial"":1,""time"":1947},{""event"":""blur"",""trial"":17,""time"":191930},{""event"":""focus"",""trial"":17,""time"":244525}]",NA,NA,NA,NA,NA,4,#3386FF,#D89F1C,10,10,0,38,1,1754,39,0,648,10,1,experiment,NA,NA,0,0.1,0.9,1,0,74,2,NA
fcp-trial,108,837787,0.0-83.0-0.0,voc_e2,11940,"[{""event"":""fullscreenenter"",""trial"":1,""time"":1947},{""event"":""blur"",""trial"":17,""time"":191930},{""event"":""focus"",""trial"":17,""time"":244525}]",NA,NA,NA,NA,NA,0,#FA92F8,#1CD855,0,10,0,38,1,1976,39,0,631.0000000001164,10,1,experiment,NA,NA,1,0.3,0.7,3,2,75,2,NA
fcp-trial,109,840986,0.0-84.0-0.0,voc_e2,11940,"[{""event"":""fullscreenenter"",""trial"":1,""time"":1947},{""event"":""blur"",""trial"":17,""time"":191930},{""event"":""focus"",""trial"":17,""time"":244525}]",NA,NA,NA,NA,NA,3,#D89F1C,#3386FF,0,0,1,38,1,1103,37,1,582,0,1,experiment,NA,NA,0,0.9,0.1,0,1,76,2,NA
fcp-trial,110,844189,0.0-85.0-0.0,voc_e2,11940,"[{""event"":""fullscreenenter"",""trial"":1,""time"":1947},{""event"":""blur"",""trial"":17,""time"":191930},{""event"":""focus"",""trial"":17,""time"":244525}]",NA,NA,NA,NA,NA,5,#D8271C,#741CD8,0,0,0,38,1,1078,39,0,613,0,1,experiment,NA,NA,2,0.5,0.5,5,4,77,2,NA
fcp-trial,111,848071,0.0-86.0-0.0,voc_e2,11940,"[{""event"":""fullscreenenter"",""trial"":1,""time"":1947},{""event"":""blur"",""trial"":17,""time"":191930},{""event"":""focus"",""trial"":17,""time"":244525}]",NA,NA,NA,NA,NA,6,#3386FF,#D89F1C,0,10,0,38,1,1304,39,0,1066,10,1,experiment,NA,NA,0,0.1,0.9,1,0,78,2,NA
fcp-trial,112,851923,0.0-87.0-0.0,voc_e2,11940,"[{""event"":""fullscreenenter"",""trial"":1,""time"":1947},{""event"":""blur"",""trial"":17,""time"":191930},{""event"":""focus"",""trial"":17,""time"":244525}]",NA,NA,NA,NA,NA,3,#1CD855,#FA92F8,10,0,1,38,1,1721,37,1,617.0000000001164,10,1,experiment,NA,NA,1,0.7,0.3,2,3,79,2,NA
fcp-trial,113,855005,0.0-88.0-0.0,voc_e2,11940,"[{""event"":""fullscreenenter"",""trial"":1,""time"":1947},{""event"":""blur"",""trial"":17,""time"":191930},{""event"":""focus"",""trial"":17,""time"":244525}]",NA,NA,NA,NA,NA,1,#3386FF,#D89F1C,0,10,0,38,1,992,39,0,580,10,1,experiment,NA,NA,0,0.1,0.9,1,0,80,2,NA
fcp-trial,114,860456,0.0-89.0-0.0,voc_e2,11940,"[{""event"":""fullscreenenter"",""trial"":1,""time"":1947},{""event"":""blur"",""trial"":17,""time"":191930},{""event"":""focus"",""trial"":17,""time"":244525}]",NA,NA,NA,NA,NA,1,#1CD855,#FA92F8,10,0,1,38,1,3456,37,1,484,10,1,experiment,NA,NA,1,0.7,0.3,2,3,81,2,NA
fcp-trial,115,863539,0.0-90.0-0.0,voc_e2,11940,"[{""event"":""fullscreenenter"",""trial"":1,""time"":1947},{""event"":""blur"",""trial"":17,""time"":191930},{""event"":""focus"",""trial"":17,""time"":244525}]",NA,NA,NA,NA,NA,0,#741CD8,#D8271C,10,10,1,38,1,1005,37,1,567,10,1,experiment,NA,NA,2,0.5,0.5,4,5,82,2,NA
fcp-trial,116,867571,0.0-91.0-0.0,voc_e2,11940,"[{""event"":""fullscreenenter"",""trial"":1,""time"":1947},{""event"":""blur"",""trial"":17,""time"":191930},{""event"":""focus"",""trial"":17,""time"":244525}]",NA,NA,NA,NA,NA,2,#3386FF,#D89F1C,0,10,0,38,1,1621,39,0,899,10,1,experiment,NA,NA,0,0.1,0.9,1,0,83,2,NA
fcp-trial,117,871239,0.0-92.0-0.0,voc_e2,11940,"[{""event"":""fullscreenenter"",""trial"":1,""time"":1947},{""event"":""blur"",""trial"":17,""time"":191930},{""event"":""focus"",""trial"":17,""time"":244525}]",NA,NA,NA,NA,NA,3,#D8271C,#741CD8,10,0,0,38,1,1072,39,0,1083,0,1,experiment,NA,NA,2,0.5,0.5,5,4,84,2,NA
fcp-trial,118,874342,0.0-93.0-0.0,voc_e2,11940,"[{""event"":""fullscreenenter"",""trial"":1,""time"":1947},{""event"":""blur"",""trial"":17,""time"":191930},{""event"":""focus"",""trial"":17,""time"":244525}]",NA,NA,NA,NA,NA,5,#D89F1C,#3386FF,10,0,1,38,1,1055.9999999998836,37,1,535,10,1,experiment,NA,NA,0,0.9,0.1,0,1,85,2,NA
fcp-trial,119,877990,0.0-94.0-0.0,voc_e2,11940,"[{""event"":""fullscreenenter"",""trial"":1,""time"":1947},{""event"":""blur"",""trial"":17,""time"":191930},{""event"":""focus"",""trial"":17,""time"":244525}]",NA,NA,NA,NA,NA,2,#FA92F8,#1CD855,10,0,0,38,1,1353,39,0,785,0,1,experiment,NA,NA,1,0.3,0.7,3,2,86,2,NA
fcp-trial,120,882156,0.0-95.0-0.0,voc_e2,11940,"[{""event"":""fullscreenenter"",""trial"":1,""time"":1947},{""event"":""blur"",""trial"":17,""time"":191930},{""event"":""focus"",""trial"":17,""time"":244525}]",NA,NA,NA,NA,NA,0,#FA92F8,#1CD855,0,10,0,38,1,2090.0000000001164,39,0,564,10,1,experiment,NA,NA,1,0.3,0.7,3,2,87,2,NA
fcp-trial,121,885338,0.0-96.0-0.0,voc_e2,11940,"[{""event"":""fullscreenenter"",""trial"":1,""time"":1947},{""event"":""blur"",""trial"":17,""time"":191930},{""event"":""focus"",""trial"":17,""time"":244525}]",NA,NA,NA,NA,NA,6,#D89F1C,#3386FF,10,0,1,38,1,1104,37,1,566,10,1,experiment,NA,NA,0,0.9,0.1,0,1,88,2,NA
fcp-trial,122,888541,0.0-97.0-0.0,voc_e2,11940,"[{""event"":""fullscreenenter"",""trial"":1,""time"":1947},{""event"":""blur"",""trial"":17,""time"":191930},{""event"":""focus"",""trial"":17,""time"":244525}]",NA,NA,NA,NA,NA,5,#741CD8,#D8271C,10,0,1,38,1,1156,37,1,534,10,1,experiment,NA,NA,2,0.5,0.5,4,5,89,2,NA
fcp-trial,123,891607,0.0-98.0-0.0,voc_e2,11940,"[{""event"":""fullscreenenter"",""trial"":1,""time"":1947},{""event"":""blur"",""trial"":17,""time"":191930},{""event"":""focus"",""trial"":17,""time"":244525}]",NA,NA,NA,NA,NA,6,#D8271C,#741CD8,0,0,0,38,1,936,39,0,618,0,1,experiment,NA,NA,2,0.5,0.5,5,4,90,2,NA
fcp-trial,124,895484,0.0-99.0-0.0,voc_e2,11940,"[{""event"":""fullscreenenter"",""trial"":1,""time"":1947},{""event"":""blur"",""trial"":17,""time"":191930},{""event"":""focus"",""trial"":17,""time"":244525}]",NA,NA,NA,NA,NA,4,#FA92F8,#1CD855,0,10,0,40,0,1690,37,1,677.0000000001164,0,0,experiment,NA,NA,1,0.3,0.7,3,2,91,3,NA
fcp-trial,125,898587,0.0-100.0-0.0,voc_e2,11940,"[{""event"":""fullscreenenter"",""trial"":1,""time"":1947},{""event"":""blur"",""trial"":17,""time"":191930},{""event"":""focus"",""trial"":17,""time"":244525}]",NA,NA,NA,NA,NA,4,#D8271C,#741CD8,10,0,0,38,1,1028,39,0,564,0,1,experiment,NA,NA,2,0.5,0.5,5,4,92,3,NA
fcp-trial,126,901574,0.0-101.0-0.0,voc_e2,11940,"[{""event"":""fullscreenenter"",""trial"":1,""time"":1947},{""event"":""blur"",""trial"":17,""time"":191930},{""event"":""focus"",""trial"":17,""time"":244525}]",NA,NA,NA,NA,NA,3,#D89F1C,#3386FF,10,10,1,38,1,1028.0000000001164,37,1,448,10,1,experiment,NA,NA,0,0.9,0.1,0,1,93,3,NA
fcp-trial,127,906233,0.0-102.0-0.0,voc_e2,11940,"[{""event"":""fullscreenenter"",""trial"":1,""time"":1947},{""event"":""blur"",""trial"":17,""time"":191930},{""event"":""focus"",""trial"":17,""time"":244525}]",NA,NA,NA,NA,NA,2,#D8271C,#741CD8,0,0,0,40,0,2388,39,0,759,0,1,experiment,NA,NA,2,0.5,0.5,5,4,94,3,NA
fcp-trial,128,911840,0.0-103.0-0.0,voc_e2,11940,"[{""event"":""fullscreenenter"",""trial"":1,""time"":1947},{""event"":""blur"",""trial"":17,""time"":191930},{""event"":""focus"",""trial"":17,""time"":244525}]",NA,NA,NA,NA,NA,4,#D89F1C,#3386FF,10,0,1,38,1,3614,37,1,485.0000000001164,10,1,experiment,NA,NA,0,0.9,0.1,0,1,95,3,NA
fcp-trial,129,916451,0.0-104.0-0.0,voc_e2,11940,"[{""event"":""fullscreenenter"",""trial"":1,""time"":1947},{""event"":""blur"",""trial"":17,""time"":191930},{""event"":""focus"",""trial"":17,""time"":244525}]",NA,NA,NA,NA,NA,3,#1CD855,#FA92F8,10,10,1,40,0,2405,37,1,695,10,1,experiment,NA,NA,1,0.7,0.3,2,3,96,3,NA
fcp-trial,130,919623,0.0-105.0-0.0,voc_e2,11940,"[{""event"":""fullscreenenter"",""trial"":1,""time"":1947},{""event"":""blur"",""trial"":17,""time"":191930},{""event"":""focus"",""trial"":17,""time"":244525}]",NA,NA,NA,NA,NA,0,#3386FF,#D89F1C,0,10,0,38,1,1081,39,0,582,10,1,experiment,NA,NA,0,0.1,0.9,1,0,97,3,NA
fcp-trial,131,923923,0.0-106.0-0.0,voc_e2,11940,"[{""event"":""fullscreenenter"",""trial"":1,""time"":1947},{""event"":""blur"",""trial"":17,""time"":191930},{""event"":""focus"",""trial"":17,""time"":244525}]",NA,NA,NA,NA,NA,1,#1CD855,#FA92F8,10,10,1,38,1,1940,37,1,849,10,1,experiment,NA,NA,1,0.7,0.3,2,3,98,3,NA
fcp-trial,132,930774,0.0-107.0-0.0,voc_e2,11940,"[{""event"":""fullscreenenter"",""trial"":1,""time"":1947},{""event"":""blur"",""trial"":17,""time"":191930},{""event"":""focus"",""trial"":17,""time"":244525}]",NA,NA,NA,NA,NA,1,#741CD8,#D8271C,0,10,1,38,1,4744.000000000116,37,1,551.0000000001164,0,1,experiment,NA,NA,2,0.5,0.5,4,5,99,3,NA
fcp-trial,133,935499,0.0-108.0-0.0,voc_e2,11940,"[{""event"":""fullscreenenter"",""trial"":1,""time"":1947},{""event"":""blur"",""trial"":17,""time"":191930},{""event"":""focus"",""trial"":17,""time"":244525}]",NA,NA,NA,NA,NA,6,#FA92F8,#1CD855,0,10,0,38,1,2456.0000000001164,39,0,755,10,1,experiment,NA,NA,1,0.3,0.7,3,2,100,3,NA
fcp-trial,134,940406,0.0-109.0-0.0,voc_e2,11940,"[{""event"":""fullscreenenter"",""trial"":1,""time"":1947},{""event"":""blur"",""trial"":17,""time"":191930},{""event"":""focus"",""trial"":17,""time"":244525}]",NA,NA,NA,NA,NA,1,#3386FF,#D89F1C,0,10,0,38,1,2817,39,0,580,10,1,experiment,NA,NA,0,0.1,0.9,1,0,101,3,NA
fcp-trial,135,944941,0.0-110.0-0.0,voc_e2,11940,"[{""event"":""fullscreenenter"",""trial"":1,""time"":1947},{""event"":""blur"",""trial"":17,""time"":191930},{""event"":""focus"",""trial"":17,""time"":244525}]",NA,NA,NA,NA,NA,5,#1CD855,#FA92F8,10,10,1,38,1,1589,39,0,1433,10,0,experiment,NA,NA,1,0.7,0.3,2,3,102,3,NA
fcp-trial,136,950206,0.0-111.0-0.0,voc_e2,11940,"[{""event"":""fullscreenenter"",""trial"":1,""time"":1947},{""event"":""blur"",""trial"":17,""time"":191930},{""event"":""focus"",""trial"":17,""time"":244525}]",NA,NA,NA,NA,NA,0,#D8271C,#741CD8,0,0,0,38,1,2924.0000000001164,39,0,830.0000000001164,0,1,experiment,NA,NA,2,0.5,0.5,5,4,103,3,NA
fcp-trial,137,954541,0.0-112.0-0.0,voc_e2,11940,"[{""event"":""fullscreenenter"",""trial"":1,""time"":1947},{""event"":""blur"",""trial"":17,""time"":191930},{""event"":""focus"",""trial"":17,""time"":244525}]",NA,NA,NA,NA,NA,3,#741CD8,#D8271C,0,0,1,38,1,2272,37,1,551,0,1,experiment,NA,NA,2,0.5,0.5,4,5,104,3,NA
fcp-trial,138,957523,0.0-113.0-0.0,voc_e2,11940,"[{""event"":""fullscreenenter"",""trial"":1,""time"":1947},{""event"":""blur"",""trial"":17,""time"":191930},{""event"":""focus"",""trial"":17,""time"":244525}]",NA,NA,NA,NA,NA,2,#D89F1C,#3386FF,10,0,1,38,1,1043,37,1,428,10,1,experiment,NA,NA,0,0.9,0.1,0,1,105,3,NA
audio-instructions,139,967401,0.0-114.0,voc_e2,11940,"[{""event"":""fullscreenenter"",""trial"":1,""time"":1947},{""event"":""blur"",""trial"":17,""time"":191930},{""event"":""focus"",""trial"":17,""time"":244525}]",NA,5433,static/audio/pause.wav,NA,0,NA,NA,NA,NA,NA,NA,NA,NA,NA,NA,NA,NA,NA,NA,NA,NA,NA,NA,NA,NA,NA,NA,NA,NA,NA
fcp-trial,140,971455,0.0-115.0-0.0,voc_e2,11940,"[{""event"":""fullscreenenter"",""trial"":1,""time"":1947},{""event"":""blur"",""trial"":17,""time"":191930},{""event"":""focus"",""trial"":17,""time"":244525}]",NA,NA,NA,NA,NA,1,#D8271C,#741CD8,10,10,0,38,1,1899,39,0,648,10,1,experiment,NA,NA,2,0.5,0.5,5,4,106,3,NA
fcp-trial,141,975674,0.0-116.0-0.0,voc_e2,11940,"[{""event"":""fullscreenenter"",""trial"":1,""time"":1947},{""event"":""blur"",""trial"":17,""time"":191930},{""event"":""focus"",""trial"":17,""time"":244525}]",NA,NA,NA,NA,NA,5,#D8271C,#741CD8,0,10,0,38,1,1642,39,0,1067.0000000001164,10,1,experiment,NA,NA,2,0.5,0.5,5,4,107,3,NA
fcp-trial,142,979157,0.0-117.0-0.0,voc_e2,11940,"[{""event"":""fullscreenenter"",""trial"":1,""time"":1947},{""event"":""blur"",""trial"":17,""time"":191930},{""event"":""focus"",""trial"":17,""time"":244525}]",NA,NA,NA,NA,NA,3,#1CD855,#FA92F8,0,0,1,38,1,1336,37,1,634,0,1,experiment,NA,NA,1,0.7,0.3,2,3,108,3,NA
fcp-trial,143,982209,0.0-118.0-0.0,voc_e2,11940,"[{""event"":""fullscreenenter"",""trial"":1,""time"":1947},{""event"":""blur"",""trial"":17,""time"":191930},{""event"":""focus"",""trial"":17,""time"":244525}]",NA,NA,NA,NA,NA,4,#D8271C,#741CD8,0,10,0,38,1,1020.0000000001164,39,0,518,10,1,experiment,NA,NA,2,0.5,0.5,5,4,109,3,NA
fcp-trial,144,985457,0.0-119.0-0.0,voc_e2,11940,"[{""event"":""fullscreenenter"",""trial"":1,""time"":1947},{""event"":""blur"",""trial"":17,""time"":191930},{""event"":""focus"",""trial"":17,""time"":244525}]",NA,NA,NA,NA,NA,3,#3386FF,#D89F1C,0,0,0,38,1,1053,39,0,683.0000000001164,0,1,experiment,NA,NA,0,0.1,0.9,1,0,110,3,NA
fcp-trial,145,989459,0.0-120.0-0.0,voc_e2,11940,"[{""event"":""fullscreenenter"",""trial"":1,""time"":1947},{""event"":""blur"",""trial"":17,""time"":191930},{""event"":""focus"",""trial"":17,""time"":244525}]",NA,NA,NA,NA,NA,4,#FA92F8,#1CD855,0,10,0,40,0,1849.0000000001164,37,1,601.9999999998836,0,0,experiment,NA,NA,1,0.3,0.7,3,2,111,3,NA
fcp-trial,146,992587,0.0-121.0-0.0,voc_e2,11940,"[{""event"":""fullscreenenter"",""trial"":1,""time"":1947},{""event"":""blur"",""trial"":17,""time"":191930},{""event"":""focus"",""trial"":17,""time"":244525}]",NA,NA,NA,NA,NA,5,#FA92F8,#1CD855,10,10,0,40,0,1075.0000000001164,37,1,542.0000000001164,10,0,experiment,NA,NA,1,0.3,0.7,3,2,112,3,NA
fcp-trial,147,995677,0.0-122.0-0.0,voc_e2,11940,"[{""event"":""fullscreenenter"",""trial"":1,""time"":1947},{""event"":""blur"",""trial"":17,""time"":191930},{""event"":""focus"",""trial"":17,""time"":244525}]",NA,NA,NA,NA,NA,4,#D89F1C,#3386FF,10,0,1,38,1,1025,37,1,552,10,1,experiment,NA,NA,0,0.9,0.1,0,1,113,3,NA
fcp-trial,148,998757,0.0-123.0-0.0,voc_e2,11940,"[{""event"":""fullscreenenter"",""trial"":1,""time"":1947},{""event"":""blur"",""trial"":17,""time"":191930},{""event"":""focus"",""trial"":17,""time"":244525}]",NA,NA,NA,NA,NA,0,#D8271C,#741CD8,0,0,0,38,1,990,39,0,580,0,1,experiment,NA,NA,2,0.5,0.5,5,4,114,3,NA
fcp-trial,149,1002689,0.0-124.0-0.0,voc_e2,11940,"[{""event"":""fullscreenenter"",""trial"":1,""time"":1947},{""event"":""blur"",""trial"":17,""time"":191930},{""event"":""focus"",""trial"":17,""time"":244525}]",NA,NA,NA,NA,NA,2,#1CD855,#FA92F8,10,10,1,40,0,1740,39,0,681,10,0,experiment,NA,NA,1,0.7,0.3,2,3,115,3,NA
fcp-trial,150,1005876,0.0-125.0-0.0,voc_e2,11940,"[{""event"":""fullscreenenter"",""trial"":1,""time"":1947},{""event"":""blur"",""trial"":17,""time"":191930},{""event"":""focus"",""trial"":17,""time"":244525}]",NA,NA,NA,NA,NA,6,#D8271C,#741CD8,0,10,0,38,1,1112,39,0,563,10,1,experiment,NA,NA,2,0.5,0.5,5,4,116,3,NA
fcp-trial,151,1009109,0.0-126.0-0.0,voc_e2,11940,"[{""event"":""fullscreenenter"",""trial"":1,""time"":1947},{""event"":""blur"",""trial"":17,""time"":191930},{""event"":""focus"",""trial"":17,""time"":244525}]",NA,NA,NA,NA,NA,6,#3386FF,#D89F1C,0,10,0,38,1,1204,39,0,517,10,1,experiment,NA,NA,0,0.1,0.9,1,0,117,3,NA
fcp-trial,152,1013289,0.0-127.0-0.0,voc_e2,11940,"[{""event"":""fullscreenenter"",""trial"":1,""time"":1947},{""event"":""blur"",""trial"":17,""time"":191930},{""event"":""focus"",""trial"":17,""time"":244525}]",NA,NA,NA,NA,NA,0,#1CD855,#FA92F8,10,10,1,40,0,2104,37,1,564,10,1,experiment,NA,NA,1,0.7,0.3,2,3,118,3,NA
fcp-trial,153,1016457,0.0-128.0-0.0,voc_e2,11940,"[{""event"":""fullscreenenter"",""trial"":1,""time"":1947},{""event"":""blur"",""trial"":17,""time"":191930},{""event"":""focus"",""trial"":17,""time"":244525}]",NA,NA,NA,NA,NA,5,#3386FF,#D89F1C,0,10,0,38,1,925,39,0,732,10,1,experiment,NA,NA,0,0.1,0.9,1,0,119,3,NA
fcp-trial,154,1019790,0.0-129.0-0.0,voc_e2,11940,"[{""event"":""fullscreenenter"",""trial"":1,""time"":1947},{""event"":""blur"",""trial"":17,""time"":191930},{""event"":""focus"",""trial"":17,""time"":244525}]",NA,NA,NA,NA,NA,2,#D8271C,#741CD8,0,10,0,38,1,1257,39,0,564.0000000001164,10,1,experiment,NA,NA,2,0.5,0.5,5,4,120,3,NA
fcp-trial,155,1022923,0.0-130.0-0.0,voc_e2,11940,"[{""event"":""fullscreenenter"",""trial"":1,""time"":1947},{""event"":""blur"",""trial"":17,""time"":191930},{""event"":""focus"",""trial"":17,""time"":244525}]",NA,NA,NA,NA,NA,1,#3386FF,#D89F1C,0,10,0,38,1,1057,39,0,566,10,1,experiment,NA,NA,0,0.1,0.9,1,0,121,3,NA
fcp-trial,156,1026769,0.0-131.0-0.0,voc_e2,11940,"[{""event"":""fullscreenenter"",""trial"":1,""time"":1947},{""event"":""blur"",""trial"":17,""time"":191930},{""event"":""focus"",""trial"":17,""time"":244525}]",NA,NA,NA,NA,NA,6,#FA92F8,#1CD855,0,10,0,40,0,1590,37,1,744.9999999998836,0,0,experiment,NA,NA,1,0.3,0.7,3,2,122,3,NA
fcp-trial,157,1029773,0.0-132.0-0.0,voc_e2,11940,"[{""event"":""fullscreenenter"",""trial"":1,""time"":1947},{""event"":""blur"",""trial"":17,""time"":191930},{""event"":""focus"",""trial"":17,""time"":244525}]",NA,NA,NA,NA,NA,0,#3386FF,#D89F1C,0,10,0,38,1,934,39,0,561.0000000001164,10,1,experiment,NA,NA,0,0.1,0.9,1,0,123,3,NA
fcp-trial,158,1033175,0.0-133.0-0.0,voc_e2,11940,"[{""event"":""fullscreenenter"",""trial"":1,""time"":1947},{""event"":""blur"",""trial"":17,""time"":191930},{""event"":""focus"",""trial"":17,""time"":244525}]",NA,NA,NA,NA,NA,3,#D8271C,#741CD8,10,10,0,38,1,1294.9999999998836,39,0,595.0000000001164,10,1,experiment,NA,NA,2,0.5,0.5,5,4,124,3,NA
fcp-trial,159,1036690,0.0-134.0-0.0,voc_e2,11940,"[{""event"":""fullscreenenter"",""trial"":1,""time"":1947},{""event"":""blur"",""trial"":17,""time"":191930},{""event"":""focus"",""trial"":17,""time"":244525}]",NA,NA,NA,NA,NA,2,#D89F1C,#3386FF,10,0,1,38,1,1501,37,1,464.9999999998836,10,1,experiment,NA,NA,0,0.9,0.1,0,1,125,3,NA
fcp-trial,160,1040706,0.0-135.0-0.0,voc_e2,11940,"[{""event"":""fullscreenenter"",""trial"":1,""time"":1947},{""event"":""blur"",""trial"":17,""time"":191930},{""event"":""focus"",""trial"":17,""time"":244525}]",NA,NA,NA,NA,NA,1,#FA92F8,#1CD855,0,10,0,40,0,1823.0000000001164,39,0,681,10,1,experiment,NA,NA,1,0.3,0.7,3,2,126,3,NA
fcp-trial,161,1044190,0.0-136.0-0.0,voc_e2,11940,"[{""event"":""fullscreenenter"",""trial"":1,""time"":1947},{""event"":""blur"",""trial"":17,""time"":191930},{""event"":""focus"",""trial"":17,""time"":244525}]",NA,NA,NA,NA,NA,3,#1CD855,#FA92F8,10,0,1,40,0,1324.9999999997672,39,0,647.9999999998836,0,0,experiment,NA,NA,1,0.7,0.3,2,3,127,3,NA
fcp-trial,162,1047177,0.0-137.0-0.0,voc_e2,11940,"[{""event"":""fullscreenenter"",""trial"":1,""time"":1947},{""event"":""blur"",""trial"":17,""time"":191930},{""event"":""focus"",""trial"":17,""time"":244525}]",NA,NA,NA,NA,NA,2,#D8271C,#741CD8,0,10,0,38,1,972,39,0,502.0000000001164,10,1,experiment,NA,NA,2,0.5,0.5,5,4,128,3,NA
fcp-trial,163,1054323,0.0-138.0-0.0,voc_e2,11940,"[{""event"":""fullscreenenter"",""trial"":1,""time"":1947},{""event"":""blur"",""trial"":17,""time"":191930},{""event"":""focus"",""trial"":17,""time"":244525}]",NA,NA,NA,NA,NA,1,#D89F1C,#3386FF,10,0,1,38,1,5120.999999999884,37,1,515,10,1,experiment,NA,NA,0,0.9,0.1,0,1,129,3,NA
fcp-trial,164,1058154,0.0-139.0-0.0,voc_e2,11940,"[{""event"":""fullscreenenter"",""trial"":1,""time"":1947},{""event"":""blur"",""trial"":17,""time"":191930},{""event"":""focus"",""trial"":17,""time"":244525}]",NA,NA,NA,NA,NA,5,#1CD855,#FA92F8,10,0,1,40,0,1642.0000000002328,39,0,678.9999999997672,0,0,experiment,NA,NA,1,0.7,0.3,2,3,130,3,NA
fcp-trial,165,1061127,0.0-140.0-0.0,voc_e2,11940,"[{""event"":""fullscreenenter"",""trial"":1,""time"":1947},{""event"":""blur"",""trial"":17,""time"":191930},{""event"":""focus"",""trial"":17,""time"":244525}]",NA,NA,NA,NA,NA,1,#741CD8,#D8271C,10,0,1,38,1,913,37,1,549,10,1,experiment,NA,NA,2,0.5,0.5,4,5,131,3,NA
fcp-trial,166,1064140,0.0-141.0-0.0,voc_e2,11940,"[{""event"":""fullscreenenter"",""trial"":1,""time"":1947},{""event"":""blur"",""trial"":17,""time"":191930},{""event"":""focus"",""trial"":17,""time"":244525}]",NA,NA,NA,NA,NA,3,#3386FF,#D89F1C,0,10,0,38,1,853,39,0,648,10,1,experiment,NA,NA,0,0.1,0.9,1,0,132,3,NA
fcp-trial,167,1067178,0.0-142.0-0.0,voc_e2,11940,"[{""event"":""fullscreenenter"",""trial"":1,""time"":1947},{""event"":""blur"",""trial"":17,""time"":191930},{""event"":""focus"",""trial"":17,""time"":244525}]",NA,NA,NA,NA,NA,3,#741CD8,#D8271C,0,0,1,38,1,1041,37,1,485.0000000002328,0,1,experiment,NA,NA,2,0.5,0.5,4,5,133,3,NA
fcp-trial,168,1071973,0.0-143.0-0.0,voc_e2,11940,"[{""event"":""fullscreenenter"",""trial"":1,""time"":1947},{""event"":""blur"",""trial"":17,""time"":191930},{""event"":""focus"",""trial"":17,""time"":244525}]",NA,NA,NA,NA,NA,0,#FA92F8,#1CD855,0,10,0,40,0,2703.999999999767,39,0,580,10,1,experiment,NA,NA,1,0.3,0.7,3,2,134,3,NA
fcp-trial,169,1077022,0.0-144.0-0.0,voc_e2,11940,"[{""event"":""fullscreenenter"",""trial"":1,""time"":1947},{""event"":""blur"",""trial"":17,""time"":191930},{""event"":""focus"",""trial"":17,""time"":244525}]",NA,NA,NA,NA,NA,2,#FA92F8,#1CD855,0,10,0,40,0,2561,37,1,977,0,0,experiment,NA,NA,1,0.3,0.7,3,2,135,3,NA
fcp-trial,170,1080140,0.0-145.0-0.0,voc_e2,11940,"[{""event"":""fullscreenenter"",""trial"":1,""time"":1947},{""event"":""blur"",""trial"":17,""time"":191930},{""event"":""focus"",""trial"":17,""time"":244525}]",NA,NA,NA,NA,NA,4,#3386FF,#D89F1C,0,10,0,38,1,912,39,0,695,10,1,experiment,NA,NA,0,0.1,0.9,1,0,136,4,NA
fcp-trial,171,1083325,0.0-146.0-0.0,voc_e2,11940,"[{""event"":""fullscreenenter"",""trial"":1,""time"":1947},{""event"":""blur"",""trial"":17,""time"":191930},{""event"":""focus"",""trial"":17,""time"":244525}]",NA,NA,NA,NA,NA,5,#D8271C,#741CD8,10,0,0,38,1,1095,39,0,578,0,1,experiment,NA,NA,2,0.5,0.5,5,4,137,4,NA
fcp-trial,172,1086590,0.0-147.0-0.0,voc_e2,11940,"[{""event"":""fullscreenenter"",""trial"":1,""time"":1947},{""event"":""blur"",""trial"":17,""time"":191930},{""event"":""focus"",""trial"":17,""time"":244525}]",NA,NA,NA,NA,NA,4,#1CD855,#FA92F8,10,0,1,40,0,1147.0000000002328,37,1,565.9999999997672,10,1,experiment,NA,NA,1,0.7,0.3,2,3,138,4,NA
fcp-trial,173,1090393,0.0-148.0-0.0,voc_e2,11940,"[{""event"":""fullscreenenter"",""trial"":1,""time"":1947},{""event"":""blur"",""trial"":17,""time"":191930},{""event"":""focus"",""trial"":17,""time"":244525}]",NA,NA,NA,NA,NA,6,#FA92F8,#1CD855,10,10,0,40,0,1627.0000000002328,37,1,666,10,0,experiment,NA,NA,1,0.3,0.7,3,2,139,4,NA
fcp-trial,174,1093323,0.0-149.0-0.0,voc_e2,11940,"[{""event"":""fullscreenenter"",""trial"":1,""time"":1947},{""event"":""blur"",""trial"":17,""time"":191930},{""event"":""focus"",""trial"":17,""time"":244525}]",NA,NA,NA,NA,NA,6,#3386FF,#D89F1C,0,10,0,38,1,872,39,0,548,10,1,experiment,NA,NA,0,0.1,0.9,1,0,140,4,NA
fcp-trial,175,1096291,0.0-150.0-0.0,voc_e2,11940,"[{""event"":""fullscreenenter"",""trial"":1,""time"":1947},{""event"":""blur"",""trial"":17,""time"":191930},{""event"":""focus"",""trial"":17,""time"":244525}]",NA,NA,NA,NA,NA,5,#3386FF,#D89F1C,0,10,0,38,1,893.0000000002328,39,0,565.9999999997672,10,1,experiment,NA,NA,0,0.1,0.9,1,0,141,4,NA
fcp-trial,176,1099913,0.0-151.0-0.0,voc_e2,11940,"[{""event"":""fullscreenenter"",""trial"":1,""time"":1947},{""event"":""blur"",""trial"":17,""time"":191930},{""event"":""focus"",""trial"":17,""time"":244525}]",NA,NA,NA,NA,NA,0,#D8271C,#741CD8,10,0,0,38,1,1592,39,0,518,0,1,experiment,NA,NA,2,0.5,0.5,5,4,142,4,NA
fcp-trial,177,1103591,0.0-152.0-0.0,voc_e2,11940,"[{""event"":""fullscreenenter"",""trial"":1,""time"":1947},{""event"":""blur"",""trial"":17,""time"":191930},{""event"":""focus"",""trial"":17,""time"":244525}]",NA,NA,NA,NA,NA,1,#FA92F8,#1CD855,0,0,0,40,0,1603,39,0,566,0,1,experiment,NA,NA,1,0.3,0.7,3,2,143,4,NA
fcp-trial,178,1106792,0.0-153.0-0.0,voc_e2,11940,"[{""event"":""fullscreenenter"",""trial"":1,""time"":1947},{""event"":""blur"",""trial"":17,""time"":191930},{""event"":""focus"",""trial"":17,""time"":244525}]",NA,NA,NA,NA,NA,2,#3386FF,#D89F1C,0,10,0,38,1,942.9999999997672,39,0,747,10,1,experiment,NA,NA,0,0.1,0.9,1,0,144,4,NA
fcp-trial,179,1109826,0.0-154.0-0.0,voc_e2,11940,"[{""event"":""fullscreenenter"",""trial"":1,""time"":1947},{""event"":""blur"",""trial"":17,""time"":191930},{""event"":""focus"",""trial"":17,""time"":244525}]",NA,NA,NA,NA,NA,0,#D89F1C,#3386FF,0,10,1,38,1,938,37,1,583,0,1,experiment,NA,NA,0,0.9,0.1,0,1,145,4,NA
fcp-trial,180,1113259,0.0-155.0-0.0,voc_e2,11940,"[{""event"":""fullscreenenter"",""trial"":1,""time"":1947},{""event"":""blur"",""trial"":17,""time"":191930},{""event"":""focus"",""trial"":17,""time"":244525}]",NA,NA,NA,NA,NA,6,#741CD8,#D8271C,0,10,1,38,1,1319,37,1,581,0,1,experiment,NA,NA,2,0.5,0.5,4,5,146,4,NA
fcp-trial,181,1116478,0.0-156.0-0.0,voc_e2,11940,"[{""event"":""fullscreenenter"",""trial"":1,""time"":1947},{""event"":""blur"",""trial"":17,""time"":191930},{""event"":""focus"",""trial"":17,""time"":244525}]",NA,NA,NA,NA,NA,4,#D8271C,#741CD8,10,0,0,38,1,1259,39,0,452,0,1,experiment,NA,NA,2,0.5,0.5,5,4,147,4,NA
fcp-trial,182,1120028,0.0-157.0-0.0,voc_e2,11940,"[{""event"":""fullscreenenter"",""trial"":1,""time"":1947},{""event"":""blur"",""trial"":17,""time"":191930},{""event"":""focus"",""trial"":17,""time"":244525}]",NA,NA,NA,NA,NA,4,#FA92F8,#1CD855,10,0,0,40,0,1337,39,0,701,0,1,experiment,NA,NA,1,0.3,0.7,3,2,148,4,NA
fcp-trial,183,1123322,0.0-158.0-0.0,voc_e2,11940,"[{""event"":""fullscreenenter"",""trial"":1,""time"":1947},{""event"":""blur"",""trial"":17,""time"":191930},{""event"":""focus"",""trial"":17,""time"":244525}]",NA,NA,NA,NA,NA,0,#1CD855,#FA92F8,10,0,1,40,0,1255.0000000002328,37,1,528.0000000002328,10,1,experiment,NA,NA,1,0.7,0.3,2,3,149,4,NA
fcp-trial,184,1126414,0.0-159.0-0.0,voc_e2,11940,"[{""event"":""fullscreenenter"",""trial"":1,""time"":1947},{""event"":""blur"",""trial"":17,""time"":191930},{""event"":""focus"",""trial"":17,""time"":244525}]",NA,NA,NA,NA,NA,3,#741CD8,#D8271C,10,10,1,38,1,1082,37,1,501,10,1,experiment,NA,NA,2,0.5,0.5,4,5,150,4,NA
fcp-trial,185,1129461,0.0-160.0-0.0,voc_e2,11940,"[{""event"":""fullscreenenter"",""trial"":1,""time"":1947},{""event"":""blur"",""trial"":17,""time"":191930},{""event"":""focus"",""trial"":17,""time"":244525}]",NA,NA,NA,NA,NA,2,#D8271C,#741CD8,0,0,0,38,1,959,39,0,534,0,1,experiment,NA,NA,2,0.5,0.5,5,4,151,4,NA
fcp-trial,186,1132342,0.0-161.0-0.0,voc_e2,11940,"[{""event"":""fullscreenenter"",""trial"":1,""time"":1947},{""event"":""blur"",""trial"":17,""time"":191930},{""event"":""focus"",""trial"":17,""time"":244525}]",NA,NA,NA,NA,NA,2,#3386FF,#D89F1C,0,10,0,38,1,887,39,0,482,10,1,experiment,NA,NA,0,0.1,0.9,1,0,152,4,NA
fcp-trial,187,1136437,0.0-162.0-0.0,voc_e2,11940,"[{""event"":""fullscreenenter"",""trial"":1,""time"":1947},{""event"":""blur"",""trial"":17,""time"":191930},{""event"":""focus"",""trial"":17,""time"":244525}]",NA,NA,NA,NA,NA,6,#FA92F8,#1CD855,0,10,0,40,0,2007,37,1,577,0,0,experiment,NA,NA,1,0.3,0.7,3,2,153,4,NA
fcp-trial,188,1139394,0.0-163.0-0.0,voc_e2,11940,"[{""event"":""fullscreenenter"",""trial"":1,""time"":1947},{""event"":""blur"",""trial"":17,""time"":191930},{""event"":""focus"",""trial"":17,""time"":244525}]",NA,NA,NA,NA,NA,6,#741CD8,#D8271C,10,0,1,38,1,932,37,1,516,10,1,experiment,NA,NA,2,0.5,0.5,4,5,154,4,NA
fcp-trial,189,1142560,0.0-164.0-0.0,voc_e2,11940,"[{""event"":""fullscreenenter"",""trial"":1,""time"":1947},{""event"":""blur"",""trial"":17,""time"":191930},{""event"":""focus"",""trial"":17,""time"":244525}]",NA,NA,NA,NA,NA,5,#3386FF,#D89F1C,10,10,0,38,1,1089,39,0,566,10,1,experiment,NA,NA,0,0.1,0.9,1,0,155,4,NA
fcp-trial,190,1145729,0.0-165.0-0.0,voc_e2,11940,"[{""event"":""fullscreenenter"",""trial"":1,""time"":1947},{""event"":""blur"",""trial"":17,""time"":191930},{""event"":""focus"",""trial"":17,""time"":244525}]",NA,NA,NA,NA,NA,0,#D8271C,#741CD8,0,0,0,38,1,1074,39,0,582,0,1,experiment,NA,NA,2,0.5,0.5,5,4,156,4,NA
fcp-trial,191,1150170,0.0-166.0-0.0,voc_e2,11940,"[{""event"":""fullscreenenter"",""trial"":1,""time"":1947},{""event"":""blur"",""trial"":17,""time"":191930},{""event"":""focus"",""trial"":17,""time"":244525}]",NA,NA,NA,NA,NA,1,#FA92F8,#1CD855,0,0,0,40,0,1896,39,0,995,0,1,experiment,NA,NA,1,0.3,0.7,3,2,157,4,NA
fcp-trial,192,1153331,0.0-167.0-0.0,voc_e2,11940,"[{""event"":""fullscreenenter"",""trial"":1,""time"":1947},{""event"":""blur"",""trial"":17,""time"":191930},{""event"":""focus"",""trial"":17,""time"":244525}]",NA,NA,NA,NA,NA,5,#741CD8,#D8271C,0,10,1,38,1,1129.9999999997672,37,1,520,0,1,experiment,NA,NA,2,0.5,0.5,4,5,158,4,NA
fcp-trial,193,1156506,0.0-168.0-0.0,voc_e2,11940,"[{""event"":""fullscreenenter"",""trial"":1,""time"":1947},{""event"":""blur"",""trial"":17,""time"":191930},{""event"":""focus"",""trial"":17,""time"":244525}]",NA,NA,NA,NA,NA,3,#FA92F8,#1CD855,0,10,0,40,0,1154,39,0,511.0000000002328,10,1,experiment,NA,NA,1,0.3,0.7,3,2,159,4,NA
fcp-trial,194,1159429,0.0-169.0-0.0,voc_e2,11940,"[{""event"":""fullscreenenter"",""trial"":1,""time"":1947},{""event"":""blur"",""trial"":17,""time"":191930},{""event"":""focus"",""trial"":17,""time"":244525}]",NA,NA,NA,NA,NA,4,#D89F1C,#3386FF,0,10,1,38,1,914,37,1,498.9999999997672,0,1,experiment,NA,NA,0,0.9,0.1,0,1,160,4,NA
fcp-trial,195,1162411,0.0-170.0-0.0,voc_e2,11940,"[{""event"":""fullscreenenter"",""trial"":1,""time"":1947},{""event"":""blur"",""trial"":17,""time"":191930},{""event"":""focus"",""trial"":17,""time"":244525}]",NA,NA,NA,NA,NA,4,#D8271C,#741CD8,0,0,0,38,1,853.9999999997672,39,0,616.9999999997672,0,1,experiment,NA,NA,2,0.5,0.5,5,4,161,4,NA
fcp-trial,196,1166161,0.0-171.0-0.0,voc_e2,11940,"[{""event"":""fullscreenenter"",""trial"":1,""time"":1947},{""event"":""blur"",""trial"":17,""time"":191930},{""event"":""focus"",""trial"":17,""time"":244525}]",NA,NA,NA,NA,NA,0,#D89F1C,#3386FF,10,0,1,38,1,1788,37,1,449.0000000002328,10,1,experiment,NA,NA,0,0.9,0.1,0,1,162,4,NA
fcp-trial,197,1170631,0.0-172.0-0.0,voc_e2,11940,"[{""event"":""fullscreenenter"",""trial"":1,""time"":1947},{""event"":""blur"",""trial"":17,""time"":191930},{""event"":""focus"",""trial"":17,""time"":244525}]",NA,NA,NA,NA,NA,2,#1CD855,#FA92F8,10,0,1,40,0,2170,37,1,789.0000000002328,10,1,experiment,NA,NA,1,0.7,0.3,2,3,163,4,NA
fcp-trial,198,1173379,0.0-173.0-0.0,voc_e2,11940,"[{""event"":""fullscreenenter"",""trial"":1,""time"":1947},{""event"":""blur"",""trial"":17,""time"":191930},{""event"":""focus"",""trial"":17,""time"":244525}]",NA,NA,NA,NA,NA,3,#D89F1C,#3386FF,10,0,1,38,1,751,37,1,484,10,1,experiment,NA,NA,0,0.9,0.1,0,1,164,4,NA
fcp-trial,199,1176445,0.0-174.0-0.0,voc_e2,11940,"[{""event"":""fullscreenenter"",""trial"":1,""time"":1947},{""event"":""blur"",""trial"":17,""time"":191930},{""event"":""focus"",""trial"":17,""time"":244525}]",NA,NA,NA,NA,NA,1,#D89F1C,#3386FF,10,10,1,38,1,1069.0000000002328,37,1,485,10,1,experiment,NA,NA,0,0.9,0.1,0,1,165,4,NA
fcp-trial,200,1179745,0.0-175.0-0.0,voc_e2,11940,"[{""event"":""fullscreenenter"",""trial"":1,""time"":1947},{""event"":""blur"",""trial"":17,""time"":191930},{""event"":""focus"",""trial"":17,""time"":244525}]",NA,NA,NA,NA,NA,1,#D8271C,#741CD8,10,0,0,38,1,1193,39,0,583,0,1,experiment,NA,NA,2,0.5,0.5,5,4,166,4,NA
fcp-trial,201,1182692,0.0-176.0-0.0,voc_e2,11940,"[{""event"":""fullscreenenter"",""trial"":1,""time"":1947},{""event"":""blur"",""trial"":17,""time"":191930},{""event"":""focus"",""trial"":17,""time"":244525}]",NA,NA,NA,NA,NA,6,#D89F1C,#3386FF,10,0,1,38,1,915,37,1,480,10,1,experiment,NA,NA,0,0.9,0.1,0,1,167,4,NA
fcp-trial,202,1186641,0.0-177.0-0.0,voc_e2,11940,"[{""event"":""fullscreenenter"",""trial"":1,""time"":1947},{""event"":""blur"",""trial"":17,""time"":191930},{""event"":""focus"",""trial"":17,""time"":244525}]",NA,NA,NA,NA,NA,5,#1CD855,#FA92F8,0,10,1,40,0,1863,37,1,566,0,1,experiment,NA,NA,1,0.7,0.3,2,3,168,4,NA
fcp-trial,203,1189479,0.0-178.0-0.0,voc_e2,11940,"[{""event"":""fullscreenenter"",""trial"":1,""time"":1947},{""event"":""blur"",""trial"":17,""time"":191930},{""event"":""focus"",""trial"":17,""time"":244525}]",NA,NA,NA,NA,NA,3,#741CD8,#D8271C,0,0,1,38,1,857.9999999997672,37,1,468,0,1,experiment,NA,NA,2,0.5,0.5,4,5,169,4,NA
fcp-trial,204,1192629,0.0-179.0-0.0,voc_e2,11940,"[{""event"":""fullscreenenter"",""trial"":1,""time"":1947},{""event"":""blur"",""trial"":17,""time"":191930},{""event"":""focus"",""trial"":17,""time"":244525}]",NA,NA,NA,NA,NA,0,#D8271C,#741CD8,10,0,0,38,1,886,39,0,751,0,1,experiment,NA,NA,2,0.5,0.5,5,4,170,4,NA
fcp-trial,205,1195778,0.0-180.0-0.0,voc_e2,11940,"[{""event"":""fullscreenenter"",""trial"":1,""time"":1947},{""event"":""blur"",""trial"":17,""time"":191930},{""event"":""focus"",""trial"":17,""time"":244525}]",NA,NA,NA,NA,NA,2,#3386FF,#D89F1C,0,10,0,38,1,939,39,0,698,10,1,experiment,NA,NA,0,0.1,0.9,1,0,171,4,NA
fcp-trial,206,1199339,0.0-181.0-0.0,voc_e2,11940,"[{""event"":""fullscreenenter"",""trial"":1,""time"":1947},{""event"":""blur"",""trial"":17,""time"":191930},{""event"":""focus"",""trial"":17,""time"":244525}]",NA,NA,NA,NA,NA,1,#1CD855,#FA92F8,10,0,1,40,0,1271,37,1,779,10,1,experiment,NA,NA,1,0.7,0.3,2,3,172,4,NA
fcp-trial,207,1202245,0.0-182.0-0.0,voc_e2,11940,"[{""event"":""fullscreenenter"",""trial"":1,""time"":1947},{""event"":""blur"",""trial"":17,""time"":191930},{""event"":""focus"",""trial"":17,""time"":244525}]",NA,NA,NA,NA,NA,2,#741CD8,#D8271C,10,10,1,38,1,880.0000000002328,37,1,516.9999999997672,10,1,experiment,NA,NA,2,0.5,0.5,4,5,173,4,NA
fcp-trial,208,1206495,0.0-183.0-0.0,voc_e2,11940,"[{""event"":""fullscreenenter"",""trial"":1,""time"":1947},{""event"":""blur"",""trial"":17,""time"":191930},{""event"":""focus"",""trial"":17,""time"":244525}]",NA,NA,NA,NA,NA,0,#FA92F8,#1CD855,0,10,0,38,1,1971,39,0,766.9999999997672,10,1,experiment,NA,NA,1,0.3,0.7,3,2,174,4,NA
fcp-trial,209,1209595,0.0-184.0-0.0,voc_e2,11940,"[{""event"":""fullscreenenter"",""trial"":1,""time"":1947},{""event"":""blur"",""trial"":17,""time"":191930},{""event"":""focus"",""trial"":17,""time"":244525}]",NA,NA,NA,NA,NA,4,#3386FF,#D89F1C,0,10,0,38,1,942,39,0,645.9999999997672,10,1,experiment,NA,NA,0,0.1,0.9,1,0,175,4,NA
fcp-trial,210,1212712,0.0-185.0-0.0,voc_e2,11940,"[{""event"":""fullscreenenter"",""trial"":1,""time"":1947},{""event"":""blur"",""trial"":17,""time"":191930},{""event"":""focus"",""trial"":17,""time"":244525}]",NA,NA,NA,NA,NA,3,#D89F1C,#3386FF,10,0,1,38,1,1172,37,1,434,10,1,experiment,NA,NA,0,0.9,0.1,0,1,176,4,NA
fcp-trial,211,1215878,0.0-186.0-0.0,voc_e2,11940,"[{""event"":""fullscreenenter"",""trial"":1,""time"":1947},{""event"":""blur"",""trial"":17,""time"":191930},{""event"":""focus"",""trial"":17,""time"":244525}]",NA,NA,NA,NA,NA,6,#D8271C,#741CD8,0,0,0,38,1,1026,39,0,629,0,1,experiment,NA,NA,2,0.5,0.5,5,4,177,4,NA
fcp-trial,212,1219928,0.0-187.0-0.0,voc_e2,11940,"[{""event"":""fullscreenenter"",""trial"":1,""time"":1947},{""event"":""blur"",""trial"":17,""time"":191930},{""event"":""focus"",""trial"":17,""time"":244525}]",NA,NA,NA,NA,NA,6,#1CD855,#FA92F8,10,0,1,40,0,1504,39,0,1036,0,0,experiment,NA,NA,1,0.7,0.3,2,3,178,4,NA
fcp-trial,213,1223241,0.0-188.0-0.0,voc_e2,11940,"[{""event"":""fullscreenenter"",""trial"":1,""time"":1947},{""event"":""blur"",""trial"":17,""time"":191930},{""event"":""focus"",""trial"":17,""time"":244525}]",NA,NA,NA,NA,NA,5,#FA92F8,#1CD855,0,0,0,40,0,938,37,1,864,0,0,experiment,NA,NA,1,0.3,0.7,3,2,179,4,NA
fcp-trial,214,1226081,0.0-189.0-0.0,voc_e2,11940,"[{""event"":""fullscreenenter"",""trial"":1,""time"":1947},{""event"":""blur"",""trial"":17,""time"":191930},{""event"":""focus"",""trial"":17,""time"":244525}]",NA,NA,NA,NA,NA,5,#D89F1C,#3386FF,10,0,1,38,1,843.0000000002328,37,1,486,10,1,experiment,NA,NA,0,0.9,0.1,0,1,180,4,NA
fcp-trial,215,1229707,0.0-190.0-0.0,voc_e2,11940,"[{""event"":""fullscreenenter"",""trial"":1,""time"":1947},{""event"":""blur"",""trial"":17,""time"":191930},{""event"":""focus"",""trial"":17,""time"":244525}]",NA,NA,NA,NA,NA,4,#D8271C,#741CD8,10,10,0,40,0,1355,37,1,760,10,0,experiment,NA,NA,2,0.5,0.5,5,4,181,5,NA
fcp-trial,216,1233509,0.0-191.0-0.0,voc_e2,11940,"[{""event"":""fullscreenenter"",""trial"":1,""time"":1947},{""event"":""blur"",""trial"":17,""time"":191930},{""event"":""focus"",""trial"":17,""time"":244525}]",NA,NA,NA,NA,NA,4,#FA92F8,#1CD855,10,10,0,40,0,1716,39,0,568,10,1,experiment,NA,NA,1,0.3,0.7,3,2,182,5,NA
fcp-trial,217,1236799,0.0-192.0-0.0,voc_e2,11940,"[{""event"":""fullscreenenter"",""trial"":1,""time"":1947},{""event"":""blur"",""trial"":17,""time"":191930},{""event"":""focus"",""trial"":17,""time"":244525}]",NA,NA,NA,NA,NA,2,#1CD855,#FA92F8,10,0,1,40,0,1247,39,0,533,0,0,experiment,NA,NA,1,0.7,0.3,2,3,183,5,NA
fcp-trial,218,1240594,0.0-193.0-0.0,voc_e2,11940,"[{""event"":""fullscreenenter"",""trial"":1,""time"":1947},{""event"":""blur"",""trial"":17,""time"":191930},{""event"":""focus"",""trial"":17,""time"":244525}]",NA,NA,NA,NA,NA,5,#D8271C,#741CD8,0,10,0,40,0,1419.0000000002328,37,1,865,0,0,experiment,NA,NA,2,0.5,0.5,5,4,184,5,NA
fcp-trial,219,1243732,0.0-194.0-0.0,voc_e2,11940,"[{""event"":""fullscreenenter"",""trial"":1,""time"":1947},{""event"":""blur"",""trial"":17,""time"":191930},{""event"":""focus"",""trial"":17,""time"":244525}]",NA,NA,NA,NA,NA,6,#3386FF,#D89F1C,0,10,0,38,1,1157.9999999997672,39,0,468,10,1,experiment,NA,NA,0,0.1,0.9,1,0,185,5,NA
fcp-trial,220,1246695,0.0-195.0-0.0,voc_e2,11940,"[{""event"":""fullscreenenter"",""trial"":1,""time"":1947},{""event"":""blur"",""trial"":17,""time"":191930},{""event"":""focus"",""trial"":17,""time"":244525}]",NA,NA,NA,NA,NA,0,#3386FF,#D89F1C,0,10,0,38,1,854,39,0,599,10,1,experiment,NA,NA,0,0.1,0.9,1,0,186,5,NA
fcp-trial,221,1250128,0.0-196.0-0.0,voc_e2,11940,"[{""event"":""fullscreenenter"",""trial"":1,""time"":1947},{""event"":""blur"",""trial"":17,""time"":191930},{""event"":""focus"",""trial"":17,""time"":244525}]",NA,NA,NA,NA,NA,1,#741CD8,#D8271C,0,10,1,38,1,1405,37,1,515,0,1,experiment,NA,NA,2,0.5,0.5,4,5,187,5,NA
fcp-trial,222,1254039,0.0-197.0-0.0,voc_e2,11940,"[{""event"":""fullscreenenter"",""trial"":1,""time"":1947},{""event"":""blur"",""trial"":17,""time"":191930},{""event"":""focus"",""trial"":17,""time"":244525}]",NA,NA,NA,NA,NA,3,#FA92F8,#1CD855,10,0,0,40,0,1806,39,0,593,0,1,experiment,NA,NA,1,0.3,0.7,3,2,188,5,NA
fcp-trial,223,1256878,0.0-198.0-0.0,voc_e2,11940,"[{""event"":""fullscreenenter"",""trial"":1,""time"":1947},{""event"":""blur"",""trial"":17,""time"":191930},{""event"":""focus"",""trial"":17,""time"":244525}]",NA,NA,NA,NA,NA,1,#D89F1C,#3386FF,10,10,1,38,1,829,37,1,499,10,1,experiment,NA,NA,0,0.9,0.1,0,1,189,5,NA
fcp-trial,224,1260266,0.0-199.0-0.0,voc_e2,11940,"[{""event"":""fullscreenenter"",""trial"":1,""time"":1947},{""event"":""blur"",""trial"":17,""time"":191930},{""event"":""focus"",""trial"":17,""time"":244525}]",NA,NA,NA,NA,NA,0,#D8271C,#741CD8,0,0,0,38,1,1273.0000000002328,39,0,603,0,1,experiment,NA,NA,2,0.5,0.5,5,4,190,5,NA
fcp-trial,225,1263193,0.0-200.0-0.0,voc_e2,11940,"[{""event"":""fullscreenenter"",""trial"":1,""time"":1947},{""event"":""blur"",""trial"":17,""time"":191930},{""event"":""focus"",""trial"":17,""time"":244525}]",NA,NA,NA,NA,NA,5,#3386FF,#D89F1C,0,10,0,38,1,752,39,0,664,10,1,experiment,NA,NA,0,0.1,0.9,1,0,191,5,NA
fcp-trial,226,1266846,0.0-201.0-0.0,voc_e2,11940,"[{""event"":""fullscreenenter"",""trial"":1,""time"":1947},{""event"":""blur"",""trial"":17,""time"":191930},{""event"":""focus"",""trial"":17,""time"":244525}]",NA,NA,NA,NA,NA,0,#1CD855,#FA92F8,10,10,1,38,1,1713,37,1,429,10,1,experiment,NA,NA,1,0.7,0.3,2,3,192,5,NA
fcp-trial,227,1272025,0.0-202.0-0.0,voc_e2,11940,"[{""event"":""fullscreenenter"",""trial"":1,""time"":1947},{""event"":""blur"",""trial"":17,""time"":191930},{""event"":""focus"",""trial"":17,""time"":244525}]",NA,NA,NA,NA,NA,3,#741CD8,#D8271C,10,0,1,40,0,2873.000000000233,39,0,795,0,0,experiment,NA,NA,2,0.5,0.5,4,5,193,5,NA
fcp-trial,228,1275715,0.0-203.0-0.0,voc_e2,11940,"[{""event"":""fullscreenenter"",""trial"":1,""time"":1947},{""event"":""blur"",""trial"":17,""time"":191930},{""event"":""focus"",""trial"":17,""time"":244525}]",NA,NA,NA,NA,NA,4,#741CD8,#D8271C,0,0,1,40,0,1360.9999999997672,37,1,816,0,1,experiment,NA,NA,2,0.5,0.5,4,5,194,5,NA
fcp-trial,229,1279547,0.0-204.0-0.0,voc_e2,11940,"[{""event"":""fullscreenenter"",""trial"":1,""time"":1947},{""event"":""blur"",""trial"":17,""time"":191930},{""event"":""focus"",""trial"":17,""time"":244525}]",NA,NA,NA,NA,NA,5,#FA92F8,#1CD855,0,0,0,40,0,1702,39,0,612,0,1,experiment,NA,NA,1,0.3,0.7,3,2,195,5,NA
fcp-trial,230,1282574,0.0-205.0-0.0,voc_e2,11940,"[{""event"":""fullscreenenter"",""trial"":1,""time"":1947},{""event"":""blur"",""trial"":17,""time"":191930},{""event"":""focus"",""trial"":17,""time"":244525}]",NA,NA,NA,NA,NA,2,#D89F1C,#3386FF,10,0,1,38,1,948,37,1,563.9999999997672,10,1,experiment,NA,NA,0,0.9,0.1,0,1,196,5,NA
fcp-trial,231,1285772,0.0-206.0-0.0,voc_e2,11940,"[{""event"":""fullscreenenter"",""trial"":1,""time"":1947},{""event"":""blur"",""trial"":17,""time"":191930},{""event"":""focus"",""trial"":17,""time"":244525}]",NA,NA,NA,NA,NA,2,#741CD8,#D8271C,0,10,1,40,0,1126,39,0,556.9999999997672,10,0,experiment,NA,NA,2,0.5,0.5,4,5,197,5,NA
fcp-trial,232,1288829,0.0-207.0-0.0,voc_e2,11940,"[{""event"":""fullscreenenter"",""trial"":1,""time"":1947},{""event"":""blur"",""trial"":17,""time"":191930},{""event"":""focus"",""trial"":17,""time"":244525}]",NA,NA,NA,NA,NA,1,#3386FF,#D89F1C,10,10,0,38,1,981,39,0,561.9999999997672,10,1,experiment,NA,NA,0,0.1,0.9,1,0,198,5,NA
fcp-trial,233,1292768,0.0-208.0-0.0,voc_e2,11940,"[{""event"":""fullscreenenter"",""trial"":1,""time"":1947},{""event"":""blur"",""trial"":17,""time"":191930},{""event"":""focus"",""trial"":17,""time"":244525}]",NA,NA,NA,NA,NA,1,#1CD855,#FA92F8,10,0,1,40,0,1724,37,1,701,10,1,experiment,NA,NA,1,0.7,0.3,2,3,199,5,NA
fcp-trial,234,1296366,0.0-209.0-0.0,voc_e2,11940,"[{""event"":""fullscreenenter"",""trial"":1,""time"":1947},{""event"":""blur"",""trial"":17,""time"":191930},{""event"":""focus"",""trial"":17,""time"":244525}]",NA,NA,NA,NA,NA,3,#FA92F8,#1CD855,0,0,0,40,0,1505,39,0,580,0,1,experiment,NA,NA,1,0.3,0.7,3,2,200,5,NA
fcp-trial,235,1300685,0.0-210.0-0.0,voc_e2,11940,"[{""event"":""fullscreenenter"",""trial"":1,""time"":1947},{""event"":""blur"",""trial"":17,""time"":191930},{""event"":""focus"",""trial"":17,""time"":244525}]",NA,NA,NA,NA,NA,4,#FA92F8,#1CD855,0,10,0,40,0,1979,37,1,828,0,0,experiment,NA,NA,1,0.3,0.7,3,2,201,5,NA
fcp-trial,236,1304471,0.0-211.0-0.0,voc_e2,11940,"[{""event"":""fullscreenenter"",""trial"":1,""time"":1947},{""event"":""blur"",""trial"":17,""time"":191930},{""event"":""focus"",""trial"":17,""time"":244525}]",NA,NA,NA,NA,NA,5,#741CD8,#D8271C,10,10,1,40,0,1494,39,0,779.9999999997672,10,0,experiment,NA,NA,2,0.5,0.5,4,5,202,5,NA
fcp-trial,237,1307441,0.0-212.0-0.0,voc_e2,11940,"[{""event"":""fullscreenenter"",""trial"":1,""time"":1947},{""event"":""blur"",""trial"":17,""time"":191930},{""event"":""focus"",""trial"":17,""time"":244525}]",NA,NA,NA,NA,NA,0,#D89F1C,#3386FF,10,0,1,38,1,961,37,1,499.0000000002328,10,1,experiment,NA,NA,0,0.9,0.1,0,1,203,5,NA
fcp-trial,238,1311040,0.0-213.0-0.0,voc_e2,11940,"[{""event"":""fullscreenenter"",""trial"":1,""time"":1947},{""event"":""blur"",""trial"":17,""time"":191930},{""event"":""focus"",""trial"":17,""time"":244525}]",NA,NA,NA,NA,NA,6,#D8271C,#741CD8,10,10,0,40,0,1226.9999999997672,37,1,859,10,0,experiment,NA,NA,2,0.5,0.5,5,4,204,5,NA
fcp-trial,239,1314361,0.0-214.0-0.0,voc_e2,11940,"[{""event"":""fullscreenenter"",""trial"":1,""time"":1947},{""event"":""blur"",""trial"":17,""time"":191930},{""event"":""focus"",""trial"":17,""time"":244525}]",NA,NA,NA,NA,NA,4,#3386FF,#D89F1C,10,10,0,38,1,1293,39,0,517,10,1,experiment,NA,NA,0,0.1,0.9,1,0,205,5,NA
fcp-trial,240,1318655,0.0-215.0-0.0,voc_e2,11940,"[{""event"":""fullscreenenter"",""trial"":1,""time"":1947},{""event"":""blur"",""trial"":17,""time"":191930},{""event"":""focus"",""trial"":17,""time"":244525}]",NA,NA,NA,NA,NA,2,#FA92F8,#1CD855,0,10,0,40,0,2071,37,1,711.9999999997672,0,0,experiment,NA,NA,1,0.3,0.7,3,2,206,5,NA
fcp-trial,241,1321960,0.0-216.0-0.0,voc_e2,11940,"[{""event"":""fullscreenenter"",""trial"":1,""time"":1947},{""event"":""blur"",""trial"":17,""time"":191930},{""event"":""focus"",""trial"":17,""time"":244525}]",NA,NA,NA,NA,NA,1,#D8271C,#741CD8,10,10,0,38,1,1246,39,0,548,10,1,experiment,NA,NA,2,0.5,0.5,5,4,207,5,NA
fcp-trial,242,1325400,0.0-217.0-0.0,voc_e2,11940,"[{""event"":""fullscreenenter"",""trial"":1,""time"":1947},{""event"":""blur"",""trial"":17,""time"":191930},{""event"":""focus"",""trial"":17,""time"":244525}]",NA,NA,NA,NA,NA,6,#FA92F8,#1CD855,0,0,0,40,0,1228,37,1,701,0,0,experiment,NA,NA,1,0.3,0.7,3,2,208,5,NA
fcp-trial,243,1328196,0.0-218.0-0.0,voc_e2,11940,"[{""event"":""fullscreenenter"",""trial"":1,""time"":1947},{""event"":""blur"",""trial"":17,""time"":191930},{""event"":""focus"",""trial"":17,""time"":244525}]",NA,NA,NA,NA,NA,3,#D89F1C,#3386FF,10,0,1,38,1,853.0000000002328,37,1,433,10,1,experiment,NA,NA,0,0.9,0.1,0,1,209,5,NA
fcp-trial,244,1331297,0.0-219.0-0.0,voc_e2,11940,"[{""event"":""fullscreenenter"",""trial"":1,""time"":1947},{""event"":""blur"",""trial"":17,""time"":191930},{""event"":""focus"",""trial"":17,""time"":244525}]",NA,NA,NA,NA,NA,6,#3386FF,#D89F1C,0,10,0,38,1,907,39,0,682,10,1,experiment,NA,NA,0,0.1,0.9,1,0,210,5,NA
audio-instructions,245,1336857,0.0-220.0,voc_e2,11940,"[{""event"":""fullscreenenter"",""trial"":1,""time"":1947},{""event"":""blur"",""trial"":17,""time"":191930},{""event"":""focus"",""trial"":17,""time"":244525}]",NA,1119,static/audio/pause.wav,NA,0,NA,NA,NA,NA,NA,NA,NA,NA,NA,NA,NA,NA,NA,NA,NA,NA,NA,NA,NA,NA,NA,NA,NA,NA,NA
fcp-trial,246,1341776,0.0-221.0-0.0,voc_e2,11940,"[{""event"":""fullscreenenter"",""trial"":1,""time"":1947},{""event"":""blur"",""trial"":17,""time"":191930},{""event"":""focus"",""trial"":17,""time"":244525}]",NA,NA,NA,NA,NA,2,#1CD855,#FA92F8,10,0,1,40,0,2366,39,0,1044,0,0,experiment,NA,NA,1,0.7,0.3,2,3,211,5,NA
fcp-trial,247,1344712,0.0-222.0-0.0,voc_e2,11940,"[{""event"":""fullscreenenter"",""trial"":1,""time"":1947},{""event"":""blur"",""trial"":17,""time"":191930},{""event"":""focus"",""trial"":17,""time"":244525}]",NA,NA,NA,NA,NA,3,#D8271C,#741CD8,0,10,0,38,1,942,39,0,481,10,1,experiment,NA,NA,2,0.5,0.5,5,4,212,5,NA
fcp-trial,248,1348231,0.0-223.0-0.0,voc_e2,11940,"[{""event"":""fullscreenenter"",""trial"":1,""time"":1947},{""event"":""blur"",""trial"":17,""time"":191930},{""event"":""focus"",""trial"":17,""time"":244525}]",NA,NA,NA,NA,NA,1,#D8271C,#741CD8,0,10,0,38,1,1423,39,0,584,10,1,experiment,NA,NA,2,0.5,0.5,5,4,213,5,NA
fcp-trial,249,1351246,0.0-224.0-0.0,voc_e2,11940,"[{""event"":""fullscreenenter"",""trial"":1,""time"":1947},{""event"":""blur"",""trial"":17,""time"":191930},{""event"":""focus"",""trial"":17,""time"":244525}]",NA,NA,NA,NA,NA,2,#D89F1C,#3386FF,10,0,1,38,1,974,37,1,531,10,1,experiment,NA,NA,0,0.9,0.1,0,1,214,5,NA
fcp-trial,250,1354384,0.0-225.0-0.0,voc_e2,11940,"[{""event"":""fullscreenenter"",""trial"":1,""time"":1947},{""event"":""blur"",""trial"":17,""time"":191930},{""event"":""focus"",""trial"":17,""time"":244525}]",NA,NA,NA,NA,NA,3,#1CD855,#FA92F8,10,0,1,40,0,1128,39,0,500,0,0,experiment,NA,NA,1,0.7,0.3,2,3,215,5,NA
fcp-trial,251,1357878,0.0-226.0-0.0,voc_e2,11940,"[{""event"":""fullscreenenter"",""trial"":1,""time"":1947},{""event"":""blur"",""trial"":17,""time"":191930},{""event"":""focus"",""trial"":17,""time"":244525}]",NA,NA,NA,NA,NA,6,#1CD855,#FA92F8,10,0,1,40,0,1221,39,0,763,0,0,experiment,NA,NA,1,0.7,0.3,2,3,216,5,NA
fcp-trial,252,1360902,0.0-227.0-0.0,voc_e2,11940,"[{""event"":""fullscreenenter"",""trial"":1,""time"":1947},{""event"":""blur"",""trial"":17,""time"":191930},{""event"":""focus"",""trial"":17,""time"":244525}]",NA,NA,NA,NA,NA,6,#3386FF,#D89F1C,0,10,0,38,1,1057,39,0,453.9999999997672,10,1,experiment,NA,NA,0,0.1,0.9,1,0,217,5,NA
fcp-trial,253,1364331,0.0-228.0-0.0,voc_e2,11940,"[{""event"":""fullscreenenter"",""trial"":1,""time"":1947},{""event"":""blur"",""trial"":17,""time"":191930},{""event"":""focus"",""trial"":17,""time"":244525}]",NA,NA,NA,NA,NA,6,#741CD8,#D8271C,0,10,1,40,0,1385,37,1,533,0,1,experiment,NA,NA,2,0.5,0.5,4,5,218,5,NA
fcp-trial,254,1367182,0.0-229.0-0.0,voc_e2,11940,"[{""event"":""fullscreenenter"",""trial"":1,""time"":1947},{""event"":""blur"",""trial"":17,""time"":191930},{""event"":""focus"",""trial"":17,""time"":244525}]",NA,NA,NA,NA,NA,0,#3386FF,#D89F1C,0,10,0,38,1,840.9999999997672,39,0,499,10,1,experiment,NA,NA,0,0.1,0.9,1,0,219,5,NA
fcp-trial,255,1370627,0.0-230.0-0.0,voc_e2,11940,"[{""event"":""fullscreenenter"",""trial"":1,""time"":1947},{""event"":""blur"",""trial"":17,""time"":191930},{""event"":""focus"",""trial"":17,""time"":244525}]",NA,NA,NA,NA,NA,5,#1CD855,#FA92F8,0,0,1,40,0,1238,39,0,696,0,0,experiment,NA,NA,1,0.7,0.3,2,3,220,5,NA
fcp-trial,256,1375449,0.0-231.0-0.0,voc_e2,11940,"[{""event"":""fullscreenenter"",""trial"":1,""time"":1947},{""event"":""blur"",""trial"":17,""time"":191930},{""event"":""focus"",""trial"":17,""time"":244525}]",NA,NA,NA,NA,NA,1,#D89F1C,#3386FF,10,0,1,38,1,2862,37,1,451,10,1,experiment,NA,NA,0,0.9,0.1,0,1,221,5,NA
fcp-trial,257,1380493,0.0-232.0-0.0,voc_e2,11940,"[{""event"":""fullscreenenter"",""trial"":1,""time"":1947},{""event"":""blur"",""trial"":17,""time"":191930},{""event"":""focus"",""trial"":17,""time"":244525}]",NA,NA,NA,NA,NA,4,#741CD8,#D8271C,10,10,1,40,0,2389,39,0,1144,10,0,experiment,NA,NA,2,0.5,0.5,4,5,222,5,NA
fcp-trial,258,1383875,0.0-233.0-0.0,voc_e2,11940,"[{""event"":""fullscreenenter"",""trial"":1,""time"":1947},{""event"":""blur"",""trial"":17,""time"":191930},{""event"":""focus"",""trial"":17,""time"":244525}]",NA,NA,NA,NA,NA,0,#FA92F8,#1CD855,0,0,0,38,1,1413,37,1,455,0,0,experiment,NA,NA,1,0.3,0.7,3,2,223,5,NA
fcp-trial,259,1388002,0.0-234.0-0.0,voc_e2,11940,"[{""event"":""fullscreenenter"",""trial"":1,""time"":1947},{""event"":""blur"",""trial"":17,""time"":191930},{""event"":""focus"",""trial"":17,""time"":244525}]",NA,NA,NA,NA,NA,2,#741CD8,#D8271C,10,10,1,40,0,1863.0000000002328,37,1,754,10,1,experiment,NA,NA,2,0.5,0.5,4,5,224,5,NA
fcp-trial,260,1391134,0.0-235.0-0.0,voc_e2,11940,"[{""event"":""fullscreenenter"",""trial"":1,""time"":1947},{""event"":""blur"",""trial"":17,""time"":191930},{""event"":""focus"",""trial"":17,""time"":244525}]",NA,NA,NA,NA,NA,1,#1CD855,#FA92F8,10,0,1,38,1,1109,39,0,501,0,0,experiment,NA,NA,1,0.7,0.3,2,3,225,5,NA
fcp-trial,261,1394050,0.0-236.0-0.0,voc_e2,11940,"[{""event"":""fullscreenenter"",""trial"":1,""time"":1947},{""event"":""blur"",""trial"":17,""time"":191930},{""event"":""focus"",""trial"":17,""time"":244525}]",NA,NA,NA,NA,NA,4,#D89F1C,#3386FF,0,0,1,38,1,953,37,1,450,0,1,experiment,NA,NA,0,0.9,0.1,0,1,226,6,NA
fcp-trial,262,1397733,0.0-237.0-0.0,voc_e2,11940,"[{""event"":""fullscreenenter"",""trial"":1,""time"":1947},{""event"":""blur"",""trial"":17,""time"":191930},{""event"":""focus"",""trial"":17,""time"":244525}]",NA,NA,NA,NA,NA,5,#741CD8,#D8271C,0,0,1,40,0,1624,39,0,548,0,0,experiment,NA,NA,2,0.5,0.5,4,5,227,6,NA
fcp-trial,263,1402045,0.0-238.0-0.0,voc_e2,11940,"[{""event"":""fullscreenenter"",""trial"":1,""time"":1947},{""event"":""blur"",""trial"":17,""time"":191930},{""event"":""focus"",""trial"":17,""time"":244525}]",NA,NA,NA,NA,NA,4,#FA92F8,#1CD855,0,0,0,40,0,2238,39,0,562.0000000002328,0,1,experiment,NA,NA,1,0.3,0.7,3,2,228,6,NA
fcp-trial,264,1405249,0.0-239.0-0.0,voc_e2,11940,"[{""event"":""fullscreenenter"",""trial"":1,""time"":1947},{""event"":""blur"",""trial"":17,""time"":191930},{""event"":""focus"",""trial"":17,""time"":244525}]",NA,NA,NA,NA,NA,5,#3386FF,#D89F1C,0,10,0,38,1,1160.9999999997672,39,0,533,10,1,experiment,NA,NA,0,0.1,0.9,1,0,229,6,NA
fcp-trial,265,1409678,0.0-240.0-0.0,voc_e2,11940,"[{""event"":""fullscreenenter"",""trial"":1,""time"":1947},{""event"":""blur"",""trial"":17,""time"":191930},{""event"":""focus"",""trial"":17,""time"":244525}]",NA,NA,NA,NA,NA,0,#741CD8,#D8271C,10,10,1,40,0,2303,39,0,616.0000000002328,10,0,experiment,NA,NA,2,0.5,0.5,4,5,230,6,NA
fcp-trial,266,1412552,0.0-241.0-0.0,voc_e2,11940,"[{""event"":""fullscreenenter"",""trial"":1,""time"":1947},{""event"":""blur"",""trial"":17,""time"":191930},{""event"":""focus"",""trial"":17,""time"":244525}]",NA,NA,NA,NA,NA,3,#3386FF,#D89F1C,0,10,0,38,1,882,39,0,481,10,1,experiment,NA,NA,0,0.1,0.9,1,0,231,6,NA
fcp-trial,267,1416394,0.0-242.0-0.0,voc_e2,11940,"[{""event"":""fullscreenenter"",""trial"":1,""time"":1947},{""event"":""blur"",""trial"":17,""time"":191930},{""event"":""focus"",""trial"":17,""time"":244525}]",NA,NA,NA,NA,NA,3,#FA92F8,#1CD855,0,10,0,40,0,1655,37,1,678,0,0,experiment,NA,NA,1,0.3,0.7,3,2,232,6,NA
fcp-trial,268,1419898,0.0-243.0-0.0,voc_e2,11940,"[{""event"":""fullscreenenter"",""trial"":1,""time"":1947},{""event"":""blur"",""trial"":17,""time"":191930},{""event"":""focus"",""trial"":17,""time"":244525}]",NA,NA,NA,NA,NA,3,#741CD8,#D8271C,10,0,1,40,0,1467,39,0,527,0,0,experiment,NA,NA,2,0.5,0.5,4,5,233,6,NA
fcp-trial,269,1422967,0.0-244.0-0.0,voc_e2,11940,"[{""event"":""fullscreenenter"",""trial"":1,""time"":1947},{""event"":""blur"",""trial"":17,""time"":191930},{""event"":""focus"",""trial"":17,""time"":244525}]",NA,NA,NA,NA,NA,5,#3386FF,#D89F1C,0,10,0,38,1,1045,39,0,513,10,1,experiment,NA,NA,0,0.1,0.9,1,0,234,6,NA
fcp-trial,270,1427547,0.0-245.0-0.0,voc_e2,11940,"[{""event"":""fullscreenenter"",""trial"":1,""time"":1947},{""event"":""blur"",""trial"":17,""time"":191930},{""event"":""focus"",""trial"":17,""time"":244525}]",NA,NA,NA,NA,NA,6,#741CD8,#D8271C,0,0,1,40,0,2587,37,1,482,0,1,experiment,NA,NA,2,0.5,0.5,4,5,235,6,NA
fcp-trial,271,1430966,0.0-246.0-0.0,voc_e2,11940,"[{""event"":""fullscreenenter"",""trial"":1,""time"":1947},{""event"":""blur"",""trial"":17,""time"":191930},{""event"":""focus"",""trial"":17,""time"":244525}]",NA,NA,NA,NA,NA,6,#FA92F8,#1CD855,0,10,0,38,1,1279,39,0,632,10,1,experiment,NA,NA,1,0.3,0.7,3,2,236,6,NA
fcp-trial,272,1434667,0.0-247.0-0.0,voc_e2,11940,"[{""event"":""fullscreenenter"",""trial"":1,""time"":1947},{""event"":""blur"",""trial"":17,""time"":191930},{""event"":""focus"",""trial"":17,""time"":244525}]",NA,NA,NA,NA,NA,1,#1CD855,#FA92F8,10,0,1,38,1,1741,37,1,447.9999999997672,10,1,experiment,NA,NA,1,0.7,0.3,2,3,237,6,NA
fcp-trial,273,1438029,0.0-248.0-0.0,voc_e2,11940,"[{""event"":""fullscreenenter"",""trial"":1,""time"":1947},{""event"":""blur"",""trial"":17,""time"":191930},{""event"":""focus"",""trial"":17,""time"":244525}]",NA,NA,NA,NA,NA,5,#D8271C,#741CD8,10,10,0,40,0,1321,37,1,531,10,0,experiment,NA,NA,2,0.5,0.5,5,4,238,6,NA
fcp-trial,274,1440933,0.0-249.0-0.0,voc_e2,11940,"[{""event"":""fullscreenenter"",""trial"":1,""time"":1947},{""event"":""blur"",""trial"":17,""time"":191930},{""event"":""focus"",""trial"":17,""time"":244525}]",NA,NA,NA,NA,NA,0,#D89F1C,#3386FF,10,0,1,38,1,944,37,1,449,10,1,experiment,NA,NA,0,0.9,0.1,0,1,239,6,NA
fcp-trial,275,1444296,0.0-250.0-0.0,voc_e2,11940,"[{""event"":""fullscreenenter"",""trial"":1,""time"":1947},{""event"":""blur"",""trial"":17,""time"":191930},{""event"":""focus"",""trial"":17,""time"":244525}]",NA,NA,NA,NA,NA,4,#741CD8,#D8271C,0,0,1,40,0,1275.0000000002328,39,0,577,0,0,experiment,NA,NA,2,0.5,0.5,4,5,240,6,NA
fcp-trial,276,1447136,0.0-251.0-0.0,voc_e2,11940,"[{""event"":""fullscreenenter"",""trial"":1,""time"":1947},{""event"":""blur"",""trial"":17,""time"":191930},{""event"":""focus"",""trial"":17,""time"":244525}]",NA,NA,NA,NA,NA,6,#D89F1C,#3386FF,10,0,1,38,1,878,37,1,448,10,1,experiment,NA,NA,0,0.9,0.1,0,1,241,6,NA
fcp-trial,277,1452068,0.0-252.0-0.0,voc_e2,11940,"[{""event"":""fullscreenenter"",""trial"":1,""time"":1947},{""event"":""blur"",""trial"":17,""time"":191930},{""event"":""focus"",""trial"":17,""time"":244525}]",NA,NA,NA,NA,NA,0,#1CD855,#FA92F8,10,10,1,38,1,1569,37,1,1850,10,1,experiment,NA,NA,1,0.7,0.3,2,3,242,6,NA
fcp-trial,278,1454969,0.0-253.0-0.0,voc_e2,11940,"[{""event"":""fullscreenenter"",""trial"":1,""time"":1947},{""event"":""blur"",""trial"":17,""time"":191930},{""event"":""focus"",""trial"":17,""time"":244525}]",NA,NA,NA,NA,NA,5,#1CD855,#FA92F8,10,10,1,38,1,955,37,1,434,10,1,experiment,NA,NA,1,0.7,0.3,2,3,243,6,NA
fcp-trial,279,1457867,0.0-254.0-0.0,voc_e2,11940,"[{""event"":""fullscreenenter"",""trial"":1,""time"":1947},{""event"":""blur"",""trial"":17,""time"":191930},{""event"":""focus"",""trial"":17,""time"":244525}]",NA,NA,NA,NA,NA,1,#D89F1C,#3386FF,10,0,1,38,1,935.9999999997672,37,1,448,10,1,experiment,NA,NA,0,0.9,0.1,0,1,244,6,NA
fcp-trial,280,1461083,0.0-255.0-0.0,voc_e2,11940,"[{""event"":""fullscreenenter"",""trial"":1,""time"":1947},{""event"":""blur"",""trial"":17,""time"":191930},{""event"":""focus"",""trial"":17,""time"":244525}]",NA,NA,NA,NA,NA,0,#741CD8,#D8271C,0,0,1,38,1,1291,37,1,413,0,1,experiment,NA,NA,2,0.5,0.5,4,5,245,6,NA
fcp-trial,281,1464000,0.0-256.0-0.0,voc_e2,11940,"[{""event"":""fullscreenenter"",""trial"":1,""time"":1947},{""event"":""blur"",""trial"":17,""time"":191930},{""event"":""focus"",""trial"":17,""time"":244525}]",NA,NA,NA,NA,NA,4,#D89F1C,#3386FF,10,0,1,38,1,927,37,1,480,10,1,experiment,NA,NA,0,0.9,0.1,0,1,246,6,NA
fcp-trial,282,1467405,0.0-257.0-0.0,voc_e2,11940,"[{""event"":""fullscreenenter"",""trial"":1,""time"":1947},{""event"":""blur"",""trial"":17,""time"":191930},{""event"":""focus"",""trial"":17,""time"":244525}]",NA,NA,NA,NA,NA,2,#D8271C,#741CD8,0,10,0,38,1,1405,39,0,487,10,1,experiment,NA,NA,2,0.5,0.5,5,4,247,6,NA
fcp-trial,283,1470997,0.0-258.0-0.0,voc_e2,11940,"[{""event"":""fullscreenenter"",""trial"":1,""time"":1947},{""event"":""blur"",""trial"":17,""time"":191930},{""event"":""focus"",""trial"":17,""time"":244525}]",NA,NA,NA,NA,NA,2,#FA92F8,#1CD855,0,10,0,40,0,1507,37,1,565.9999999997672,0,0,experiment,NA,NA,1,0.3,0.7,3,2,248,6,NA
fcp-trial,284,1473654,0.0-259.0-0.0,voc_e2,11940,"[{""event"":""fullscreenenter"",""trial"":1,""time"":1947},{""event"":""blur"",""trial"":17,""time"":191930},{""event"":""focus"",""trial"":17,""time"":244525}]",NA,NA,NA,NA,NA,2,#D89F1C,#3386FF,10,0,1,38,1,699,37,1,448,10,1,experiment,NA,NA,0,0.9,0.1,0,1,249,6,NA
fcp-trial,285,1476782,0.0-260.0-0.0,voc_e2,11940,"[{""event"":""fullscreenenter"",""trial"":1,""time"":1947},{""event"":""blur"",""trial"":17,""time"":191930},{""event"":""focus"",""trial"":17,""time"":244525}]",NA,NA,NA,NA,NA,3,#D89F1C,#3386FF,10,0,1,38,1,937,37,1,679,10,1,experiment,NA,NA,0,0.9,0.1,0,1,250,6,NA
fcp-trial,286,1480512,0.0-261.0-0.0,voc_e2,11940,"[{""event"":""fullscreenenter"",""trial"":1,""time"":1947},{""event"":""blur"",""trial"":17,""time"":191930},{""event"":""focus"",""trial"":17,""time"":244525}]",NA,NA,NA,NA,NA,4,#1CD855,#FA92F8,10,0,1,40,0,1411,37,1,809,10,1,experiment,NA,NA,1,0.7,0.3,2,3,251,6,NA
fcp-trial,287,1484261,0.0-262.0-0.0,voc_e2,11940,"[{""event"":""fullscreenenter"",""trial"":1,""time"":1947},{""event"":""blur"",""trial"":17,""time"":191930},{""event"":""focus"",""trial"":17,""time"":244525}]",NA,NA,NA,NA,NA,1,#D8271C,#741CD8,10,10,0,40,0,1712,39,0,522,10,1,experiment,NA,NA,2,0.5,0.5,5,4,252,6,NA
fcp-trial,288,1487484,0.0-263.0-0.0,voc_e2,11940,"[{""event"":""fullscreenenter"",""trial"":1,""time"":1947},{""event"":""blur"",""trial"":17,""time"":191930},{""event"":""focus"",""trial"":17,""time"":244525}]",NA,NA,NA,NA,NA,1,#3386FF,#D89F1C,0,10,0,38,1,1114,39,0,600,10,1,experiment,NA,NA,0,0.1,0.9,1,0,253,6,NA
fcp-trial,289,1490963,0.0-264.0-0.0,voc_e2,11940,"[{""event"":""fullscreenenter"",""trial"":1,""time"":1947},{""event"":""blur"",""trial"":17,""time"":191930},{""event"":""focus"",""trial"":17,""time"":244525}]",NA,NA,NA,NA,NA,4,#1CD855,#FA92F8,0,0,1,40,0,1128,37,1,838.9999999997672,0,1,experiment,NA,NA,1,0.7,0.3,2,3,254,6,NA
fcp-trial,290,1494170,0.0-265.0-0.0,voc_e2,11940,"[{""event"":""fullscreenenter"",""trial"":1,""time"":1947},{""event"":""blur"",""trial"":17,""time"":191930},{""event"":""focus"",""trial"":17,""time"":244525}]",NA,NA,NA,NA,NA,4,#D8271C,#741CD8,10,10,0,40,0,1179,39,0,518,10,1,experiment,NA,NA,2,0.5,0.5,5,4,255,6,NA
fcp-trial,291,1498196,0.0-266.0-0.0,voc_e2,11940,"[{""event"":""fullscreenenter"",""trial"":1,""time"":1947},{""event"":""blur"",""trial"":17,""time"":191930},{""event"":""focus"",""trial"":17,""time"":244525}]",NA,NA,NA,NA,NA,6,#741CD8,#D8271C,10,10,1,40,0,1319.0000000002328,39,0,1196.9999999997672,10,0,experiment,NA,NA,2,0.5,0.5,4,5,256,6,NA
fcp-trial,292,1501714,0.0-267.0-0.0,voc_e2,11940,"[{""event"":""fullscreenenter"",""trial"":1,""time"":1947},{""event"":""blur"",""trial"":17,""time"":191930},{""event"":""focus"",""trial"":17,""time"":244525}]",NA,NA,NA,NA,NA,2,#741CD8,#D8271C,0,10,1,40,0,1163,37,1,846,0,1,experiment,NA,NA,2,0.5,0.5,4,5,257,6,NA
fcp-trial,293,1504606,0.0-268.0-0.0,voc_e2,11940,"[{""event"":""fullscreenenter"",""trial"":1,""time"":1947},{""event"":""blur"",""trial"":17,""time"":191930},{""event"":""focus"",""trial"":17,""time"":244525}]",NA,NA,NA,NA,NA,5,#3386FF,#D89F1C,10,10,0,38,1,895,39,0,487.0000000002328,10,1,experiment,NA,NA,0,0.1,0.9,1,0,258,6,NA
fcp-trial,294,1507904,0.0-269.0-0.0,voc_e2,11940,"[{""event"":""fullscreenenter"",""trial"":1,""time"":1947},{""event"":""blur"",""trial"":17,""time"":191930},{""event"":""focus"",""trial"":17,""time"":244525}]",NA,NA,NA,NA,NA,2,#FA92F8,#1CD855,0,0,0,40,0,1210,39,0,536.0000000002328,0,1,experiment,NA,NA,1,0.3,0.7,3,2,259,6,NA
fcp-trial,295,1511251,0.0-270.0-0.0,voc_e2,11940,"[{""event"":""fullscreenenter"",""trial"":1,""time"":1947},{""event"":""blur"",""trial"":17,""time"":191930},{""event"":""focus"",""trial"":17,""time"":244525}]",NA,NA,NA,NA,NA,0,#3386FF,#D89F1C,0,10,0,38,1,1368,39,0,465,10,1,experiment,NA,NA,0,0.1,0.9,1,0,260,6,NA
fcp-trial,296,1514904,0.0-271.0-0.0,voc_e2,11940,"[{""event"":""fullscreenenter"",""trial"":1,""time"":1947},{""event"":""blur"",""trial"":17,""time"":191930},{""event"":""focus"",""trial"":17,""time"":244525}]",NA,NA,NA,NA,NA,1,#D8271C,#741CD8,10,0,0,38,1,1656,39,0,484.0000000002328,0,1,experiment,NA,NA,2,0.5,0.5,5,4,261,6,NA
fcp-trial,297,1518289,0.0-272.0-0.0,voc_e2,11940,"[{""event"":""fullscreenenter"",""trial"":1,""time"":1947},{""event"":""blur"",""trial"":17,""time"":191930},{""event"":""focus"",""trial"":17,""time"":244525}]",NA,NA,NA,NA,NA,3,#D8271C,#741CD8,0,0,0,40,0,1347,37,1,486,0,0,experiment,NA,NA,2,0.5,0.5,5,4,262,6,NA
fcp-trial,298,1521572,0.0-273.0-0.0,voc_e2,11940,"[{""event"":""fullscreenenter"",""trial"":1,""time"":1947},{""event"":""blur"",""trial"":17,""time"":191930},{""event"":""focus"",""trial"":17,""time"":244525}]",NA,NA,NA,NA,NA,3,#FA92F8,#1CD855,0,0,0,40,0,1271,39,0,500,0,1,experiment,NA,NA,1,0.3,0.7,3,2,263,6,NA
fcp-trial,299,1524999,0.0-274.0-0.0,voc_e2,11940,"[{""event"":""fullscreenenter"",""trial"":1,""time"":1947},{""event"":""blur"",""trial"":17,""time"":191930},{""event"":""focus"",""trial"":17,""time"":244525}]",NA,NA,NA,NA,NA,6,#1CD855,#FA92F8,10,0,1,40,0,1118,39,0,798,0,0,experiment,NA,NA,1,0.7,0.3,2,3,264,6,NA
fcp-trial,300,1527869,0.0-275.0-0.0,voc_e2,11940,"[{""event"":""fullscreenenter"",""trial"":1,""time"":1947},{""event"":""blur"",""trial"":17,""time"":191930},{""event"":""focus"",""trial"":17,""time"":244525}]",NA,NA,NA,NA,NA,6,#3386FF,#D89F1C,0,0,0,38,1,877.0000000002328,39,0,483,0,1,experiment,NA,NA,0,0.1,0.9,1,0,265,6,NA
fcp-trial,301,1531470,0.0-276.0-0.0,voc_e2,11940,"[{""event"":""fullscreenenter"",""trial"":1,""time"":1947},{""event"":""blur"",""trial"":17,""time"":191930},{""event"":""focus"",""trial"":17,""time"":244525}]",NA,NA,NA,NA,NA,0,#FA92F8,#1CD855,0,10,0,38,1,1506,39,0,583,10,1,experiment,NA,NA,1,0.3,0.7,3,2,266,6,NA
fcp-trial,302,1534835,0.0-277.0-0.0,voc_e2,11940,"[{""event"":""fullscreenenter"",""trial"":1,""time"":1947},{""event"":""blur"",""trial"":17,""time"":191930},{""event"":""focus"",""trial"":17,""time"":244525}]",NA,NA,NA,NA,NA,0,#D8271C,#741CD8,0,0,0,38,1,1359.9999999997672,39,0,495,0,1,experiment,NA,NA,2,0.5,0.5,5,4,267,6,NA
fcp-trial,303,1537953,0.0-278.0-0.0,voc_e2,11940,"[{""event"":""fullscreenenter"",""trial"":1,""time"":1947},{""event"":""blur"",""trial"":17,""time"":191930},{""event"":""focus"",""trial"":17,""time"":244525}]",NA,NA,NA,NA,NA,2,#3386FF,#D89F1C,0,10,0,38,1,1107.0000000002328,39,0,499.0000000002328,10,1,experiment,NA,NA,0,0.1,0.9,1,0,268,6,NA
fcp-trial,304,1540885,0.0-279.0-0.0,voc_e2,11940,"[{""event"":""fullscreenenter"",""trial"":1,""time"":1947},{""event"":""blur"",""trial"":17,""time"":191930},{""event"":""focus"",""trial"":17,""time"":244525}]",NA,NA,NA,NA,NA,4,#D89F1C,#3386FF,10,0,1,38,1,938,37,1,481,10,1,experiment,NA,NA,0,0.9,0.1,0,1,269,6,NA
fcp-trial,305,1544290,0.0-280.0-0.0,voc_e2,11940,"[{""event"":""fullscreenenter"",""trial"":1,""time"":1947},{""event"":""blur"",""trial"":17,""time"":191930},{""event"":""focus"",""trial"":17,""time"":244525}]",NA,NA,NA,NA,NA,5,#1CD855,#FA92F8,10,0,1,38,1,1324,37,1,570,10,1,experiment,NA,NA,1,0.7,0.3,2,3,270,6,NA
fcp-trial,306,1547700,0.0-281.0-0.0,voc_e2,11940,"[{""event"":""fullscreenenter"",""trial"":1,""time"":1947},{""event"":""blur"",""trial"":17,""time"":191930},{""event"":""focus"",""trial"":17,""time"":244525}]",NA,NA,NA,NA,NA,5,#741CD8,#D8271C,0,0,1,40,0,1338,37,1,561,0,1,experiment,NA,NA,2,0.5,0.5,4,5,271,7,NA
fcp-trial,307,1551841,0.0-282.0-0.0,voc_e2,11940,"[{""event"":""fullscreenenter"",""trial"":1,""time"":1947},{""event"":""blur"",""trial"":17,""time"":191930},{""event"":""focus"",""trial"":17,""time"":244525}]",NA,NA,NA,NA,NA,1,#FA92F8,#1CD855,0,10,0,40,0,1961,39,0,669,10,1,experiment,NA,NA,1,0.3,0.7,3,2,272,7,NA
fcp-trial,308,1554874,0.0-283.0-0.0,voc_e2,11940,"[{""event"":""fullscreenenter"",""trial"":1,""time"":1947},{""event"":""blur"",""trial"":17,""time"":191930},{""event"":""focus"",""trial"":17,""time"":244525}]",NA,NA,NA,NA,NA,3,#3386FF,#D89F1C,0,10,0,38,1,999,39,0,481,10,1,experiment,NA,NA,0,0.1,0.9,1,0,273,7,NA
fcp-trial,309,1557619,0.0-284.0-0.0,voc_e2,11940,"[{""event"":""fullscreenenter"",""trial"":1,""time"":1947},{""event"":""blur"",""trial"":17,""time"":191930},{""event"":""focus"",""trial"":17,""time"":244525}]",NA,NA,NA,NA,NA,0,#D89F1C,#3386FF,10,0,1,38,1,787,37,1,448,10,1,experiment,NA,NA,0,0.9,0.1,0,1,274,7,NA
fcp-trial,310,1562182,0.0-285.0-0.0,voc_e2,11940,"[{""event"":""fullscreenenter"",""trial"":1,""time"":1947},{""event"":""blur"",""trial"":17,""time"":191930},{""event"":""focus"",""trial"":17,""time"":244525}]",NA,NA,NA,NA,NA,4,#1CD855,#FA92F8,10,0,1,40,0,2075,37,1,979.0000000002328,10,1,experiment,NA,NA,1,0.7,0.3,2,3,275,7,NA
fcp-trial,311,1565103,0.0-286.0-0.0,voc_e2,11940,"[{""event"":""fullscreenenter"",""trial"":1,""time"":1947},{""event"":""blur"",""trial"":17,""time"":191930},{""event"":""focus"",""trial"":17,""time"":244525}]",NA,NA,NA,NA,NA,1,#D89F1C,#3386FF,10,0,1,38,1,930,37,1,481,10,1,experiment,NA,NA,0,0.9,0.1,0,1,276,7,NA
fcp-trial,312,1568124,0.0-287.0-0.0,voc_e2,11940,"[{""event"":""fullscreenenter"",""trial"":1,""time"":1947},{""event"":""blur"",""trial"":17,""time"":191930},{""event"":""focus"",""trial"":17,""time"":244525}]",NA,NA,NA,NA,NA,4,#D89F1C,#3386FF,10,10,1,38,1,1023,37,1,486,10,1,experiment,NA,NA,0,0.9,0.1,0,1,277,7,NA
fcp-trial,313,1571916,0.0-288.0-0.0,voc_e2,11940,"[{""event"":""fullscreenenter"",""trial"":1,""time"":1947},{""event"":""blur"",""trial"":17,""time"":191930},{""event"":""focus"",""trial"":17,""time"":244525}]",NA,NA,NA,NA,NA,1,#1CD855,#FA92F8,10,0,1,40,0,1368,39,0,913,0,0,experiment,NA,NA,1,0.7,0.3,2,3,278,7,NA
fcp-trial,314,1575315,0.0-289.0-0.0,voc_e2,11940,"[{""event"":""fullscreenenter"",""trial"":1,""time"":1947},{""event"":""blur"",""trial"":17,""time"":191930},{""event"":""focus"",""trial"":17,""time"":244525}]",NA,NA,NA,NA,NA,0,#1CD855,#FA92F8,0,0,1,40,0,1261.9999999997672,37,1,628,0,1,experiment,NA,NA,1,0.7,0.3,2,3,279,7,NA
