trial_type,trial_index,time_elapsed,internal_node_id,task_version,subject_id,interactions,success,rt,stimulus,key_press,button_pressed,offer,arcade_color_L,arcade_color_R,arcade_outcome_L,arcade_outcome_R,correct,stage_1_key,stage_1_choice,stage_1_rt,stage_2_key,stage_2_choice,stage_2_rt,stage_3_outcome,accuracy,phase,responses,num_errors,context,reward_prob_L,reward_prob_R,arcade_id_L,arcade_id_R,trial,block,response
pavlovia,0,9,0.0-0.0,voc_e2,11739,[],NA,NA,NA,NA,NA,NA,NA,NA,NA,NA,NA,NA,NA,NA,NA,NA,NA,NA,NA,NA,NA,NA,NA,NA,NA,NA,NA,NA,NA,NA
fullscreen,1,3598,0.0-1.0,voc_e2,11739,"[{""event"":""fullscreenenter"",""trial"":1,""time"":2617}]",TRUE,NA,NA,NA,NA,NA,NA,NA,NA,NA,NA,NA,NA,NA,NA,NA,NA,NA,NA,NA,NA,NA,NA,NA,NA,NA,NA,NA,NA,NA
audio-keyboard-response,2,6352,0.0-2.0,voc_e2,11739,"[{""event"":""fullscreenenter"",""trial"":1,""time"":2617}]",NA,2749,static/audio/beep_loop.wav,174,NA,NA,NA,NA,NA,NA,NA,NA,NA,NA,NA,NA,NA,NA,NA,NA,NA,NA,NA,NA,NA,NA,NA,NA,NA,NA
audio-test,3,10053,0.0-3.0,voc_e2,11739,"[{""event"":""fullscreenenter"",""trial"":1,""time"":2617}]",NA,NA,static/audio/turtle.wav,NA,3,NA,NA,NA,NA,NA,NA,NA,NA,NA,NA,NA,NA,NA,NA,NA,NA,NA,NA,NA,NA,NA,NA,NA,NA,NA
audio-test,4,12333,0.0-4.0,voc_e2,11739,"[{""event"":""fullscreenenter"",""trial"":1,""time"":2617}]",NA,NA,static/audio/shark.wav,NA,2,NA,NA,NA,NA,NA,NA,NA,NA,NA,NA,NA,NA,NA,NA,NA,NA,NA,NA,NA,NA,NA,NA,NA,NA,NA
audio-instructions,5,19349,0.0-5.0-0.0,voc_e2,11739,"[{""event"":""fullscreenenter"",""trial"":1,""time"":2617}]",NA,1232.0999999642372,static/audio/instructions1.wav,NA,0,NA,NA,NA,NA,NA,NA,NA,NA,NA,NA,NA,NA,NA,NA,NA,NA,NA,NA,NA,NA,NA,NA,NA,NA,NA
audio-instructions,6,30261,0.0-5.0-1.0,voc_e2,11739,"[{""event"":""fullscreenenter"",""trial"":1,""time"":2617}]",NA,4174,static/audio/instructions2.wav,NA,0,NA,NA,NA,NA,NA,NA,NA,NA,NA,NA,NA,NA,NA,NA,NA,NA,NA,NA,NA,NA,NA,NA,NA,NA,NA
audio-instructions,7,36869,0.0-5.0-2.0,voc_e2,11739,"[{""event"":""fullscreenenter"",""trial"":1,""time"":2617}]",NA,802.3000000119209,static/audio/instructions3.wav,NA,0,NA,NA,NA,NA,NA,NA,NA,NA,NA,NA,NA,NA,NA,NA,NA,NA,NA,NA,NA,NA,NA,NA,NA,NA,NA
audio-instructions,8,53309,0.0-5.0-3.0,voc_e2,11739,"[{""event"":""fullscreenenter"",""trial"":1,""time"":2617}]",NA,3211.800000011921,static/audio/instructions4.wav,NA,0,NA,NA,NA,NA,NA,NA,NA,NA,NA,NA,NA,NA,NA,NA,NA,NA,NA,NA,NA,NA,NA,NA,NA,NA,NA
audio-instructions,9,64069,0.0-5.0-4.0,voc_e2,11739,"[{""event"":""fullscreenenter"",""trial"":1,""time"":2617}]",NA,1372.5,static/audio/instructions5.wav,NA,0,NA,NA,NA,NA,NA,NA,NA,NA,NA,NA,NA,NA,NA,NA,NA,NA,NA,NA,NA,NA,NA,NA,NA,NA,NA
fcp-practice,10,67175,0.0-5.0-5.0-0.0,voc_e2,11739,"[{""event"":""fullscreenenter"",""trial"":1,""time"":2617}]",NA,NA,NA,NA,NA,NA,#EDC948,#46d3c8,10,0,1,null,null,null,37,1,1590.699999988079,10,1,practice,NA,NA,NA,NA,NA,NA,NA,NA,NA,NA
fcp-practice,11,69551,0.0-5.0-5.0-1.0,voc_e2,11739,"[{""event"":""fullscreenenter"",""trial"":1,""time"":2617}]",NA,NA,NA,NA,NA,NA,#EDC948,#46d3c8,10,0,1,null,null,null,37,1,871.7000000476837,10,1,practice,NA,NA,NA,NA,NA,NA,NA,NA,NA,NA
fcp-practice,12,71601,0.0-5.0-5.0-2.0,voc_e2,11739,"[{""event"":""fullscreenenter"",""trial"":1,""time"":2617}]",NA,NA,NA,NA,NA,NA,#EDC948,#46d3c8,0,10,1,null,null,null,37,1,542.6000000238419,0,1,practice,NA,NA,NA,NA,NA,NA,NA,NA,NA,NA
fcp-practice,13,73555,0.0-5.0-5.0-3.0,voc_e2,11739,"[{""event"":""fullscreenenter"",""trial"":1,""time"":2617}]",NA,NA,NA,NA,NA,NA,#EDC948,#46d3c8,10,0,1,null,null,null,37,1,448.39999997615814,10,1,practice,NA,NA,NA,NA,NA,NA,NA,NA,NA,NA
fcp-practice,14,75318,0.0-5.0-5.0-4.0,voc_e2,11739,"[{""event"":""fullscreenenter"",""trial"":1,""time"":2617}]",NA,NA,NA,NA,NA,NA,#EDC948,#46d3c8,10,0,1,null,null,null,37,1,255,10,1,practice,NA,NA,NA,NA,NA,NA,NA,NA,NA,NA
audio-instructions,15,96221,0.0-5.0-6.0,voc_e2,11739,"[{""event"":""fullscreenenter"",""trial"":1,""time"":2617}]",NA,2894,static/audio/instructions6.wav,NA,0,NA,NA,NA,NA,NA,NA,NA,NA,NA,NA,NA,NA,NA,NA,NA,NA,NA,NA,NA,NA,NA,NA,NA,NA,NA
audio-instructions,16,124389,0.0-5.0-7.0,voc_e2,11739,"[{""event"":""fullscreenenter"",""trial"":1,""time"":2617}]",NA,8971.700000047684,static/audio/instructions7.wav,NA,0,NA,NA,NA,NA,NA,NA,NA,NA,NA,NA,NA,NA,NA,NA,NA,NA,NA,NA,NA,NA,NA,NA,NA,NA,NA
audio-instructions,17,135645,0.0-5.0-8.0,voc_e2,11739,"[{""event"":""fullscreenenter"",""trial"":1,""time"":2617}]",NA,1788.199999988079,static/audio/instructions8.wav,NA,0,NA,NA,NA,NA,NA,NA,NA,NA,NA,NA,NA,NA,NA,NA,NA,NA,NA,NA,NA,NA,NA,NA,NA,NA,NA
fcp-comprehension,18,149157,0.0-5.0-9.0,voc_e2,11739,"[{""event"":""fullscreenenter"",""trial"":1,""time"":2617}]",NA,13510.600000023842,NA,NA,NA,NA,NA,NA,NA,NA,NA,NA,NA,NA,NA,NA,NA,NA,NA,NA,"true,true",0,NA,NA,NA,NA,NA,NA,NA,NA
audio-instructions,19,156205,0.0-6.0-0.0,voc_e2,11739,"[{""event"":""fullscreenenter"",""trial"":1,""time"":2617}]",NA,1498.0999999642372,static/audio/instructions9.wav,NA,0,NA,NA,NA,NA,NA,NA,NA,NA,NA,NA,NA,NA,NA,NA,NA,NA,NA,NA,NA,NA,NA,NA,NA,NA,NA
audio-instructions,20,171796,0.0-6.0-1.0,voc_e2,11739,"[{""event"":""fullscreenenter"",""trial"":1,""time"":2617}]",NA,3479.5,static/audio/instructions10.wav,NA,0,NA,NA,NA,NA,NA,NA,NA,NA,NA,NA,NA,NA,NA,NA,NA,NA,NA,NA,NA,NA,NA,NA,NA,NA,NA
fcp-trial,21,181218,0.0-6.0-2.0,voc_e2,11739,"[{""event"":""fullscreenenter"",""trial"":1,""time"":2617}]",NA,NA,NA,NA,NA,0,#EDC948,#46d3c8,10,10,1,38,1,6296.899999976158,37,1,1585.1000000238419,10,1,practice,NA,NA,NA,NA,NA,NA,NA,NA,NA,NA
audio-instructions,22,194941,0.0-6.0-3.0,voc_e2,11739,"[{""event"":""fullscreenenter"",""trial"":1,""time"":2617}]",NA,2714,static/audio/instructions11.wav,NA,0,NA,NA,NA,NA,NA,NA,NA,NA,NA,NA,NA,NA,NA,NA,NA,NA,NA,NA,NA,NA,NA,NA,NA,NA,NA
fcp-trial,23,204240,0.0-6.0-4.0,voc_e2,11739,"[{""event"":""fullscreenenter"",""trial"":1,""time"":2617}]",NA,NA,NA,NA,NA,6,#EDC948,#46d3c8,10,10,1,40,0,6083.300000011921,39,0,1702.300000011921,10,0,practice,NA,NA,NA,NA,NA,NA,NA,NA,NA,NA
audio-instructions,24,229765,0.0-6.0-5.0,voc_e2,11739,"[{""event"":""fullscreenenter"",""trial"":1,""time"":2617}]",NA,6838.399999976158,static/audio/instructions12.wav,NA,0,NA,NA,NA,NA,NA,NA,NA,NA,NA,NA,NA,NA,NA,NA,NA,NA,NA,NA,NA,NA,NA,NA,NA,NA,NA
audio-instructions,25,240468,0.0-6.0-6.0,voc_e2,11739,"[{""event"":""fullscreenenter"",""trial"":1,""time"":2617}]",NA,3111.399999976158,static/audio/instructions13.wav,NA,0,NA,NA,NA,NA,NA,NA,NA,NA,NA,NA,NA,NA,NA,NA,NA,NA,NA,NA,NA,NA,NA,NA,NA,NA,NA
audio-instructions,26,250822,0.0-6.0-7.0,voc_e2,11739,"[{""event"":""fullscreenenter"",""trial"":1,""time"":2617}]",NA,1905,static/audio/instructions14.wav,NA,0,NA,NA,NA,NA,NA,NA,NA,NA,NA,NA,NA,NA,NA,NA,NA,NA,NA,NA,NA,NA,NA,NA,NA,NA,NA
audio-instructions,27,260383,0.0-7.0-0.0,voc_e2,11739,"[{""event"":""fullscreenenter"",""trial"":1,""time"":2617}]",NA,2646,static/audio/instructions15.wav,NA,0,NA,NA,NA,NA,NA,NA,NA,NA,NA,NA,NA,NA,NA,NA,NA,NA,NA,NA,NA,NA,NA,NA,NA,NA,NA
audio-instructions,28,271733,0.0-7.0-1.0,voc_e2,11739,"[{""event"":""fullscreenenter"",""trial"":1,""time"":2617}]",NA,4525.200000047684,static/audio/instructions16.wav,NA,0,NA,NA,NA,NA,NA,NA,NA,NA,NA,NA,NA,NA,NA,NA,NA,NA,NA,NA,NA,NA,NA,NA,NA,NA,NA
audio-instructions,29,279973,0.0-7.0-2.0,voc_e2,11739,"[{""event"":""fullscreenenter"",""trial"":1,""time"":2617}]",NA,565.8000000119209,static/audio/instructions17.wav,NA,0,NA,NA,NA,NA,NA,NA,NA,NA,NA,NA,NA,NA,NA,NA,NA,NA,NA,NA,NA,NA,NA,NA,NA,NA,NA
audio-instructions,30,289965,0.0-7.0-3.0,voc_e2,11739,"[{""event"":""fullscreenenter"",""trial"":1,""time"":2617}]",NA,2226.699999988079,static/audio/instructions18.wav,NA,0,NA,NA,NA,NA,NA,NA,NA,NA,NA,NA,NA,NA,NA,NA,NA,NA,NA,NA,NA,NA,NA,NA,NA,NA,NA
audio-instructions,31,297654,0.0-7.0-4.0,voc_e2,11739,"[{""event"":""fullscreenenter"",""trial"":1,""time"":2617}]",NA,937,static/audio/instructions19.wav,NA,0,NA,NA,NA,NA,NA,NA,NA,NA,NA,NA,NA,NA,NA,NA,NA,NA,NA,NA,NA,NA,NA,NA,NA,NA,NA
fcp-comprehension,32,319023,0.0-7.0-5.0,voc_e2,11739,"[{""event"":""fullscreenenter"",""trial"":1,""time"":2617}]",NA,21366.599999964237,NA,NA,NA,NA,NA,NA,NA,NA,NA,NA,NA,NA,NA,NA,NA,NA,NA,NA,"false,false,false,true",0,NA,NA,NA,NA,NA,NA,NA,NA
audio-instructions,33,330190,0.0-8.0,voc_e2,11739,"[{""event"":""fullscreenenter"",""trial"":1,""time"":2617}]",NA,1944,static/audio/ready.wav,NA,0,NA,NA,NA,NA,NA,NA,NA,NA,NA,NA,NA,NA,NA,NA,NA,NA,NA,NA,NA,NA,NA,NA,NA,NA,NA
fcp-trial,34,338772,0.0-9.0-0.0,voc_e2,11739,"[{""event"":""fullscreenenter"",""trial"":1,""time"":2617}]",NA,NA,NA,NA,NA,0,#1CD855,#FA92F8,10,0,1,40,0,5351.400000035763,37,1,1710.800000011921,10,1,experiment,NA,NA,1,0.7,0.3,2,3,1,1,NA
fcp-trial,35,346972,0.0-10.0-0.0,voc_e2,11739,"[{""event"":""fullscreenenter"",""trial"":1,""time"":2617}]",NA,NA,NA,NA,NA,0,#741CD8,#D8271C,0,0,1,38,1,4902.400000035763,39,0,1776.699999988079,0,0,experiment,NA,NA,2,0.5,0.5,4,5,2,1,NA
fcp-trial,36,352689,0.0-11.0-0.0,voc_e2,11739,"[{""event"":""fullscreenenter"",""trial"":1,""time"":2617}]",NA,NA,NA,NA,NA,2,#D89F1C,#3386FF,10,0,1,38,1,2274.400000035763,39,0,1926.199999988079,0,0,experiment,NA,NA,0,0.9,0.1,0,1,3,1,NA
fcp-trial,37,357189,0.0-12.0-0.0,voc_e2,11739,"[{""event"":""fullscreenenter"",""trial"":1,""time"":2617}]",NA,NA,NA,NA,NA,3,#D8271C,#741CD8,10,10,0,40,0,1830.300000011921,37,1,1145.3999999761581,10,0,experiment,NA,NA,2,0.5,0.5,5,4,4,1,NA
fcp-trial,38,365011,0.0-13.0-0.0,voc_e2,11739,"[{""event"":""fullscreenenter"",""trial"":1,""time"":2617}]",NA,NA,NA,NA,NA,6,#FA92F8,#1CD855,0,10,0,40,0,4834.400000035763,39,0,1473.5,10,1,experiment,NA,NA,1,0.3,0.7,3,2,5,1,NA
fcp-trial,39,370562,0.0-14.0-0.0,voc_e2,11739,"[{""event"":""fullscreenenter"",""trial"":1,""time"":2617}]",NA,NA,NA,NA,NA,6,#D8271C,#741CD8,0,0,0,40,0,3084.399999976158,37,1,949.5999999642372,0,0,experiment,NA,NA,2,0.5,0.5,5,4,6,1,NA
fcp-trial,40,378243,0.0-15.0-0.0,voc_e2,11739,"[{""event"":""fullscreenenter"",""trial"":1,""time"":2617}]",NA,NA,NA,NA,NA,2,#D8271C,#741CD8,10,0,0,40,0,4512.799999952316,39,0,1656.699999988079,0,1,experiment,NA,NA,2,0.5,0.5,5,4,7,1,NA
fcp-trial,41,382828,0.0-16.0-0.0,voc_e2,11739,"[{""event"":""fullscreenenter"",""trial"":1,""time"":2617}]",NA,NA,NA,NA,NA,0,#D89F1C,#3386FF,10,10,1,38,1,2258,37,1,815.8999999761581,10,1,experiment,NA,NA,0,0.9,0.1,0,1,8,1,NA
fcp-trial,42,387628,0.0-17.0-0.0,voc_e2,11739,"[{""event"":""fullscreenenter"",""trial"":1,""time"":2617}]",NA,NA,NA,NA,NA,4,#3386FF,#D89F1C,0,0,0,40,0,2567.5,39,0,717.6999999880791,0,1,experiment,NA,NA,0,0.1,0.9,1,0,9,1,NA
fcp-trial,43,393261,0.0-18.0-0.0,voc_e2,11739,"[{""event"":""fullscreenenter"",""trial"":1,""time"":2617}]",NA,NA,NA,NA,NA,1,#1CD855,#FA92F8,10,0,1,38,1,3022.600000023842,37,1,1098.1000000238419,10,1,experiment,NA,NA,1,0.7,0.3,2,3,10,1,NA
fcp-trial,44,397866,0.0-19.0-0.0,voc_e2,11739,"[{""event"":""fullscreenenter"",""trial"":1,""time"":2617}]",NA,NA,NA,NA,NA,5,#D89F1C,#3386FF,10,10,1,38,1,2439.5,37,1,652,10,1,experiment,NA,NA,0,0.9,0.1,0,1,11,1,NA
fcp-trial,45,403309,0.0-20.0-0.0,voc_e2,11739,"[{""event"":""fullscreenenter"",""trial"":1,""time"":2617}]",NA,NA,NA,NA,NA,1,#741CD8,#D8271C,10,0,1,40,0,2305.5,37,1,1626.0999999642372,10,1,experiment,NA,NA,2,0.5,0.5,4,5,12,1,NA
fcp-trial,46,408173,0.0-21.0-0.0,voc_e2,11739,"[{""event"":""fullscreenenter"",""trial"":1,""time"":2617}]",NA,NA,NA,NA,NA,3,#1CD855,#FA92F8,0,10,1,38,1,2225,39,0,1126.2999999523163,10,0,experiment,NA,NA,1,0.7,0.3,2,3,13,1,NA
fcp-trial,47,413337,0.0-22.0-0.0,voc_e2,11739,"[{""event"":""fullscreenenter"",""trial"":1,""time"":2617}]",NA,NA,NA,NA,NA,1,#D89F1C,#3386FF,10,0,1,38,1,2292.800000011921,37,1,1356.699999988079,10,1,experiment,NA,NA,0,0.9,0.1,0,1,14,1,NA
fcp-trial,48,418011,0.0-23.0-0.0,voc_e2,11739,"[{""event"":""fullscreenenter"",""trial"":1,""time"":2617}]",NA,NA,NA,NA,NA,4,#D8271C,#741CD8,0,10,0,40,0,1665.2999999523163,39,0,1499.5,10,1,experiment,NA,NA,2,0.5,0.5,5,4,15,1,NA
fcp-trial,49,426261,0.0-24.0-0.0,voc_e2,11739,"[{""event"":""fullscreenenter"",""trial"":1,""time"":2617}]",NA,NA,NA,NA,NA,2,#FA92F8,#1CD855,0,10,0,38,1,4639.399999976158,37,1,2101.599999964237,0,0,experiment,NA,NA,1,0.3,0.7,3,2,16,1,NA
fcp-trial,50,434516,0.0-25.0-0.0,voc_e2,11739,"[{""event"":""fullscreenenter"",""trial"":1,""time"":2617}]",NA,NA,NA,NA,NA,5,#D8271C,#741CD8,10,10,0,40,0,2731.199999988079,37,1,4013,10,0,experiment,NA,NA,2,0.5,0.5,5,4,17,1,NA
fcp-trial,51,439712,0.0-26.0-0.0,voc_e2,11739,"[{""event"":""fullscreenenter"",""trial"":1,""time"":2617}]",NA,NA,NA,NA,NA,4,#1CD855,#FA92F8,10,0,1,38,1,2768.5,37,1,917.7999999523163,10,1,experiment,NA,NA,1,0.7,0.3,2,3,18,1,NA
fcp-trial,52,445086,0.0-27.0-0.0,voc_e2,11739,"[{""event"":""fullscreenenter"",""trial"":1,""time"":2617}]",NA,NA,NA,NA,NA,3,#D89F1C,#3386FF,10,0,1,40,0,2632.900000035763,39,0,1234.300000011921,0,0,experiment,NA,NA,0,0.9,0.1,0,1,19,1,NA
fcp-trial,53,450113,0.0-28.0-0.0,voc_e2,11739,"[{""event"":""fullscreenenter"",""trial"":1,""time"":2617}]",NA,NA,NA,NA,NA,6,#3386FF,#D89F1C,10,10,0,40,0,2811.199999988079,37,1,699.5,10,0,experiment,NA,NA,0,0.1,0.9,1,0,20,1,NA
fcp-trial,54,455014,0.0-29.0-0.0,voc_e2,11739,"[{""event"":""fullscreenenter"",""trial"":1,""time"":2617}]",NA,NA,NA,NA,NA,5,#1CD855,#FA92F8,10,0,1,38,1,2552.5,37,1,834,10,1,experiment,NA,NA,1,0.7,0.3,2,3,21,1,NA
fcp-trial,55,460503,0.0-30.0-0.0,voc_e2,11739,"[{""event"":""fullscreenenter"",""trial"":1,""time"":2617}]",NA,NA,NA,NA,NA,0,#FA92F8,#1CD855,10,10,0,38,1,2027.699999988079,39,0,1953.5,10,1,experiment,NA,NA,1,0.3,0.7,3,2,22,1,NA
fcp-trial,56,466514,0.0-31.0-0.0,voc_e2,11739,"[{""event"":""fullscreenenter"",""trial"":1,""time"":2617}]",NA,NA,NA,NA,NA,0,#D89F1C,#3386FF,10,0,1,40,0,3710.899999976158,37,1,784.3999999761581,10,1,experiment,NA,NA,0,0.9,0.1,0,1,23,1,NA
fcp-trial,57,471652,0.0-32.0-0.0,voc_e2,11739,"[{""event"":""fullscreenenter"",""trial"":1,""time"":2617}]",NA,NA,NA,NA,NA,3,#741CD8,#D8271C,0,0,1,40,0,2510.300000011921,39,0,1115.5,0,0,experiment,NA,NA,2,0.5,0.5,4,5,24,1,NA
fcp-trial,58,479030,0.0-33.0-0.0,voc_e2,11739,"[{""event"":""fullscreenenter"",""trial"":1,""time"":2617}]",NA,NA,NA,NA,NA,3,#D89F1C,#3386FF,10,0,1,38,1,4426.300000011921,37,1,1434,10,1,experiment,NA,NA,0,0.9,0.1,0,1,25,1,NA
fcp-trial,59,482894,0.0-34.0-0.0,voc_e2,11739,"[{""event"":""fullscreenenter"",""trial"":1,""time"":2617}]",NA,NA,NA,NA,NA,2,#FA92F8,#1CD855,0,0,0,40,0,1702.8999999761581,37,1,653.1999999880791,0,0,experiment,NA,NA,1,0.3,0.7,3,2,26,1,NA
fcp-trial,60,488090,0.0-35.0-0.0,voc_e2,11739,"[{""event"":""fullscreenenter"",""trial"":1,""time"":2617}]",NA,NA,NA,NA,NA,4,#FA92F8,#1CD855,10,10,0,38,1,2007.8999999761581,37,1,1673.5999999642372,10,0,experiment,NA,NA,1,0.3,0.7,3,2,27,1,NA
fcp-trial,61,493878,0.0-36.0-0.0,voc_e2,11739,"[{""event"":""fullscreenenter"",""trial"":1,""time"":2617}]",NA,NA,NA,NA,NA,1,#741CD8,#D8271C,0,0,1,40,0,3063.900000035763,39,0,1204,0,0,experiment,NA,NA,2,0.5,0.5,4,5,28,1,NA
fcp-trial,62,499496,0.0-37.0-0.0,voc_e2,11739,"[{""event"":""fullscreenenter"",""trial"":1,""time"":2617}]",NA,NA,NA,NA,NA,1,#FA92F8,#1CD855,0,0,0,38,1,1932.199999988079,39,0,2173.600000023842,0,1,experiment,NA,NA,1,0.3,0.7,3,2,29,1,NA
fcp-trial,63,504737,0.0-38.0-0.0,voc_e2,11739,"[{""event"":""fullscreenenter"",""trial"":1,""time"":2617}]",NA,NA,NA,NA,NA,1,#3386FF,#D89F1C,0,10,0,40,0,2967.7000000476837,37,1,757.8000000119209,0,0,experiment,NA,NA,0,0.1,0.9,1,0,30,1,NA
fcp-trial,64,512728,0.0-39.0-0.0,voc_e2,11739,"[{""event"":""fullscreenenter"",""trial"":1,""time"":2617}]",NA,NA,NA,NA,NA,2,#3386FF,#D89F1C,0,10,0,38,1,3735.5,39,0,2736.2000000476837,10,1,experiment,NA,NA,0,0.1,0.9,1,0,31,1,NA
fcp-trial,65,518297,0.0-40.0-0.0,voc_e2,11739,"[{""event"":""fullscreenenter"",""trial"":1,""time"":2617}]",NA,NA,NA,NA,NA,3,#FA92F8,#1CD855,10,0,0,40,0,2578,37,1,1479.1000000238419,10,0,experiment,NA,NA,1,0.3,0.7,3,2,32,1,NA
fcp-trial,66,524868,0.0-41.0-0.0,voc_e2,11739,"[{""event"":""fullscreenenter"",""trial"":1,""time"":2617}]",NA,NA,NA,NA,NA,2,#D8271C,#741CD8,0,0,0,40,0,3938.7999999523163,37,1,1121,0,0,experiment,NA,NA,2,0.5,0.5,5,4,33,1,NA
fcp-trial,67,531612,0.0-42.0-0.0,voc_e2,11739,"[{""event"":""fullscreenenter"",""trial"":1,""time"":2617}]",NA,NA,NA,NA,NA,6,#D89F1C,#3386FF,0,0,1,40,0,3888.900000035763,39,0,1342,0,0,experiment,NA,NA,0,0.9,0.1,0,1,34,1,NA
fcp-trial,68,540244,0.0-43.0-0.0,voc_e2,11739,"[{""event"":""fullscreenenter"",""trial"":1,""time"":2617}]",NA,NA,NA,NA,NA,5,#1CD855,#FA92F8,10,10,1,40,0,6101.899999976158,39,0,1018.9000000357628,10,0,experiment,NA,NA,1,0.7,0.3,2,3,35,1,NA
fcp-trial,69,546148,0.0-44.0-0.0,voc_e2,11739,"[{""event"":""fullscreenenter"",""trial"":1,""time"":2617}]",NA,NA,NA,NA,NA,4,#3386FF,#D89F1C,0,10,0,38,1,2537,37,1,1852.0999999642372,0,0,experiment,NA,NA,0,0.1,0.9,1,0,36,1,NA
fcp-trial,70,550867,0.0-45.0-0.0,voc_e2,11739,"[{""event"":""fullscreenenter"",""trial"":1,""time"":2617}]",NA,NA,NA,NA,NA,0,#D8271C,#741CD8,0,10,0,40,0,2124.199999988079,39,0,1077.3999999761581,10,1,experiment,NA,NA,2,0.5,0.5,5,4,37,1,NA
fcp-trial,71,555361,0.0-46.0-0.0,voc_e2,11739,"[{""event"":""fullscreenenter"",""trial"":1,""time"":2617}]",NA,NA,NA,NA,NA,4,#741CD8,#D8271C,10,10,1,38,1,1236.1000000238419,37,1,1746.800000011921,10,1,experiment,NA,NA,2,0.5,0.5,4,5,38,1,NA
fcp-trial,72,561634,0.0-47.0-0.0,voc_e2,11739,"[{""event"":""fullscreenenter"",""trial"":1,""time"":2617}]",NA,NA,NA,NA,NA,6,#1CD855,#FA92F8,10,10,1,40,0,3036.699999988079,39,0,1721,10,0,experiment,NA,NA,1,0.7,0.3,2,3,39,1,NA
fcp-trial,73,568606,0.0-48.0-0.0,voc_e2,11739,"[{""event"":""fullscreenenter"",""trial"":1,""time"":2617}]",NA,NA,NA,NA,NA,5,#D8271C,#741CD8,10,10,0,40,0,3668.800000011921,39,0,1789.3999999761581,10,1,experiment,NA,NA,2,0.5,0.5,5,4,40,1,NA
fcp-trial,74,574619,0.0-49.0-0.0,voc_e2,11739,"[{""event"":""fullscreenenter"",""trial"":1,""time"":2617}]",NA,NA,NA,NA,NA,5,#D89F1C,#3386FF,10,0,1,40,0,3908.7000000476837,37,1,595.5999999642372,10,1,experiment,NA,NA,0,0.9,0.1,0,1,41,1,NA
fcp-trial,75,579722,0.0-50.0-0.0,voc_e2,11739,"[{""event"":""fullscreenenter"",""trial"":1,""time"":2617}]",NA,NA,NA,NA,NA,6,#741CD8,#D8271C,0,0,1,40,0,2668.5,37,1,920.8000000119209,0,1,experiment,NA,NA,2,0.5,0.5,4,5,42,1,NA
fcp-trial,76,589390,0.0-51.0-0.0,voc_e2,11739,"[{""event"":""fullscreenenter"",""trial"":1,""time"":2617}]",NA,NA,NA,NA,NA,5,#1CD855,#FA92F8,10,0,1,38,1,7110.700000047684,37,1,1041.300000011921,10,1,experiment,NA,NA,1,0.7,0.3,2,3,43,1,NA
fcp-trial,77,598083,0.0-52.0-0.0,voc_e2,11739,"[{""event"":""fullscreenenter"",""trial"":1,""time"":2617}]",NA,NA,NA,NA,NA,0,#741CD8,#D8271C,0,10,1,38,1,3826.199999988079,39,0,3348.099999964237,10,0,experiment,NA,NA,2,0.5,0.5,4,5,44,1,NA
fcp-trial,78,602464,0.0-53.0-0.0,voc_e2,11739,"[{""event"":""fullscreenenter"",""trial"":1,""time"":2617}]",NA,NA,NA,NA,NA,1,#D8271C,#741CD8,10,10,0,40,0,2277.600000023842,37,1,591.8000000119209,10,0,experiment,NA,NA,2,0.5,0.5,5,4,45,1,NA
fcp-trial,79,607854,0.0-54.0-0.0,voc_e2,11739,"[{""event"":""fullscreenenter"",""trial"":1,""time"":2617}]",NA,NA,NA,NA,NA,5,#D89F1C,#3386FF,10,0,1,38,1,2439.599999964237,37,1,1438.5,10,1,experiment,NA,NA,0,0.9,0.1,0,1,46,2,NA
fcp-trial,80,612232,0.0-55.0-0.0,voc_e2,11739,"[{""event"":""fullscreenenter"",""trial"":1,""time"":2617}]",NA,NA,NA,NA,NA,6,#FA92F8,#1CD855,10,10,0,40,0,1828.199999988079,37,1,1035.699999988079,10,0,experiment,NA,NA,1,0.3,0.7,3,2,47,2,NA
fcp-trial,81,617407,0.0-56.0-0.0,voc_e2,11739,"[{""event"":""fullscreenenter"",""trial"":1,""time"":2617}]",NA,NA,NA,NA,NA,0,#3386FF,#D89F1C,0,0,0,38,1,2528.300000011921,39,0,1134.5,0,1,experiment,NA,NA,0,0.1,0.9,1,0,48,2,NA
fcp-trial,82,623040,0.0-57.0-0.0,voc_e2,11739,"[{""event"":""fullscreenenter"",""trial"":1,""time"":2617}]",NA,NA,NA,NA,NA,6,#741CD8,#D8271C,10,0,1,40,0,3334,37,1,784.2000000476837,10,1,experiment,NA,NA,2,0.5,0.5,4,5,49,2,NA
fcp-trial,83,631671,0.0-58.0-0.0,voc_e2,11739,"[{""event"":""fullscreenenter"",""trial"":1,""time"":2617}]",NA,NA,NA,NA,NA,0,#FA92F8,#1CD855,10,0,0,38,1,6183.100000023842,37,1,934.3000000119209,10,0,experiment,NA,NA,1,0.3,0.7,3,2,50,2,NA
fcp-trial,84,637096,0.0-59.0-0.0,voc_e2,11739,"[{""event"":""fullscreenenter"",""trial"":1,""time"":2617}]",NA,NA,NA,NA,NA,5,#741CD8,#D8271C,10,10,1,40,0,2822.899999976158,39,0,1084.800000011921,10,0,experiment,NA,NA,2,0.5,0.5,4,5,51,2,NA
fcp-trial,85,643390,0.0-60.0-0.0,voc_e2,11739,"[{""event"":""fullscreenenter"",""trial"":1,""time"":2617}]",NA,NA,NA,NA,NA,2,#741CD8,#D8271C,0,10,1,38,1,2293.5,37,1,2488.800000011921,0,1,experiment,NA,NA,2,0.5,0.5,4,5,52,2,NA
fcp-trial,86,651492,0.0-61.0-0.0,voc_e2,11739,"[{""event"":""fullscreenenter"",""trial"":1,""time"":2617}]",NA,NA,NA,NA,NA,6,#D89F1C,#3386FF,10,10,1,40,0,5319.5,39,0,1270.3999999761581,10,0,experiment,NA,NA,0,0.9,0.1,0,1,53,2,NA
fcp-trial,87,658924,0.0-62.0-0.0,voc_e2,11739,"[{""event"":""fullscreenenter"",""trial"":1,""time"":2617}]",NA,NA,NA,NA,NA,1,#FA92F8,#1CD855,0,0,0,38,1,3892.699999988079,37,1,2026.1000000238419,0,0,experiment,NA,NA,1,0.3,0.7,3,2,54,2,NA
fcp-trial,88,666416,0.0-63.0-0.0,voc_e2,11739,"[{""event"":""fullscreenenter"",""trial"":1,""time"":2617}]",NA,NA,NA,NA,NA,3,#1CD855,#FA92F8,10,10,1,40,0,4511.300000011921,39,0,1463.300000011921,10,0,experiment,NA,NA,1,0.7,0.3,2,3,55,2,NA
fcp-trial,89,673321,0.0-64.0-0.0,voc_e2,11739,"[{""event"":""fullscreenenter"",""trial"":1,""time"":2617}]",NA,NA,NA,NA,NA,4,#741CD8,#D8271C,10,0,1,38,1,4531.699999988079,39,0,863.3000000119209,0,0,experiment,NA,NA,2,0.5,0.5,4,5,56,2,NA
fcp-trial,90,678055,0.0-65.0-0.0,voc_e2,11739,"[{""event"":""fullscreenenter"",""trial"":1,""time"":2617}]",NA,NA,NA,NA,NA,4,#3386FF,#D89F1C,0,10,0,38,1,1546.300000011921,39,0,1681,10,1,experiment,NA,NA,0,0.1,0.9,1,0,57,2,NA
fcp-trial,91,683083,0.0-66.0-0.0,voc_e2,11739,"[{""event"":""fullscreenenter"",""trial"":1,""time"":2617}]",NA,NA,NA,NA,NA,2,#1CD855,#FA92F8,10,0,1,40,0,2164.699999988079,37,1,1344.7000000476837,10,1,experiment,NA,NA,1,0.7,0.3,2,3,58,2,NA
fcp-trial,92,688216,0.0-67.0-0.0,voc_e2,11739,"[{""event"":""fullscreenenter"",""trial"":1,""time"":2617}]",NA,NA,NA,NA,NA,3,#741CD8,#D8271C,0,10,1,40,0,2371.900000035763,39,0,1248,10,0,experiment,NA,NA,2,0.5,0.5,4,5,59,2,NA
fcp-trial,93,693226,0.0-68.0-0.0,voc_e2,11739,"[{""event"":""fullscreenenter"",""trial"":1,""time"":2617}]",NA,NA,NA,NA,NA,2,#3386FF,#D89F1C,0,10,0,38,1,1895.199999988079,37,1,1603.5999999642372,0,0,experiment,NA,NA,0,0.1,0.9,1,0,60,2,NA
fcp-trial,94,697181,0.0-69.0-0.0,voc_e2,11739,"[{""event"":""fullscreenenter"",""trial"":1,""time"":2617}]",NA,NA,NA,NA,NA,3,#3386FF,#D89F1C,0,10,0,40,0,1392.0999999642372,37,1,1043.1000000238419,0,0,experiment,NA,NA,0,0.1,0.9,1,0,61,2,NA
fcp-trial,95,701598,0.0-70.0-0.0,voc_e2,11739,"[{""event"":""fullscreenenter"",""trial"":1,""time"":2617}]",NA,NA,NA,NA,NA,4,#1CD855,#FA92F8,10,0,1,38,1,1694.6000000238419,39,0,1205.800000011921,0,0,experiment,NA,NA,1,0.7,0.3,2,3,62,2,NA
fcp-trial,96,711667,0.0-71.0-0.0,voc_e2,11739,"[{""event"":""fullscreenenter"",""trial"":1,""time"":2617}]",NA,NA,NA,NA,NA,1,#3386FF,#D89F1C,10,10,0,40,0,7460.699999988079,39,0,1093.9000000357628,10,1,experiment,NA,NA,0,0.1,0.9,1,0,63,2,NA
fcp-trial,97,715187,0.0-72.0-0.0,voc_e2,11739,"[{""event"":""fullscreenenter"",""trial"":1,""time"":2617}]",NA,NA,NA,NA,NA,2,#3386FF,#D89F1C,0,10,0,38,1,1415,37,1,594.0999999642372,0,0,experiment,NA,NA,0,0.1,0.9,1,0,64,2,NA
fcp-trial,98,719134,0.0-73.0-0.0,voc_e2,11739,"[{""event"":""fullscreenenter"",""trial"":1,""time"":2617}]",NA,NA,NA,NA,NA,5,#741CD8,#D8271C,0,10,1,40,0,1591.1000000238419,37,1,839.9000000357628,0,1,experiment,NA,NA,2,0.5,0.5,4,5,65,2,NA
fcp-trial,99,725518,0.0-74.0-0.0,voc_e2,11739,"[{""event"":""fullscreenenter"",""trial"":1,""time"":2617}]",NA,NA,NA,NA,NA,2,#1CD855,#FA92F8,10,0,1,38,1,2794.899999976158,39,0,2076.800000011921,0,0,experiment,NA,NA,1,0.7,0.3,2,3,66,2,NA
fcp-trial,100,730330,0.0-75.0-0.0,voc_e2,11739,"[{""event"":""fullscreenenter"",""trial"":1,""time"":2617}]",NA,NA,NA,NA,NA,3,#D8271C,#741CD8,0,10,0,40,0,2433,37,1,868.3000000119209,0,0,experiment,NA,NA,2,0.5,0.5,5,4,67,2,NA
fcp-trial,101,733597,0.0-76.0-0.0,voc_e2,11739,"[{""event"":""fullscreenenter"",""trial"":1,""time"":2617}]",NA,NA,NA,NA,NA,3,#3386FF,#D89F1C,0,10,0,40,0,1048.1000000238419,37,1,703.1999999880791,0,0,experiment,NA,NA,0,0.1,0.9,1,0,68,2,NA
fcp-trial,102,736788,0.0-77.0-0.0,voc_e2,11739,"[{""event"":""fullscreenenter"",""trial"":1,""time"":2617}]",NA,NA,NA,NA,NA,4,#1CD855,#FA92F8,0,10,1,38,1,658.8000000119209,37,1,1020.0999999642372,0,1,experiment,NA,NA,1,0.7,0.3,2,3,69,2,NA
fcp-trial,103,740634,0.0-78.0-0.0,voc_e2,11739,"[{""event"":""fullscreenenter"",""trial"":1,""time"":2617}]",NA,NA,NA,NA,NA,1,#3386FF,#D89F1C,0,10,0,38,1,1225,37,1,1107.800000011921,0,0,experiment,NA,NA,0,0.1,0.9,1,0,70,2,NA
fcp-trial,104,744599,0.0-79.0-0.0,voc_e2,11739,"[{""event"":""fullscreenenter"",""trial"":1,""time"":2617}]",NA,NA,NA,NA,NA,6,#D89F1C,#3386FF,10,0,1,40,0,1587.1000000238419,37,1,868.5,10,1,experiment,NA,NA,0,0.9,0.1,0,1,71,2,NA
fcp-trial,105,751924,0.0-80.0-0.0,voc_e2,11739,"[{""event"":""fullscreenenter"",""trial"":1,""time"":2617}]",NA,NA,NA,NA,NA,0,#741CD8,#D8271C,0,0,1,38,1,3508.100000023842,37,1,2305.800000011921,0,1,experiment,NA,NA,2,0.5,0.5,4,5,72,2,NA
fcp-trial,106,756121,0.0-81.0-0.0,voc_e2,11739,"[{""event"":""fullscreenenter"",""trial"":1,""time"":2617}]",NA,NA,NA,NA,NA,3,#1CD855,#FA92F8,0,0,1,38,1,1966.300000011921,39,0,704.8999999761581,0,0,experiment,NA,NA,1,0.7,0.3,2,3,73,2,NA
fcp-trial,107,762339,0.0-82.0-0.0,voc_e2,11739,"[{""event"":""fullscreenenter"",""trial"":1,""time"":2617}]",NA,NA,NA,NA,NA,2,#741CD8,#D8271C,0,0,1,38,1,2353,37,1,2353.899999976158,0,1,experiment,NA,NA,2,0.5,0.5,4,5,74,2,NA
fcp-trial,108,766317,0.0-83.0-0.0,voc_e2,11739,"[{""event"":""fullscreenenter"",""trial"":1,""time"":2617}]",NA,NA,NA,NA,NA,5,#3386FF,#D89F1C,0,10,0,38,1,1138.699999988079,39,0,1328.3999999761581,10,1,experiment,NA,NA,0,0.1,0.9,1,0,75,2,NA
fcp-trial,109,770978,0.0-84.0-0.0,voc_e2,11739,"[{""event"":""fullscreenenter"",""trial"":1,""time"":2617}]",NA,NA,NA,NA,NA,4,#D89F1C,#3386FF,10,0,1,38,1,2560.900000035763,37,1,585.1000000238419,10,1,experiment,NA,NA,0,0.9,0.1,0,1,76,2,NA
fcp-trial,110,777959,0.0-85.0-0.0,voc_e2,11739,"[{""event"":""fullscreenenter"",""trial"":1,""time"":2617}]",NA,NA,NA,NA,NA,5,#FA92F8,#1CD855,0,10,0,40,0,4205.099999964237,39,0,1257.199999988079,10,1,experiment,NA,NA,1,0.3,0.7,3,2,77,2,NA
fcp-trial,111,785652,0.0-86.0-0.0,voc_e2,11739,"[{""event"":""fullscreenenter"",""trial"":1,""time"":2617}]",NA,NA,NA,NA,NA,0,#1CD855,#FA92F8,10,0,1,40,0,5283.299999952316,39,0,891.3000000119209,0,0,experiment,NA,NA,1,0.7,0.3,2,3,78,2,NA
fcp-trial,112,790882,0.0-87.0-0.0,voc_e2,11739,"[{""event"":""fullscreenenter"",""trial"":1,""time"":2617}]",NA,NA,NA,NA,NA,4,#D8271C,#741CD8,0,10,0,38,1,2749.599999964237,37,1,971.5,0,0,experiment,NA,NA,2,0.5,0.5,5,4,79,2,NA
fcp-trial,113,797355,0.0-88.0-0.0,voc_e2,11739,"[{""event"":""fullscreenenter"",""trial"":1,""time"":2617}]",NA,NA,NA,NA,NA,6,#1CD855,#FA92F8,10,0,1,38,1,3747,37,1,1213.0999999642372,10,1,experiment,NA,NA,1,0.7,0.3,2,3,80,2,NA
fcp-trial,114,803974,0.0-89.0-0.0,voc_e2,11739,"[{""event"":""fullscreenenter"",""trial"":1,""time"":2617}]",NA,NA,NA,NA,NA,0,#3386FF,#D89F1C,0,10,0,40,0,2906.5,39,0,2197.199999988079,10,1,experiment,NA,NA,0,0.1,0.9,1,0,81,2,NA
fcp-trial,115,811127,0.0-90.0-0.0,voc_e2,11739,"[{""event"":""fullscreenenter"",""trial"":1,""time"":2617}]",NA,NA,NA,NA,NA,1,#FA92F8,#1CD855,0,10,0,38,1,5133.599999964237,37,1,505.10000002384186,0,0,experiment,NA,NA,1,0.3,0.7,3,2,82,2,NA
fcp-trial,116,815186,0.0-91.0-0.0,voc_e2,11739,"[{""event"":""fullscreenenter"",""trial"":1,""time"":2617}]",NA,NA,NA,NA,NA,1,#D8271C,#741CD8,0,10,0,38,1,2149.7999999523163,37,1,389.30000001192093,0,0,experiment,NA,NA,2,0.5,0.5,5,4,83,2,NA
fcp-trial,117,822443,0.0-92.0-0.0,voc_e2,11739,"[{""event"":""fullscreenenter"",""trial"":1,""time"":2617}]",NA,NA,NA,NA,NA,6,#741CD8,#D8271C,0,10,1,40,0,4617.5,37,1,1126,0,1,experiment,NA,NA,2,0.5,0.5,4,5,84,2,NA
fcp-trial,118,826819,0.0-93.0-0.0,voc_e2,11739,"[{""event"":""fullscreenenter"",""trial"":1,""time"":2617}]",NA,NA,NA,NA,NA,6,#D89F1C,#3386FF,10,0,1,40,0,1993.6000000238419,39,0,864,0,0,experiment,NA,NA,0,0.9,0.1,0,1,85,2,NA
fcp-trial,119,831985,0.0-94.0-0.0,voc_e2,11739,"[{""event"":""fullscreenenter"",""trial"":1,""time"":2617}]",NA,NA,NA,NA,NA,0,#FA92F8,#1CD855,0,10,0,38,1,2136.899999976158,37,1,1514,0,0,experiment,NA,NA,1,0.3,0.7,3,2,86,2,NA
fcp-trial,120,836507,0.0-95.0-0.0,voc_e2,11739,"[{""event"":""fullscreenenter"",""trial"":1,""time"":2617}]",NA,NA,NA,NA,NA,1,#D8271C,#741CD8,0,10,0,40,0,2014.6000000238419,39,0,995.2999999523163,10,1,experiment,NA,NA,2,0.5,0.5,5,4,87,2,NA
fcp-trial,121,841840,0.0-96.0-0.0,voc_e2,11739,"[{""event"":""fullscreenenter"",""trial"":1,""time"":2617}]",NA,NA,NA,NA,NA,4,#3386FF,#D89F1C,0,10,0,40,0,3012.199999988079,37,1,812.8000000119209,0,0,experiment,NA,NA,0,0.1,0.9,1,0,88,2,NA
fcp-trial,122,845955,0.0-97.0-0.0,voc_e2,11739,"[{""event"":""fullscreenenter"",""trial"":1,""time"":2617}]",NA,NA,NA,NA,NA,4,#1CD855,#FA92F8,10,0,1,38,1,1548.0999999642372,37,1,1055.8999999761581,10,1,experiment,NA,NA,1,0.7,0.3,2,3,89,2,NA
fcp-trial,123,850662,0.0-98.0-0.0,voc_e2,11739,"[{""event"":""fullscreenenter"",""trial"":1,""time"":2617}]",NA,NA,NA,NA,NA,5,#D8271C,#741CD8,0,10,0,40,0,2226.399999976158,39,0,969.1999999880791,10,1,experiment,NA,NA,2,0.5,0.5,5,4,90,2,NA
fcp-trial,124,855944,0.0-99.0-0.0,voc_e2,11739,"[{""event"":""fullscreenenter"",""trial"":1,""time"":2617}]",NA,NA,NA,NA,NA,6,#1CD855,#FA92F8,0,0,1,40,0,2596.400000035763,39,0,1173,0,0,experiment,NA,NA,1,0.7,0.3,2,3,91,3,NA
fcp-trial,125,861016,0.0-100.0-0.0,voc_e2,11739,"[{""event"":""fullscreenenter"",""trial"":1,""time"":2617}]",NA,NA,NA,NA,NA,2,#D89F1C,#3386FF,10,0,1,38,1,2142.699999988079,37,1,1405,10,1,experiment,NA,NA,0,0.9,0.1,0,1,92,3,NA
fcp-trial,126,865111,0.0-101.0-0.0,voc_e2,11739,"[{""event"":""fullscreenenter"",""trial"":1,""time"":2617}]",NA,NA,NA,NA,NA,3,#741CD8,#D8271C,10,10,1,40,0,1768.0999999642372,39,0,820.6000000238419,10,0,experiment,NA,NA,2,0.5,0.5,4,5,93,3,NA
fcp-trial,127,870103,0.0-102.0-0.0,voc_e2,11739,"[{""event"":""fullscreenenter"",""trial"":1,""time"":2617}]",NA,NA,NA,NA,NA,3,#3386FF,#D89F1C,0,10,0,38,1,2107.399999976158,37,1,1363.3999999761581,0,0,experiment,NA,NA,0,0.1,0.9,1,0,94,3,NA
fcp-trial,128,875678,0.0-103.0-0.0,voc_e2,11739,"[{""event"":""fullscreenenter"",""trial"":1,""time"":2617}]",NA,NA,NA,NA,NA,1,#FA92F8,#1CD855,0,10,0,38,1,2929.100000023842,39,0,1132.3999999761581,10,1,experiment,NA,NA,1,0.3,0.7,3,2,95,3,NA
fcp-trial,129,880947,0.0-104.0-0.0,voc_e2,11739,"[{""event"":""fullscreenenter"",""trial"":1,""time"":2617}]",NA,NA,NA,NA,NA,0,#D8271C,#741CD8,0,10,0,38,1,2099.199999988079,37,1,1650.4000000357628,0,0,experiment,NA,NA,2,0.5,0.5,5,4,96,3,NA
fcp-trial,130,886876,0.0-105.0-0.0,voc_e2,11739,"[{""event"":""fullscreenenter"",""trial"":1,""time"":2617}]",NA,NA,NA,NA,NA,2,#FA92F8,#1CD855,10,10,0,40,0,2922.5,37,1,1488.5,10,0,experiment,NA,NA,1,0.3,0.7,3,2,97,3,NA
fcp-trial,131,898241,0.0-106.0-0.0,voc_e2,11739,"[{""event"":""fullscreenenter"",""trial"":1,""time"":2617}]",NA,NA,NA,NA,NA,2,#741CD8,#D8271C,10,0,1,38,1,7776.5,37,1,2077.2999999523163,10,1,experiment,NA,NA,2,0.5,0.5,4,5,98,3,NA
fcp-trial,132,903426,0.0-107.0-0.0,voc_e2,11739,"[{""event"":""fullscreenenter"",""trial"":1,""time"":2617}]",NA,NA,NA,NA,NA,1,#3386FF,#D89F1C,0,10,0,38,1,2120.300000011921,39,0,1551.300000011921,10,1,experiment,NA,NA,0,0.1,0.9,1,0,99,3,NA
fcp-trial,133,907545,0.0-108.0-0.0,voc_e2,11739,"[{""event"":""fullscreenenter"",""trial"":1,""time"":2617}]",NA,NA,NA,NA,NA,0,#3386FF,#D89F1C,0,10,0,38,1,1594.8999999761581,37,1,1015,0,0,experiment,NA,NA,0,0.1,0.9,1,0,100,3,NA
fcp-trial,134,911453,0.0-109.0-0.0,voc_e2,11739,"[{""event"":""fullscreenenter"",""trial"":1,""time"":2617}]",NA,NA,NA,NA,NA,6,#741CD8,#D8271C,10,0,1,40,0,1562.7000000476837,39,0,830.1999999880791,0,0,experiment,NA,NA,2,0.5,0.5,4,5,101,3,NA
fcp-trial,135,917483,0.0-110.0-0.0,voc_e2,11739,"[{""event"":""fullscreenenter"",""trial"":1,""time"":2617}]",NA,NA,NA,NA,NA,3,#FA92F8,#1CD855,10,10,0,40,0,3380.400000035763,37,1,1129.5999999642372,10,0,experiment,NA,NA,1,0.3,0.7,3,2,102,3,NA
fcp-trial,136,923385,0.0-111.0-0.0,voc_e2,11739,"[{""event"":""fullscreenenter"",""trial"":1,""time"":2617}]",NA,NA,NA,NA,NA,5,#1CD855,#FA92F8,10,0,1,40,0,3410.100000023842,37,1,975.6000000238419,10,1,experiment,NA,NA,1,0.7,0.3,2,3,103,3,NA
fcp-trial,137,930897,0.0-112.0-0.0,voc_e2,11739,"[{""event"":""fullscreenenter"",""trial"":1,""time"":2617}]",NA,NA,NA,NA,NA,5,#D89F1C,#3386FF,10,0,1,40,0,5156.399999976158,37,1,842.8999999761581,10,1,experiment,NA,NA,0,0.9,0.1,0,1,104,3,NA
fcp-trial,138,937360,0.0-113.0-0.0,voc_e2,11739,"[{""event"":""fullscreenenter"",""trial"":1,""time"":2617}]",NA,NA,NA,NA,NA,4,#741CD8,#D8271C,0,10,1,38,1,2832.300000011921,39,0,2112.100000023842,10,0,experiment,NA,NA,2,0.5,0.5,4,5,105,3,NA
audio-instructions,139,1023257,0.0-114.0,voc_e2,11739,"[{""event"":""fullscreenenter"",""trial"":1,""time"":2617}]",NA,80964.09999996424,static/audio/pause.wav,NA,0,NA,NA,NA,NA,NA,NA,NA,NA,NA,NA,NA,NA,NA,NA,NA,NA,NA,NA,NA,NA,NA,NA,NA,NA,NA
fcp-trial,140,1027477,0.0-115.0-0.0,voc_e2,11739,"[{""event"":""fullscreenenter"",""trial"":1,""time"":2617}]",NA,NA,NA,NA,NA,5,#741CD8,#D8271C,0,0,1,40,0,1983.300000011921,39,0,723,0,0,experiment,NA,NA,2,0.5,0.5,4,5,106,3,NA
fcp-trial,141,1032126,0.0-116.0-0.0,voc_e2,11739,"[{""event"":""fullscreenenter"",""trial"":1,""time"":2617}]",NA,NA,NA,NA,NA,1,#1CD855,#FA92F8,10,0,1,38,1,2333.400000035763,37,1,798.1999999880791,10,1,experiment,NA,NA,1,0.7,0.3,2,3,107,3,NA
fcp-trial,142,1038543,0.0-117.0-0.0,voc_e2,11739,"[{""event"":""fullscreenenter"",""trial"":1,""time"":2617}]",NA,NA,NA,NA,NA,0,#D8271C,#741CD8,10,10,0,38,1,2657.699999988079,37,1,2246.199999988079,10,0,experiment,NA,NA,2,0.5,0.5,5,4,108,3,NA
fcp-trial,143,1044071,0.0-118.0-0.0,voc_e2,11739,"[{""event"":""fullscreenenter"",""trial"":1,""time"":2617}]",NA,NA,NA,NA,NA,4,#D89F1C,#3386FF,10,0,1,40,0,3012.599999964237,39,0,1001.6000000238419,0,0,experiment,NA,NA,0,0.9,0.1,0,1,109,3,NA
fcp-trial,144,1049411,0.0-119.0-0.0,voc_e2,11739,"[{""event"":""fullscreenenter"",""trial"":1,""time"":2617}]",NA,NA,NA,NA,NA,2,#D8271C,#741CD8,10,0,0,38,1,2610,39,0,1217.0999999642372,0,1,experiment,NA,NA,2,0.5,0.5,5,4,110,3,NA
fcp-trial,145,1055997,0.0-120.0-0.0,voc_e2,11739,"[{""event"":""fullscreenenter"",""trial"":1,""time"":2617}]",NA,NA,NA,NA,NA,1,#3386FF,#D89F1C,0,10,0,38,1,4504.600000023842,37,1,572.2999999523163,0,0,experiment,NA,NA,0,0.1,0.9,1,0,111,3,NA
fcp-trial,146,1061820,0.0-121.0-0.0,voc_e2,11739,"[{""event"":""fullscreenenter"",""trial"":1,""time"":2617}]",NA,NA,NA,NA,NA,3,#1CD855,#FA92F8,0,10,1,40,0,3728.5,37,1,579,0,1,experiment,NA,NA,1,0.7,0.3,2,3,112,3,NA
fcp-trial,147,1067475,0.0-122.0-0.0,voc_e2,11739,"[{""event"":""fullscreenenter"",""trial"":1,""time"":2617}]",NA,NA,NA,NA,NA,0,#1CD855,#FA92F8,0,0,1,38,1,3556.399999976158,37,1,590.4000000357628,0,1,experiment,NA,NA,1,0.7,0.3,2,3,113,3,NA
fcp-trial,148,1074710,0.0-123.0-0.0,voc_e2,11739,"[{""event"":""fullscreenenter"",""trial"":1,""time"":2617}]",NA,NA,NA,NA,NA,0,#D89F1C,#3386FF,10,0,1,38,1,4162.699999988079,37,1,1561.5999999642372,10,1,experiment,NA,NA,0,0.9,0.1,0,1,114,3,NA
fcp-trial,149,1078190,0.0-124.0-0.0,voc_e2,11739,"[{""event"":""fullscreenenter"",""trial"":1,""time"":2617}]",NA,NA,NA,NA,NA,6,#741CD8,#D8271C,10,10,1,38,1,1346.7999999523163,37,1,620.2000000476837,10,1,experiment,NA,NA,2,0.5,0.5,4,5,115,3,NA
fcp-trial,150,1081293,0.0-125.0-0.0,voc_e2,11739,"[{""event"":""fullscreenenter"",""trial"":1,""time"":2617}]",NA,NA,NA,NA,NA,4,#D8271C,#741CD8,10,10,0,38,1,613.8999999761581,39,0,983,10,1,experiment,NA,NA,2,0.5,0.5,5,4,116,3,NA
fcp-trial,151,1084803,0.0-126.0-0.0,voc_e2,11739,"[{""event"":""fullscreenenter"",""trial"":1,""time"":2617}]",NA,NA,NA,NA,NA,6,#FA92F8,#1CD855,0,10,0,40,0,1274.300000011921,39,0,729.6999999880791,10,1,experiment,NA,NA,1,0.3,0.7,3,2,117,3,NA
fcp-trial,152,1089464,0.0-127.0-0.0,voc_e2,11739,"[{""event"":""fullscreenenter"",""trial"":1,""time"":2617}]",NA,NA,NA,NA,NA,2,#3386FF,#D89F1C,10,10,0,38,1,2163.5,37,1,986.9000000357628,10,0,experiment,NA,NA,0,0.1,0.9,1,0,118,3,NA
fcp-trial,153,1094198,0.0-128.0-0.0,voc_e2,11739,"[{""event"":""fullscreenenter"",""trial"":1,""time"":2617}]",NA,NA,NA,NA,NA,4,#FA92F8,#1CD855,10,0,0,40,0,2234.400000035763,39,0,981.6000000238419,0,1,experiment,NA,NA,1,0.3,0.7,3,2,119,3,NA
fcp-trial,154,1097657,0.0-129.0-0.0,voc_e2,11739,"[{""event"":""fullscreenenter"",""trial"":1,""time"":2617}]",NA,NA,NA,NA,NA,1,#D8271C,#741CD8,0,10,0,38,1,760.8000000119209,39,0,1182.800000011921,10,1,experiment,NA,NA,2,0.5,0.5,5,4,120,3,NA
fcp-trial,155,1102447,0.0-130.0-0.0,voc_e2,11739,"[{""event"":""fullscreenenter"",""trial"":1,""time"":2617}]",NA,NA,NA,NA,NA,3,#D89F1C,#3386FF,10,10,1,38,1,1746.0999999642372,37,1,1537,10,1,experiment,NA,NA,0,0.9,0.1,0,1,121,3,NA
fcp-trial,156,1110326,0.0-131.0-0.0,voc_e2,11739,"[{""event"":""fullscreenenter"",""trial"":1,""time"":2617}]",NA,NA,NA,NA,NA,2,#FA92F8,#1CD855,10,10,0,38,1,3606.699999988079,37,1,2760.399999976158,10,0,experiment,NA,NA,1,0.3,0.7,3,2,122,3,NA
fcp-trial,157,1114538,0.0-132.0-0.0,voc_e2,11739,"[{""event"":""fullscreenenter"",""trial"":1,""time"":2617}]",NA,NA,NA,NA,NA,6,#3386FF,#D89F1C,0,10,0,38,1,2242.099999964237,37,1,458.30000001192093,0,0,experiment,NA,NA,0,0.1,0.9,1,0,123,3,NA
fcp-trial,158,1117691,0.0-133.0-0.0,voc_e2,11739,"[{""event"":""fullscreenenter"",""trial"":1,""time"":2617}]",NA,NA,NA,NA,NA,5,#FA92F8,#1CD855,0,0,0,38,1,547.9000000357628,37,1,1095.8999999761581,0,0,experiment,NA,NA,1,0.3,0.7,3,2,124,3,NA
fcp-trial,159,1121349,0.0-134.0-0.0,voc_e2,11739,"[{""event"":""fullscreenenter"",""trial"":1,""time"":2617}]",NA,NA,NA,NA,NA,3,#D8271C,#741CD8,10,0,0,38,1,202.30000001192093,37,1,1942.699999988079,10,0,experiment,NA,NA,2,0.5,0.5,5,4,125,3,NA
fcp-trial,160,1124827,0.0-135.0-0.0,voc_e2,11739,"[{""event"":""fullscreenenter"",""trial"":1,""time"":2617}]",NA,NA,NA,NA,NA,5,#3386FF,#D89F1C,0,10,0,40,0,759.5999999642372,37,1,1209.8999999761581,0,0,experiment,NA,NA,0,0.1,0.9,1,0,126,3,NA
fcp-trial,161,1130544,0.0-136.0-0.0,voc_e2,11739,"[{""event"":""fullscreenenter"",""trial"":1,""time"":2617}]",NA,NA,NA,NA,NA,0,#D89F1C,#3386FF,10,0,1,38,1,2806.699999988079,39,0,1397.4000000357628,0,0,experiment,NA,NA,0,0.9,0.1,0,1,127,3,NA
fcp-trial,162,1135364,0.0-137.0-0.0,voc_e2,11739,"[{""event"":""fullscreenenter"",""trial"":1,""time"":2617}]",NA,NA,NA,NA,NA,6,#FA92F8,#1CD855,0,10,0,38,1,2743.199999988079,39,0,562.6999999880791,10,1,experiment,NA,NA,1,0.3,0.7,3,2,128,3,NA
fcp-trial,163,1140979,0.0-138.0-0.0,voc_e2,11739,"[{""event"":""fullscreenenter"",""trial"":1,""time"":2617}]",NA,NA,NA,NA,NA,4,#1CD855,#FA92F8,10,0,1,40,0,3078.399999976158,37,1,1017.6000000238419,10,1,experiment,NA,NA,1,0.7,0.3,2,3,129,3,NA
fcp-trial,164,1145748,0.0-139.0-0.0,voc_e2,11739,"[{""event"":""fullscreenenter"",""trial"":1,""time"":2617}]",NA,NA,NA,NA,NA,4,#741CD8,#D8271C,0,0,1,40,0,2254.599999964237,39,0,1001.0999999642372,0,0,experiment,NA,NA,2,0.5,0.5,4,5,130,3,NA
fcp-trial,165,1149927,0.0-140.0-0.0,voc_e2,11739,"[{""event"":""fullscreenenter"",""trial"":1,""time"":2617}]",NA,NA,NA,NA,NA,0,#D8271C,#741CD8,10,10,0,38,1,1799.0999999642372,37,1,865.6999999880791,10,0,experiment,NA,NA,2,0.5,0.5,5,4,131,3,NA
fcp-trial,166,1154880,0.0-141.0-0.0,voc_e2,11739,"[{""event"":""fullscreenenter"",""trial"":1,""time"":2617}]",NA,NA,NA,NA,NA,3,#D89F1C,#3386FF,10,0,1,40,0,2772.900000035763,39,0,668.1000000238419,0,0,experiment,NA,NA,0,0.9,0.1,0,1,132,3,NA
fcp-trial,167,1166073,0.0-142.0-0.0,voc_e2,11739,"[{""event"":""fullscreenenter"",""trial"":1,""time"":2617}]",NA,NA,NA,NA,NA,2,#FA92F8,#1CD855,0,0,0,38,1,6491.599999964237,37,1,3194.400000035763,0,0,experiment,NA,NA,1,0.3,0.7,3,2,133,3,NA
fcp-trial,168,1174182,0.0-143.0-0.0,voc_e2,11739,"[{""event"":""fullscreenenter"",""trial"":1,""time"":2617}]",NA,NA,NA,NA,NA,6,#D8271C,#741CD8,0,0,0,40,0,4917.699999988079,37,1,1677,0,0,experiment,NA,NA,2,0.5,0.5,5,4,134,3,NA
fcp-trial,169,1184840,0.0-144.0-0.0,voc_e2,11739,"[{""event"":""fullscreenenter"",""trial"":1,""time"":2617}]",NA,NA,NA,NA,NA,3,#741CD8,#D8271C,0,10,1,38,1,6032.099999964237,37,1,3108.7999999523163,0,1,experiment,NA,NA,2,0.5,0.5,4,5,135,3,NA
fcp-trial,170,1191013,0.0-145.0-0.0,voc_e2,11739,"[{""event"":""fullscreenenter"",""trial"":1,""time"":2617}]",NA,NA,NA,NA,NA,6,#3386FF,#D89F1C,0,10,0,40,0,2300.2999999523163,37,1,2360.699999988079,0,0,experiment,NA,NA,0,0.1,0.9,1,0,136,4,NA
fcp-trial,171,1194830,0.0-146.0-0.0,voc_e2,11739,"[{""event"":""fullscreenenter"",""trial"":1,""time"":2617}]",NA,NA,NA,NA,NA,5,#FA92F8,#1CD855,0,10,0,38,1,1622.6000000238419,39,0,688.5,10,1,experiment,NA,NA,1,0.3,0.7,3,2,137,4,NA
fcp-trial,172,1200074,0.0-147.0-0.0,voc_e2,11739,"[{""event"":""fullscreenenter"",""trial"":1,""time"":2617}]",NA,NA,NA,NA,NA,1,#FA92F8,#1CD855,0,10,0,40,0,2896.800000011921,39,0,839.7000000476837,10,1,experiment,NA,NA,1,0.3,0.7,3,2,138,4,NA
fcp-trial,173,1210787,0.0-148.0-0.0,voc_e2,11739,"[{""event"":""fullscreenenter"",""trial"":1,""time"":2617}]",NA,NA,NA,NA,NA,5,#D89F1C,#3386FF,10,0,1,40,0,6517.700000047684,39,0,2685.099999964237,0,0,experiment,NA,NA,0,0.9,0.1,0,1,139,4,NA
fcp-trial,174,1217149,0.0-149.0-0.0,voc_e2,11739,"[{""event"":""fullscreenenter"",""trial"":1,""time"":2617}]",NA,NA,NA,NA,NA,1,#D8271C,#741CD8,0,10,0,38,1,2475.399999976158,37,1,2373.800000011921,0,0,experiment,NA,NA,2,0.5,0.5,5,4,140,4,NA
fcp-trial,175,1225398,0.0-150.0-0.0,voc_e2,11739,"[{""event"":""fullscreenenter"",""trial"":1,""time"":2617}]",NA,NA,NA,NA,NA,0,#FA92F8,#1CD855,10,0,0,38,1,5566.300000011921,37,1,1169.199999988079,10,0,experiment,NA,NA,1,0.3,0.7,3,2,141,4,NA
fcp-trial,176,1235550,0.0-151.0-0.0,voc_e2,11739,"[{""event"":""fullscreenenter"",""trial"":1,""time"":2617}]",NA,NA,NA,NA,NA,1,#3386FF,#D89F1C,0,10,0,40,0,8073,37,1,558.5999999642372,0,0,experiment,NA,NA,0,0.1,0.9,1,0,142,4,NA
fcp-trial,177,1242110,0.0-152.0-0.0,voc_e2,11739,"[{""event"":""fullscreenenter"",""trial"":1,""time"":2617}]",NA,NA,NA,NA,NA,3,#1CD855,#FA92F8,0,10,1,38,1,2829,37,1,2220.699999988079,0,1,experiment,NA,NA,1,0.7,0.3,2,3,143,4,NA
fcp-trial,178,1257116,0.0-153.0-0.0,voc_e2,11739,"[{""event"":""fullscreenenter"",""trial"":1,""time"":2617}]",NA,NA,NA,NA,NA,2,#D8271C,#741CD8,10,0,0,null,null,null,null,null,null,NA,0,experiment,NA,NA,2,0.5,0.5,5,4,144,4,NA
fcp-trial,179,1261418,0.0-154.0-0.0,voc_e2,11739,"[{""event"":""fullscreenenter"",""trial"":1,""time"":2617}]",NA,NA,NA,NA,NA,5,#D8271C,#741CD8,10,10,0,40,0,1796.699999988079,37,1,982.6999999880791,10,0,experiment,NA,NA,2,0.5,0.5,5,4,145,4,NA
fcp-trial,180,1268008,0.0-155.0-0.0,voc_e2,11739,"[{""event"":""fullscreenenter"",""trial"":1,""time"":2617}]",NA,NA,NA,NA,NA,4,#3386FF,#D89F1C,0,10,0,38,1,3006.600000023842,39,0,2067.5,10,1,experiment,NA,NA,0,0.1,0.9,1,0,146,4,NA
fcp-trial,181,1275135,0.0-156.0-0.0,voc_e2,11739,"[{""event"":""fullscreenenter"",""trial"":1,""time"":2617}]",NA,NA,NA,NA,NA,2,#3386FF,#D89F1C,0,10,0,40,0,4868.799999952316,37,1,746.9000000357628,0,0,experiment,NA,NA,0,0.1,0.9,1,0,147,4,NA
fcp-trial,182,1278952,0.0-157.0-0.0,voc_e2,11739,"[{""event"":""fullscreenenter"",""trial"":1,""time"":2617}]",NA,NA,NA,NA,NA,6,#3386FF,#D89F1C,0,10,0,40,0,1580.5,37,1,717.8000000119209,0,0,experiment,NA,NA,0,0.1,0.9,1,0,148,4,NA
fcp-trial,183,1283514,0.0-158.0-0.0,voc_e2,11739,"[{""event"":""fullscreenenter"",""trial"":1,""time"":2617}]",NA,NA,NA,NA,NA,1,#1CD855,#FA92F8,10,0,1,38,1,2243.199999988079,37,1,802.3000000119209,10,1,experiment,NA,NA,1,0.7,0.3,2,3,149,4,NA
fcp-trial,184,1289750,0.0-159.0-0.0,voc_e2,11739,"[{""event"":""fullscreenenter"",""trial"":1,""time"":2617}]",NA,NA,NA,NA,NA,2,#FA92F8,#1CD855,10,0,0,38,1,3789.300000011921,37,1,937.6999999880791,10,0,experiment,NA,NA,1,0.3,0.7,3,2,150,4,NA
fcp-trial,185,1295174,0.0-160.0-0.0,voc_e2,11739,"[{""event"":""fullscreenenter"",""trial"":1,""time"":2617}]",NA,NA,NA,NA,NA,4,#D8271C,#741CD8,0,0,0,40,0,3230.899999976158,39,0,675.6999999880791,0,1,experiment,NA,NA,2,0.5,0.5,5,4,151,4,NA
fcp-trial,186,1301229,0.0-161.0-0.0,voc_e2,11739,"[{""event"":""fullscreenenter"",""trial"":1,""time"":2617}]",NA,NA,NA,NA,NA,5,#1CD855,#FA92F8,10,10,1,38,1,2959.699999988079,37,1,1581.4000000357628,10,1,experiment,NA,NA,1,0.7,0.3,2,3,152,4,NA
fcp-trial,187,1305257,0.0-162.0-0.0,voc_e2,11739,"[{""event"":""fullscreenenter"",""trial"":1,""time"":2617}]",NA,NA,NA,NA,NA,4,#D89F1C,#3386FF,10,0,1,40,0,1893.2000000476837,39,0,616.6000000238419,0,0,experiment,NA,NA,0,0.9,0.1,0,1,153,4,NA
fcp-trial,188,1310292,0.0-163.0-0.0,voc_e2,11739,"[{""event"":""fullscreenenter"",""trial"":1,""time"":2617}]",NA,NA,NA,NA,NA,2,#D89F1C,#3386FF,10,0,1,40,0,2404.399999976158,37,1,1115.699999988079,10,1,experiment,NA,NA,0,0.9,0.1,0,1,154,4,NA
fcp-trial,189,1315440,0.0-164.0-0.0,voc_e2,11739,"[{""event"":""fullscreenenter"",""trial"":1,""time"":2617}]",NA,NA,NA,NA,NA,1,#D8271C,#741CD8,10,0,0,38,1,2147.800000011921,39,0,1482,0,1,experiment,NA,NA,2,0.5,0.5,5,4,155,4,NA
fcp-trial,190,1322245,0.0-165.0-0.0,voc_e2,11739,"[{""event"":""fullscreenenter"",""trial"":1,""time"":2617}]",NA,NA,NA,NA,NA,2,#D8271C,#741CD8,10,0,0,40,0,3702.899999976158,37,1,1585.699999988079,10,0,experiment,NA,NA,2,0.5,0.5,5,4,156,4,NA
fcp-trial,191,1325761,0.0-166.0-0.0,voc_e2,11739,"[{""event"":""fullscreenenter"",""trial"":1,""time"":2617}]",NA,NA,NA,NA,NA,3,#1CD855,#FA92F8,0,0,1,40,0,1203.800000011921,37,1,793.5,0,1,experiment,NA,NA,1,0.7,0.3,2,3,157,4,NA
fcp-trial,192,1328456,0.0-167.0-0.0,voc_e2,11739,"[{""event"":""fullscreenenter"",""trial"":1,""time"":2617}]",NA,NA,NA,NA,NA,5,#D89F1C,#3386FF,0,0,1,38,1,558.0999999642372,39,0,619.8000000119209,0,0,experiment,NA,NA,0,0.9,0.1,0,1,158,4,NA
fcp-trial,193,1334789,0.0-168.0-0.0,voc_e2,11739,"[{""event"":""fullscreenenter"",""trial"":1,""time"":2617}]",NA,NA,NA,NA,NA,0,#D8271C,#741CD8,0,0,0,38,1,3322.5,37,1,1497.5,0,0,experiment,NA,NA,2,0.5,0.5,5,4,159,4,NA
fcp-trial,194,1341065,0.0-169.0-0.0,voc_e2,11739,"[{""event"":""fullscreenenter"",""trial"":1,""time"":2617}]",NA,NA,NA,NA,NA,4,#1CD855,#FA92F8,0,10,1,38,1,3099.900000035763,39,0,1665.199999988079,10,0,experiment,NA,NA,1,0.7,0.3,2,3,160,4,NA
fcp-trial,195,1346476,0.0-170.0-0.0,voc_e2,11739,"[{""event"":""fullscreenenter"",""trial"":1,""time"":2617}]",NA,NA,NA,NA,NA,5,#741CD8,#D8271C,10,0,1,38,1,2879.099999964237,37,1,1022.6999999880791,10,1,experiment,NA,NA,2,0.5,0.5,4,5,161,4,NA
fcp-trial,196,1351608,0.0-171.0-0.0,voc_e2,11739,"[{""event"":""fullscreenenter"",""trial"":1,""time"":2617}]",NA,NA,NA,NA,NA,0,#D89F1C,#3386FF,10,0,1,38,1,2795.399999976158,37,1,826.8000000119209,10,1,experiment,NA,NA,0,0.9,0.1,0,1,162,4,NA
fcp-trial,197,1356408,0.0-172.0-0.0,voc_e2,11739,"[{""event"":""fullscreenenter"",""trial"":1,""time"":2617}]",NA,NA,NA,NA,NA,0,#1CD855,#FA92F8,10,0,1,38,1,2481,39,0,805.9000000357628,0,0,experiment,NA,NA,1,0.7,0.3,2,3,163,4,NA
fcp-trial,198,1360666,0.0-173.0-0.0,voc_e2,11739,"[{""event"":""fullscreenenter"",""trial"":1,""time"":2617}]",NA,NA,NA,NA,NA,3,#741CD8,#D8271C,0,0,1,38,1,1531.300000011921,37,1,1213.9000000357628,0,1,experiment,NA,NA,2,0.5,0.5,4,5,164,4,NA
fcp-trial,199,1364782,0.0-174.0-0.0,voc_e2,11739,"[{""event"":""fullscreenenter"",""trial"":1,""time"":2617}]",NA,NA,NA,NA,NA,6,#FA92F8,#1CD855,0,10,0,40,0,1416.6000000238419,37,1,1181.9000000357628,0,0,experiment,NA,NA,1,0.3,0.7,3,2,165,4,NA
fcp-trial,200,1369315,0.0-175.0-0.0,voc_e2,11739,"[{""event"":""fullscreenenter"",""trial"":1,""time"":2617}]",NA,NA,NA,NA,NA,3,#D89F1C,#3386FF,10,10,1,40,0,2172.900000035763,37,1,854.5,10,1,experiment,NA,NA,0,0.9,0.1,0,1,166,4,NA
fcp-trial,201,1374212,0.0-176.0-0.0,voc_e2,11739,"[{""event"":""fullscreenenter"",""trial"":1,""time"":2617}]",NA,NA,NA,NA,NA,6,#D8271C,#741CD8,0,10,0,38,1,1970.300000011921,39,0,1409.0999999642372,10,1,experiment,NA,NA,2,0.5,0.5,5,4,167,4,NA
fcp-trial,202,1379185,0.0-177.0-0.0,voc_e2,11739,"[{""event"":""fullscreenenter"",""trial"":1,""time"":2617}]",NA,NA,NA,NA,NA,1,#D89F1C,#3386FF,10,0,1,38,1,2966.100000023842,37,1,490.19999998807907,10,1,experiment,NA,NA,0,0.9,0.1,0,1,168,4,NA
fcp-trial,203,1383443,0.0-178.0-0.0,voc_e2,11739,"[{""event"":""fullscreenenter"",""trial"":1,""time"":2617}]",NA,NA,NA,NA,NA,6,#3386FF,#D89F1C,0,0,0,40,0,1762.3999999761581,37,1,976.5,0,0,experiment,NA,NA,0,0.1,0.9,1,0,169,4,NA
fcp-trial,204,1387577,0.0-179.0-0.0,voc_e2,11739,"[{""event"":""fullscreenenter"",""trial"":1,""time"":2617}]",NA,NA,NA,NA,NA,6,#741CD8,#D8271C,10,0,1,40,0,1918.300000011921,39,0,700.2999999523163,0,0,experiment,NA,NA,2,0.5,0.5,4,5,170,4,NA
fcp-trial,205,1392042,0.0-180.0-0.0,voc_e2,11739,"[{""event"":""fullscreenenter"",""trial"":1,""time"":2617}]",NA,NA,NA,NA,NA,3,#FA92F8,#1CD855,0,10,0,40,0,1794.9000000357628,39,0,1159.8999999761581,10,1,experiment,NA,NA,1,0.3,0.7,3,2,171,4,NA
fcp-trial,206,1395798,0.0-181.0-0.0,voc_e2,11739,"[{""event"":""fullscreenenter"",""trial"":1,""time"":2617}]",NA,NA,NA,NA,NA,1,#FA92F8,#1CD855,10,10,0,38,1,1062.8999999761581,37,1,1179.6000000238419,10,0,experiment,NA,NA,1,0.3,0.7,3,2,172,4,NA
fcp-trial,207,1399216,0.0-182.0-0.0,voc_e2,11739,"[{""event"":""fullscreenenter"",""trial"":1,""time"":2617}]",NA,NA,NA,NA,NA,3,#741CD8,#D8271C,10,0,1,38,1,1059.6000000238419,39,0,845,0,0,experiment,NA,NA,2,0.5,0.5,4,5,173,4,NA
fcp-trial,208,1401793,0.0-183.0-0.0,voc_e2,11739,"[{""event"":""fullscreenenter"",""trial"":1,""time"":2617}]",NA,NA,NA,NA,NA,5,#D89F1C,#3386FF,0,0,1,38,1,606.1000000238419,39,0,449.39999997615814,0,0,experiment,NA,NA,0,0.9,0.1,0,1,174,4,NA
fcp-trial,209,1403793,0.0-184.0-0.0,voc_e2,11739,"[{""event"":""fullscreenenter"",""trial"":1,""time"":2617}]",NA,NA,NA,NA,NA,5,#FA92F8,#1CD855,0,10,0,38,1,73.5,39,0,408.9000000357628,10,1,experiment,NA,NA,1,0.3,0.7,3,2,175,4,NA
fcp-trial,210,1405932,0.0-185.0-0.0,voc_e2,11739,"[{""event"":""fullscreenenter"",""trial"":1,""time"":2617}]",NA,NA,NA,NA,NA,6,#FA92F8,#1CD855,10,0,0,38,1,268.19999998807907,39,0,354,0,1,experiment,NA,NA,1,0.3,0.7,3,2,176,4,NA
fcp-trial,211,1409697,0.0-186.0-0.0,voc_e2,11739,"[{""event"":""fullscreenenter"",""trial"":1,""time"":2617}]",NA,NA,NA,NA,NA,0,#3386FF,#D89F1C,0,10,0,38,1,1875.8999999761581,37,1,377.30000001192093,0,0,experiment,NA,NA,0,0.1,0.9,1,0,177,4,NA
fcp-trial,212,1414770,0.0-187.0-0.0,voc_e2,11739,"[{""event"":""fullscreenenter"",""trial"":1,""time"":2617}]",NA,NA,NA,NA,NA,1,#741CD8,#D8271C,10,0,1,38,1,2558.2000000476837,37,1,1005.6999999880791,10,1,experiment,NA,NA,2,0.5,0.5,4,5,178,4,NA
fcp-trial,213,1419072,0.0-188.0-0.0,voc_e2,11739,"[{""event"":""fullscreenenter"",""trial"":1,""time"":2617}]",NA,NA,NA,NA,NA,4,#D8271C,#741CD8,10,10,0,40,0,2104.399999976158,39,0,686.1999999880791,10,1,experiment,NA,NA,2,0.5,0.5,5,4,179,4,NA
fcp-trial,214,1422697,0.0-189.0-0.0,voc_e2,11739,"[{""event"":""fullscreenenter"",""trial"":1,""time"":2617}]",NA,NA,NA,NA,NA,2,#D89F1C,#3386FF,10,0,1,38,1,1473.0999999642372,37,1,634.1999999880791,10,1,experiment,NA,NA,0,0.9,0.1,0,1,180,4,NA
fcp-trial,215,1425718,0.0-190.0-0.0,voc_e2,11739,"[{""event"":""fullscreenenter"",""trial"":1,""time"":2617}]",NA,NA,NA,NA,NA,4,#1CD855,#FA92F8,0,10,1,40,0,772.9000000357628,37,1,736.6999999880791,0,1,experiment,NA,NA,1,0.7,0.3,2,3,181,5,NA
fcp-trial,216,1432002,0.0-191.0-0.0,voc_e2,11739,"[{""event"":""fullscreenenter"",""trial"":1,""time"":2617}]",NA,NA,NA,NA,NA,0,#741CD8,#D8271C,0,10,1,38,1,3581.5,39,0,1183.8999999761581,10,0,experiment,NA,NA,2,0.5,0.5,4,5,182,5,NA
fcp-trial,217,1437342,0.0-192.0-0.0,voc_e2,11739,"[{""event"":""fullscreenenter"",""trial"":1,""time"":2617}]",NA,NA,NA,NA,NA,4,#3386FF,#D89F1C,0,10,0,40,0,2383.600000023842,39,0,1442.6000000238419,10,1,experiment,NA,NA,0,0.1,0.9,1,0,183,5,NA
fcp-trial,218,1442653,0.0-193.0-0.0,voc_e2,11739,"[{""event"":""fullscreenenter"",""trial"":1,""time"":2617}]",NA,NA,NA,NA,NA,2,#741CD8,#D8271C,0,10,1,38,1,2792,37,1,996.8999999761581,0,1,experiment,NA,NA,2,0.5,0.5,4,5,184,5,NA
fcp-trial,219,1447968,0.0-194.0-0.0,voc_e2,11739,"[{""event"":""fullscreenenter"",""trial"":1,""time"":2617}]",NA,NA,NA,NA,NA,2,#FA92F8,#1CD855,0,10,0,40,0,2455.800000011921,39,0,1340.5,10,1,experiment,NA,NA,1,0.3,0.7,3,2,185,5,NA
fcp-trial,220,1453179,0.0-195.0-0.0,voc_e2,11739,"[{""event"":""fullscreenenter"",""trial"":1,""time"":2617}]",NA,NA,NA,NA,NA,3,#3386FF,#D89F1C,0,10,0,38,1,3083,37,1,611.4000000357628,0,0,experiment,NA,NA,0,0.1,0.9,1,0,186,5,NA
fcp-trial,221,1456688,0.0-196.0-0.0,voc_e2,11739,"[{""event"":""fullscreenenter"",""trial"":1,""time"":2617}]",NA,NA,NA,NA,NA,5,#741CD8,#D8271C,10,0,1,40,0,1236.5,37,1,763.3000000119209,10,1,experiment,NA,NA,2,0.5,0.5,4,5,187,5,NA
fcp-trial,222,1461730,0.0-197.0-0.0,voc_e2,11739,"[{""event"":""fullscreenenter"",""trial"":1,""time"":2617}]",NA,NA,NA,NA,NA,0,#FA92F8,#1CD855,0,10,0,38,1,2202.899999976158,39,0,1317.5,10,1,experiment,NA,NA,1,0.3,0.7,3,2,188,5,NA
fcp-trial,223,1466177,0.0-198.0-0.0,voc_e2,11739,"[{""event"":""fullscreenenter"",""trial"":1,""time"":2617}]",NA,NA,NA,NA,NA,1,#3386FF,#D89F1C,0,10,0,38,1,2012.699999988079,37,1,922.8000000119209,0,0,experiment,NA,NA,0,0.1,0.9,1,0,189,5,NA
fcp-trial,224,1471075,0.0-199.0-0.0,voc_e2,11739,"[{""event"":""fullscreenenter"",""trial"":1,""time"":2617}]",NA,NA,NA,NA,NA,1,#FA92F8,#1CD855,10,10,0,38,1,2255.100000023842,39,0,1127,10,1,experiment,NA,NA,1,0.3,0.7,3,2,190,5,NA
fcp-trial,225,1475517,0.0-200.0-0.0,voc_e2,11739,"[{""event"":""fullscreenenter"",""trial"":1,""time"":2617}]",NA,NA,NA,NA,NA,2,#D89F1C,#3386FF,10,0,1,40,0,1507.699999988079,39,0,1421.1000000238419,0,0,experiment,NA,NA,0,0.9,0.1,0,1,191,5,NA
fcp-trial,226,1479950,0.0-201.0-0.0,voc_e2,11739,"[{""event"":""fullscreenenter"",""trial"":1,""time"":2617}]",NA,NA,NA,NA,NA,6,#1CD855,#FA92F8,10,0,1,40,0,1348.199999988079,39,0,1574.9000000357628,0,0,experiment,NA,NA,1,0.7,0.3,2,3,192,5,NA
fcp-trial,227,1484548,0.0-202.0-0.0,voc_e2,11739,"[{""event"":""fullscreenenter"",""trial"":1,""time"":2617}]",NA,NA,NA,NA,NA,0,#D89F1C,#3386FF,10,0,1,38,1,2576.400000035763,39,0,503.5,0,0,experiment,NA,NA,0,0.9,0.1,0,1,193,5,NA
fcp-trial,228,1490496,0.0-203.0-0.0,voc_e2,11739,"[{""event"":""fullscreenenter"",""trial"":1,""time"":2617}]",NA,NA,NA,NA,NA,2,#1CD855,#FA92F8,10,0,1,38,1,3841.5,39,0,593.1999999880791,0,0,experiment,NA,NA,1,0.7,0.3,2,3,194,5,NA
fcp-trial,229,1493981,0.0-204.0-0.0,voc_e2,11739,"[{""event"":""fullscreenenter"",""trial"":1,""time"":2617}]",NA,NA,NA,NA,NA,4,#D89F1C,#3386FF,10,0,1,38,1,1292.800000011921,39,0,678.8999999761581,0,0,experiment,NA,NA,0,0.9,0.1,0,1,195,5,NA
fcp-trial,230,1496980,0.0-205.0-0.0,voc_e2,11739,"[{""event"":""fullscreenenter"",""trial"":1,""time"":2617}]",NA,NA,NA,NA,NA,2,#741CD8,#D8271C,10,10,1,38,1,802.6999999880791,39,0,679,10,0,experiment,NA,NA,2,0.5,0.5,4,5,196,5,NA
fcp-trial,231,1500219,0.0-206.0-0.0,voc_e2,11739,"[{""event"":""fullscreenenter"",""trial"":1,""time"":2617}]",NA,NA,NA,NA,NA,4,#741CD8,#D8271C,0,0,1,40,0,1029.300000011921,37,1,699.8000000119209,0,1,experiment,NA,NA,2,0.5,0.5,4,5,197,5,NA
fcp-trial,232,1504477,0.0-207.0-0.0,voc_e2,11739,"[{""event"":""fullscreenenter"",""trial"":1,""time"":2617}]",NA,NA,NA,NA,NA,3,#FA92F8,#1CD855,0,0,0,40,0,2224.899999976158,37,1,512.7999999523163,0,0,experiment,NA,NA,1,0.3,0.7,3,2,198,5,NA
fcp-trial,233,1508275,0.0-208.0-0.0,voc_e2,11739,"[{""event"":""fullscreenenter"",""trial"":1,""time"":2617}]",NA,NA,NA,NA,NA,1,#3386FF,#D89F1C,0,10,0,38,1,1174.300000011921,39,0,1111,10,1,experiment,NA,NA,0,0.1,0.9,1,0,199,5,NA
fcp-trial,234,1515371,0.0-209.0-0.0,voc_e2,11739,"[{""event"":""fullscreenenter"",""trial"":1,""time"":2617}]",NA,NA,NA,NA,NA,1,#741CD8,#D8271C,10,10,1,40,0,3607.600000023842,37,1,1973.5999999642372,10,1,experiment,NA,NA,2,0.5,0.5,4,5,200,5,NA
fcp-trial,235,1520731,0.0-210.0-0.0,voc_e2,11739,"[{""event"":""fullscreenenter"",""trial"":1,""time"":2617}]",NA,NA,NA,NA,NA,0,#741CD8,#D8271C,10,10,1,38,1,3470.100000023842,39,0,374.60000002384186,10,0,experiment,NA,NA,2,0.5,0.5,4,5,201,5,NA
fcp-trial,236,1524502,0.0-211.0-0.0,voc_e2,11739,"[{""event"":""fullscreenenter"",""trial"":1,""time"":2617}]",NA,NA,NA,NA,NA,0,#FA92F8,#1CD855,0,10,0,38,1,1668.7999999523163,37,1,582.9000000357628,0,0,experiment,NA,NA,1,0.3,0.7,3,2,202,5,NA
fcp-trial,237,1531586,0.0-212.0-0.0,voc_e2,11739,"[{""event"":""fullscreenenter"",""trial"":1,""time"":2617}]",NA,NA,NA,NA,NA,6,#D8271C,#741CD8,0,0,0,40,0,4732.699999988079,37,1,833.5,0,0,experiment,NA,NA,2,0.5,0.5,5,4,203,5,NA
fcp-trial,238,1537135,0.0-213.0-0.0,voc_e2,11739,"[{""event"":""fullscreenenter"",""trial"":1,""time"":2617}]",NA,NA,NA,NA,NA,5,#D89F1C,#3386FF,10,0,1,40,0,3345.800000011921,37,1,687.1000000238419,10,1,experiment,NA,NA,0,0.9,0.1,0,1,204,5,NA
fcp-trial,239,1543894,0.0-214.0-0.0,voc_e2,11739,"[{""event"":""fullscreenenter"",""trial"":1,""time"":2617}]",NA,NA,NA,NA,NA,3,#741CD8,#D8271C,0,10,1,38,1,4425.699999988079,39,0,815.6000000238419,10,0,experiment,NA,NA,2,0.5,0.5,4,5,205,5,NA
fcp-trial,240,1551244,0.0-215.0-0.0,voc_e2,11739,"[{""event"":""fullscreenenter"",""trial"":1,""time"":2617}]",NA,NA,NA,NA,NA,5,#FA92F8,#1CD855,0,0,0,40,0,4167.800000011921,39,0,1676.5,0,1,experiment,NA,NA,1,0.3,0.7,3,2,206,5,NA
fcp-trial,241,1559032,0.0-216.0-0.0,voc_e2,11739,"[{""event"":""fullscreenenter"",""trial"":1,""time"":2617}]",NA,NA,NA,NA,NA,6,#D89F1C,#3386FF,10,0,1,40,0,4648.399999976158,39,0,1629.699999988079,0,0,experiment,NA,NA,0,0.9,0.1,0,1,207,5,NA
fcp-trial,242,1570877,0.0-217.0-0.0,voc_e2,11739,"[{""event"":""fullscreenenter"",""trial"":1,""time"":2617}]",NA,NA,NA,NA,NA,5,#741CD8,#D8271C,0,0,1,40,0,9646.800000011921,39,0,677.8999999761581,0,0,experiment,NA,NA,2,0.5,0.5,4,5,208,5,NA
fcp-trial,243,1574628,0.0-218.0-0.0,voc_e2,11739,"[{""event"":""fullscreenenter"",""trial"":1,""time"":2617}]",NA,NA,NA,NA,NA,4,#1CD855,#FA92F8,10,10,1,38,1,1296.5,37,1,941.1999999880791,10,1,experiment,NA,NA,1,0.7,0.3,2,3,209,5,NA
fcp-trial,244,1578339,0.0-219.0-0.0,voc_e2,11739,"[{""event"":""fullscreenenter"",""trial"":1,""time"":2617}]",NA,NA,NA,NA,NA,3,#D89F1C,#3386FF,10,0,1,40,0,1132.7999999523163,39,0,1067.699999988079,0,0,experiment,NA,NA,0,0.9,0.1,0,1,210,5,NA
audio-instructions,245,1611124,0.0-220.0,voc_e2,11739,"[{""event"":""fullscreenenter"",""trial"":1,""time"":2617}]",NA,27833,static/audio/pause.wav,NA,0,NA,NA,NA,NA,NA,NA,NA,NA,NA,NA,NA,NA,NA,NA,NA,NA,NA,NA,NA,NA,NA,NA,NA,NA,NA
fcp-trial,246,1615845,0.0-221.0-0.0,voc_e2,11739,"[{""event"":""fullscreenenter"",""trial"":1,""time"":2617}]",NA,NA,NA,NA,NA,1,#3386FF,#D89F1C,0,10,0,38,1,1614.699999988079,39,0,1597.199999988079,10,1,experiment,NA,NA,0,0.1,0.9,1,0,211,5,NA
fcp-trial,247,1620054,0.0-222.0-0.0,voc_e2,11739,"[{""event"":""fullscreenenter"",""trial"":1,""time"":2617}]",NA,NA,NA,NA,NA,3,#3386FF,#D89F1C,0,0,0,40,0,1245.699999988079,39,0,1451.5,0,1,experiment,NA,NA,0,0.1,0.9,1,0,212,5,NA
fcp-trial,248,1623516,0.0-223.0-0.0,voc_e2,11739,"[{""event"":""fullscreenenter"",""trial"":1,""time"":2617}]",NA,NA,NA,NA,NA,1,#1CD855,#FA92F8,10,0,1,38,1,1418,39,0,534.3000000119209,0,0,experiment,NA,NA,1,0.7,0.3,2,3,213,5,NA
fcp-trial,249,1627395,0.0-224.0-0.0,voc_e2,11739,"[{""event"":""fullscreenenter"",""trial"":1,""time"":2617}]",NA,NA,NA,NA,NA,6,#D8271C,#741CD8,0,0,0,40,0,1794.8999999761581,39,0,567.6999999880791,0,1,experiment,NA,NA,2,0.5,0.5,5,4,214,5,NA
fcp-trial,250,1633486,0.0-225.0-0.0,voc_e2,11739,"[{""event"":""fullscreenenter"",""trial"":1,""time"":2617}]",NA,NA,NA,NA,NA,4,#3386FF,#D89F1C,0,10,0,40,0,3138.300000011921,37,1,1437.2000000476837,0,0,experiment,NA,NA,0,0.1,0.9,1,0,215,5,NA
fcp-trial,251,1638215,0.0-226.0-0.0,voc_e2,11739,"[{""event"":""fullscreenenter"",""trial"":1,""time"":2617}]",NA,NA,NA,NA,NA,4,#1CD855,#FA92F8,0,10,1,38,1,2027,37,1,1192.199999988079,0,1,experiment,NA,NA,1,0.7,0.3,2,3,216,5,NA
fcp-trial,252,1642078,0.0-227.0-0.0,voc_e2,11739,"[{""event"":""fullscreenenter"",""trial"":1,""time"":2617}]",NA,NA,NA,NA,NA,6,#FA92F8,#1CD855,0,10,0,38,1,820.9000000357628,37,1,1526.6000000238419,0,0,experiment,NA,NA,1,0.3,0.7,3,2,217,5,NA
fcp-trial,253,1644665,0.0-228.0-0.0,voc_e2,11739,"[{""event"":""fullscreenenter"",""trial"":1,""time"":2617}]",NA,NA,NA,NA,NA,1,#D8271C,#741CD8,0,0,0,38,1,432.5999999642372,39,0,641.2999999523163,0,1,experiment,NA,NA,2,0.5,0.5,5,4,218,5,NA
fcp-trial,254,1648566,0.0-229.0-0.0,voc_e2,11739,"[{""event"":""fullscreenenter"",""trial"":1,""time"":2617}]",NA,NA,NA,NA,NA,2,#FA92F8,#1CD855,0,0,0,40,0,1132,37,1,1262,0,0,experiment,NA,NA,1,0.3,0.7,3,2,219,5,NA
fcp-trial,255,1653237,0.0-230.0-0.0,voc_e2,11739,"[{""event"":""fullscreenenter"",""trial"":1,""time"":2617}]",NA,NA,NA,NA,NA,5,#3386FF,#D89F1C,0,10,0,40,0,2066,37,1,1097.300000011921,0,0,experiment,NA,NA,0,0.1,0.9,1,0,220,5,NA
fcp-trial,256,1658186,0.0-231.0-0.0,voc_e2,11739,"[{""event"":""fullscreenenter"",""trial"":1,""time"":2617}]",NA,NA,NA,NA,NA,4,#D8271C,#741CD8,0,10,0,38,1,2120.5,39,0,1308.0999999642372,10,1,experiment,NA,NA,2,0.5,0.5,5,4,221,5,NA
fcp-trial,257,1662986,0.0-232.0-0.0,voc_e2,11739,"[{""event"":""fullscreenenter"",""trial"":1,""time"":2617}]",NA,NA,NA,NA,NA,0,#3386FF,#D89F1C,0,10,0,38,1,1667.2999999523163,37,1,1617.0999999642372,0,0,experiment,NA,NA,0,0.1,0.9,1,0,222,5,NA
fcp-trial,258,1667218,0.0-233.0-0.0,voc_e2,11739,"[{""event"":""fullscreenenter"",""trial"":1,""time"":2617}]",NA,NA,NA,NA,NA,3,#FA92F8,#1CD855,0,10,0,38,1,1572.8999999761581,39,0,1151.2999999523163,10,1,experiment,NA,NA,1,0.3,0.7,3,2,223,5,NA
fcp-trial,259,1671540,0.0-234.0-0.0,voc_e2,11739,"[{""event"":""fullscreenenter"",""trial"":1,""time"":2617}]",NA,NA,NA,NA,NA,0,#FA92F8,#1CD855,0,0,0,38,1,2227.900000035763,37,1,587.8999999761581,0,0,experiment,NA,NA,1,0.3,0.7,3,2,224,5,NA
fcp-trial,260,1675549,0.0-235.0-0.0,voc_e2,11739,"[{""event"":""fullscreenenter"",""trial"":1,""time"":2617}]",NA,NA,NA,NA,NA,6,#3386FF,#D89F1C,0,0,0,40,0,1549,39,0,942.8000000119209,0,1,experiment,NA,NA,0,0.1,0.9,1,0,225,5,NA
fcp-trial,261,1681023,0.0-236.0-0.0,voc_e2,11739,"[{""event"":""fullscreenenter"",""trial"":1,""time"":2617}]",NA,NA,NA,NA,NA,3,#D8271C,#741CD8,10,10,0,38,1,2694.900000035763,37,1,1265,10,0,experiment,NA,NA,2,0.5,0.5,5,4,226,6,NA
fcp-trial,262,1685398,0.0-237.0-0.0,voc_e2,11739,"[{""event"":""fullscreenenter"",""trial"":1,""time"":2617}]",NA,NA,NA,NA,NA,5,#741CD8,#D8271C,0,0,1,40,0,1612.4000000357628,37,1,1247.1000000238419,0,1,experiment,NA,NA,2,0.5,0.5,4,5,227,6,NA
fcp-trial,263,1690698,0.0-238.0-0.0,voc_e2,11739,"[{""event"":""fullscreenenter"",""trial"":1,""time"":2617}]",NA,NA,NA,NA,NA,0,#D8271C,#741CD8,0,0,0,38,1,2533.7999999523163,39,0,1251.7000000476837,0,1,experiment,NA,NA,2,0.5,0.5,5,4,228,6,NA
fcp-trial,264,1693968,0.0-239.0-0.0,voc_e2,11739,"[{""event"":""fullscreenenter"",""trial"":1,""time"":2617}]",NA,NA,NA,NA,NA,5,#1CD855,#FA92F8,10,10,1,38,1,871.6000000238419,37,1,885.6999999880791,10,1,experiment,NA,NA,1,0.7,0.3,2,3,229,6,NA
fcp-trial,265,1697186,0.0-240.0-0.0,voc_e2,11739,"[{""event"":""fullscreenenter"",""trial"":1,""time"":2617}]",NA,NA,NA,NA,NA,2,#D89F1C,#3386FF,10,0,1,40,0,802.7000000476837,39,0,898.4000000357628,0,0,experiment,NA,NA,0,0.9,0.1,0,1,230,6,NA
fcp-trial,266,1700729,0.0-241.0-0.0,voc_e2,11739,"[{""event"":""fullscreenenter"",""trial"":1,""time"":2617}]",NA,NA,NA,NA,NA,2,#D8271C,#741CD8,0,0,0,38,1,965.9000000357628,39,0,1060,0,1,experiment,NA,NA,2,0.5,0.5,5,4,231,6,NA
fcp-trial,267,1703414,0.0-242.0-0.0,voc_e2,11739,"[{""event"":""fullscreenenter"",""trial"":1,""time"":2617}]",NA,NA,NA,NA,NA,3,#3386FF,#D89F1C,0,10,0,38,1,796.5,37,1,375.19999998807907,0,0,experiment,NA,NA,0,0.1,0.9,1,0,232,6,NA
fcp-trial,268,1707251,0.0-243.0-0.0,voc_e2,11739,"[{""event"":""fullscreenenter"",""trial"":1,""time"":2617}]",NA,NA,NA,NA,NA,4,#FA92F8,#1CD855,0,10,0,40,0,1304,37,1,1022.6999999880791,0,0,experiment,NA,NA,1,0.3,0.7,3,2,233,6,NA
fcp-trial,269,1711135,0.0-244.0-0.0,voc_e2,11739,"[{""event"":""fullscreenenter"",""trial"":1,""time"":2617}]",NA,NA,NA,NA,NA,4,#741CD8,#D8271C,0,0,1,40,0,1667.7000000476837,37,1,702.6000000238419,0,1,experiment,NA,NA,2,0.5,0.5,4,5,234,6,NA
fcp-trial,270,1715646,0.0-245.0-0.0,voc_e2,11739,"[{""event"":""fullscreenenter"",""trial"":1,""time"":2617}]",NA,NA,NA,NA,NA,1,#D89F1C,#3386FF,10,0,1,38,1,2529.7000000476837,39,0,470.89999997615814,0,0,experiment,NA,NA,0,0.9,0.1,0,1,235,6,NA
fcp-trial,271,1719639,0.0-246.0-0.0,voc_e2,11739,"[{""event"":""fullscreenenter"",""trial"":1,""time"":2617}]",NA,NA,NA,NA,NA,0,#1CD855,#FA92F8,10,0,1,38,1,2000.699999988079,37,1,481.19999998807907,10,1,experiment,NA,NA,1,0.7,0.3,2,3,236,6,NA
fcp-trial,272,1723270,0.0-247.0-0.0,voc_e2,11739,"[{""event"":""fullscreenenter"",""trial"":1,""time"":2617}]",NA,NA,NA,NA,NA,6,#1CD855,#FA92F8,10,0,1,40,0,975.8999999761581,37,1,1142.5,10,1,experiment,NA,NA,1,0.7,0.3,2,3,237,6,NA
fcp-trial,273,1727431,0.0-248.0-0.0,voc_e2,11739,"[{""event"":""fullscreenenter"",""trial"":1,""time"":2617}]",NA,NA,NA,NA,NA,2,#741CD8,#D8271C,0,0,1,38,1,1713.300000011921,39,0,934.6000000238419,0,0,experiment,NA,NA,2,0.5,0.5,4,5,238,6,NA
fcp-trial,274,1731571,0.0-249.0-0.0,voc_e2,11739,"[{""event"":""fullscreenenter"",""trial"":1,""time"":2617}]",NA,NA,NA,NA,NA,5,#D8271C,#741CD8,10,10,0,40,0,1690.300000011921,39,0,937.5,10,1,experiment,NA,NA,2,0.5,0.5,5,4,239,6,NA
fcp-trial,275,1735692,0.0-250.0-0.0,voc_e2,11739,"[{""event"":""fullscreenenter"",""trial"":1,""time"":2617}]",NA,NA,NA,NA,NA,0,#3386FF,#D89F1C,0,10,0,38,1,1349.5,37,1,1254.5,0,0,experiment,NA,NA,0,0.1,0.9,1,0,240,6,NA
fcp-trial,276,1741598,0.0-251.0-0.0,voc_e2,11739,"[{""event"":""fullscreenenter"",""trial"":1,""time"":2617}]",NA,NA,NA,NA,NA,4,#D89F1C,#3386FF,10,0,1,40,0,3465.400000035763,39,0,918,0,0,experiment,NA,NA,0,0.9,0.1,0,1,241,6,NA
fcp-trial,277,1747007,0.0-252.0-0.0,voc_e2,11739,"[{""event"":""fullscreenenter"",""trial"":1,""time"":2617}]",NA,NA,NA,NA,NA,3,#FA92F8,#1CD855,0,0,0,38,1,2353.699999988079,37,1,1548.5999999642372,0,0,experiment,NA,NA,1,0.3,0.7,3,2,242,6,NA
fcp-trial,278,1751938,0.0-253.0-0.0,voc_e2,11739,"[{""event"":""fullscreenenter"",""trial"":1,""time"":2617}]",NA,NA,NA,NA,NA,5,#3386FF,#D89F1C,0,10,0,40,0,1883.0999999642372,39,0,1531.0999999642372,10,1,experiment,NA,NA,0,0.1,0.9,1,0,243,6,NA
fcp-trial,279,1756125,0.0-254.0-0.0,voc_e2,11739,"[{""event"":""fullscreenenter"",""trial"":1,""time"":2617}]",NA,NA,NA,NA,NA,6,#D8271C,#741CD8,0,0,0,40,0,1579.5,37,1,1095.7000000476837,0,0,experiment,NA,NA,2,0.5,0.5,5,4,244,6,NA
fcp-trial,280,1762135,0.0-255.0-0.0,voc_e2,11739,"[{""event"":""fullscreenenter"",""trial"":1,""time"":2617}]",NA,NA,NA,NA,NA,2,#1CD855,#FA92F8,10,10,1,38,1,3315.399999976158,37,1,1176.7999999523163,10,1,experiment,NA,NA,1,0.7,0.3,2,3,245,6,NA
fcp-trial,281,1765672,0.0-256.0-0.0,voc_e2,11739,"[{""event"":""fullscreenenter"",""trial"":1,""time"":2617}]",NA,NA,NA,NA,NA,6,#D89F1C,#3386FF,0,10,1,40,0,1363.300000011921,39,0,664,10,0,experiment,NA,NA,0,0.9,0.1,0,1,246,6,NA
fcp-trial,282,1771515,0.0-257.0-0.0,voc_e2,11739,"[{""event"":""fullscreenenter"",""trial"":1,""time"":2617}]",NA,NA,NA,NA,NA,1,#D8271C,#741CD8,0,0,0,38,1,2131.5,37,1,2204.699999988079,0,0,experiment,NA,NA,2,0.5,0.5,5,4,247,6,NA
fcp-trial,283,1775389,0.0-258.0-0.0,voc_e2,11739,"[{""event"":""fullscreenenter"",""trial"":1,""time"":2617}]",NA,NA,NA,NA,NA,5,#1CD855,#FA92F8,0,10,1,40,0,1663.1000000238419,39,0,699.1000000238419,10,0,experiment,NA,NA,1,0.7,0.3,2,3,248,6,NA
fcp-trial,284,1780280,0.0-259.0-0.0,voc_e2,11739,"[{""event"":""fullscreenenter"",""trial"":1,""time"":2617}]",NA,NA,NA,NA,NA,2,#3386FF,#D89F1C,0,10,0,40,0,2195,39,0,1180.800000011921,10,1,experiment,NA,NA,0,0.1,0.9,1,0,249,6,NA
fcp-trial,285,1785043,0.0-260.0-0.0,voc_e2,11739,"[{""event"":""fullscreenenter"",""trial"":1,""time"":2617}]",NA,NA,NA,NA,NA,1,#FA92F8,#1CD855,0,10,0,38,1,1621.3999999761581,37,1,1635.3999999761581,0,0,experiment,NA,NA,1,0.3,0.7,3,2,250,6,NA
fcp-trial,286,1790465,0.0-261.0-0.0,voc_e2,11739,"[{""event"":""fullscreenenter"",""trial"":1,""time"":2617}]",NA,NA,NA,NA,NA,0,#741CD8,#D8271C,0,10,1,38,1,1528.199999988079,37,1,2385,0,1,experiment,NA,NA,2,0.5,0.5,4,5,251,6,NA
fcp-trial,287,1794724,0.0-262.0-0.0,voc_e2,11739,"[{""event"":""fullscreenenter"",""trial"":1,""time"":2617}]",NA,NA,NA,NA,NA,3,#741CD8,#D8271C,10,0,1,38,1,2286.199999988079,39,0,465.69999998807907,0,0,experiment,NA,NA,2,0.5,0.5,4,5,252,6,NA
fcp-trial,288,1799948,0.0-263.0-0.0,voc_e2,11739,"[{""event"":""fullscreenenter"",""trial"":1,""time"":2617}]",NA,NA,NA,NA,NA,5,#1CD855,#FA92F8,10,0,1,40,0,2625.5,37,1,1079.7999999523163,10,1,experiment,NA,NA,1,0.7,0.3,2,3,253,6,NA
fcp-trial,289,1805505,0.0-264.0-0.0,voc_e2,11739,"[{""event"":""fullscreenenter"",""trial"":1,""time"":2617}]",NA,NA,NA,NA,NA,0,#D89F1C,#3386FF,10,0,1,38,1,2410.600000023842,37,1,1637.5,10,1,experiment,NA,NA,0,0.9,0.1,0,1,254,6,NA
fcp-trial,290,1812131,0.0-265.0-0.0,voc_e2,11739,"[{""event"":""fullscreenenter"",""trial"":1,""time"":2617}]",NA,NA,NA,NA,NA,5,#D89F1C,#3386FF,10,0,1,40,0,2946.399999976158,37,1,2158.800000011921,10,1,experiment,NA,NA,0,0.9,0.1,0,1,255,6,NA
fcp-trial,291,1817061,0.0-266.0-0.0,voc_e2,11739,"[{""event"":""fullscreenenter"",""trial"":1,""time"":2617}]",NA,NA,NA,NA,NA,5,#D8271C,#741CD8,0,0,0,40,0,2475.199999988079,39,0,941.9000000357628,0,1,experiment,NA,NA,2,0.5,0.5,5,4,256,6,NA
fcp-trial,292,1822835,0.0-267.0-0.0,voc_e2,11739,"[{""event"":""fullscreenenter"",""trial"":1,""time"":2617}]",NA,NA,NA,NA,NA,3,#1CD855,#FA92F8,10,10,1,38,1,2763.600000023842,37,1,1501.8999999761581,10,1,experiment,NA,NA,1,0.7,0.3,2,3,257,6,NA
fcp-trial,293,1829371,0.0-268.0-0.0,voc_e2,11739,"[{""event"":""fullscreenenter"",""trial"":1,""time"":2617}]",NA,NA,NA,NA,NA,2,#3386FF,#D89F1C,0,10,0,38,1,4049,39,0,972.8000000119209,10,1,experiment,NA,NA,0,0.1,0.9,1,0,258,6,NA
fcp-trial,294,1834462,0.0-269.0-0.0,voc_e2,11739,"[{""event"":""fullscreenenter"",""trial"":1,""time"":2617}]",NA,NA,NA,NA,NA,1,#741CD8,#D8271C,0,0,1,38,1,2533.599999964237,37,1,1044.1000000238419,0,1,experiment,NA,NA,2,0.5,0.5,4,5,259,6,NA
fcp-trial,295,1838213,0.0-270.0-0.0,voc_e2,11739,"[{""event"":""fullscreenenter"",""trial"":1,""time"":2617}]",NA,NA,NA,NA,NA,3,#D8271C,#741CD8,10,10,0,38,1,1723.4000000357628,39,0,518.4000000357628,10,1,experiment,NA,NA,2,0.5,0.5,5,4,260,6,NA
fcp-trial,296,1841324,0.0-271.0-0.0,voc_e2,11739,"[{""event"":""fullscreenenter"",""trial"":1,""time"":2617}]",NA,NA,NA,NA,NA,6,#FA92F8,#1CD855,0,10,0,40,0,852.5,39,0,745,10,1,experiment,NA,NA,1,0.3,0.7,3,2,261,6,NA
fcp-trial,297,1845537,0.0-272.0-0.0,voc_e2,11739,"[{""event"":""fullscreenenter"",""trial"":1,""time"":2617}]",NA,NA,NA,NA,NA,2,#FA92F8,#1CD855,0,10,0,38,1,1574.199999988079,37,1,1121.800000011921,0,0,experiment,NA,NA,1,0.3,0.7,3,2,262,6,NA
fcp-trial,298,1851309,0.0-273.0-0.0,voc_e2,11739,"[{""event"":""fullscreenenter"",""trial"":1,""time"":2617}]",NA,NA,NA,NA,NA,6,#D89F1C,#3386FF,10,0,1,40,0,3023.399999976158,37,1,1241.9000000357628,10,1,experiment,NA,NA,0,0.9,0.1,0,1,263,6,NA
fcp-trial,299,1858989,0.0-274.0-0.0,voc_e2,11739,"[{""event"":""fullscreenenter"",""trial"":1,""time"":2617}]",NA,NA,NA,NA,NA,1,#1CD855,#FA92F8,0,0,1,38,1,2607.600000023842,39,0,3555.400000035763,0,0,experiment,NA,NA,1,0.7,0.3,2,3,264,6,NA
fcp-trial,300,1862824,0.0-275.0-0.0,voc_e2,11739,"[{""event"":""fullscreenenter"",""trial"":1,""time"":2617}]",NA,NA,NA,NA,NA,6,#D8271C,#741CD8,0,10,0,40,0,1273.8999999761581,37,1,1043,0,0,experiment,NA,NA,2,0.5,0.5,5,4,265,6,NA
fcp-trial,301,1867742,0.0-276.0-0.0,voc_e2,11739,"[{""event"":""fullscreenenter"",""trial"":1,""time"":2617}]",NA,NA,NA,NA,NA,3,#D89F1C,#3386FF,10,0,1,38,1,1269.800000011921,39,0,2139.2999999523163,0,0,experiment,NA,NA,0,0.9,0.1,0,1,266,6,NA
fcp-trial,302,1872026,0.0-277.0-0.0,voc_e2,11739,"[{""event"":""fullscreenenter"",""trial"":1,""time"":2617}]",NA,NA,NA,NA,NA,0,#D8271C,#741CD8,10,10,0,38,1,1311.800000011921,39,0,1464.5,10,1,experiment,NA,NA,2,0.5,0.5,5,4,267,6,NA
fcp-trial,303,1875464,0.0-278.0-0.0,voc_e2,11739,"[{""event"":""fullscreenenter"",""trial"":1,""time"":2617}]",NA,NA,NA,NA,NA,2,#D8271C,#741CD8,10,0,0,38,1,1301.300000011921,37,1,620,10,0,experiment,NA,NA,2,0.5,0.5,5,4,268,6,NA
fcp-trial,304,1880468,0.0-279.0-0.0,voc_e2,11739,"[{""event"":""fullscreenenter"",""trial"":1,""time"":2617}]",NA,NA,NA,NA,NA,4,#FA92F8,#1CD855,10,0,0,40,0,1615.7000000476837,37,1,1879.800000011921,10,0,experiment,NA,NA,1,0.3,0.7,3,2,269,6,NA
fcp-trial,305,1887875,0.0-280.0-0.0,voc_e2,11739,"[{""event"":""fullscreenenter"",""trial"":1,""time"":2617}]",NA,NA,NA,NA,NA,1,#D89F1C,#3386FF,0,0,1,38,1,4855.900000035763,37,1,1036.199999988079,0,1,experiment,NA,NA,0,0.9,0.1,0,1,270,6,NA
fcp-trial,306,1893057,0.0-281.0-0.0,voc_e2,11739,"[{""event"":""fullscreenenter"",""trial"":1,""time"":2617}]",NA,NA,NA,NA,NA,4,#741CD8,#D8271C,10,0,1,40,0,1853,37,1,1808,10,1,experiment,NA,NA,2,0.5,0.5,4,5,271,7,NA
fcp-trial,307,1898674,0.0-282.0-0.0,voc_e2,11739,"[{""event"":""fullscreenenter"",""trial"":1,""time"":2617}]",NA,NA,NA,NA,NA,0,#1CD855,#FA92F8,10,0,1,38,1,2781.5,37,1,1323.300000011921,10,1,experiment,NA,NA,1,0.7,0.3,2,3,272,7,NA
fcp-trial,308,1902167,0.0-283.0-0.0,voc_e2,11739,"[{""event"":""fullscreenenter"",""trial"":1,""time"":2617}]",NA,NA,NA,NA,NA,4,#D89F1C,#3386FF,10,0,1,40,0,930.3000000119209,39,0,1045.8999999761581,0,0,experiment,NA,NA,0,0.9,0.1,0,1,273,7,NA
fcp-trial,309,1906880,0.0-284.0-0.0,voc_e2,11739,"[{""event"":""fullscreenenter"",""trial"":1,""time"":2617}]",NA,NA,NA,NA,NA,5,#D8271C,#741CD8,10,10,0,40,0,2220.5,39,0,976.5,10,1,experiment,NA,NA,2,0.5,0.5,5,4,274,7,NA
fcp-trial,310,1911554,0.0-285.0-0.0,voc_e2,11739,"[{""event"":""fullscreenenter"",""trial"":1,""time"":2617}]",NA,NA,NA,NA,NA,6,#D8271C,#741CD8,0,10,0,40,0,1793.699999988079,37,1,1367.4000000357628,0,0,experiment,NA,NA,2,0.5,0.5,5,4,275,7,NA
fcp-trial,311,1915415,0.0-286.0-0.0,voc_e2,11739,"[{""event"":""fullscreenenter"",""trial"":1,""time"":2617}]",NA,NA,NA,NA,NA,5,#FA92F8,#1CD855,0,0,0,40,0,1585.5999999642372,39,0,763.3000000119209,0,1,experiment,NA,NA,1,0.3,0.7,3,2,276,7,NA
fcp-trial,312,1919448,0.0-287.0-0.0,voc_e2,11739,"[{""event"":""fullscreenenter"",""trial"":1,""time"":2617}]",NA,NA,NA,NA,NA,1,#FA92F8,#1CD855,10,10,0,38,1,1542.6000000238419,37,1,985,10,0,experiment,NA,NA,1,0.3,0.7,3,2,277,7,NA
fcp-trial,313,1924919,0.0-288.0-0.0,voc_e2,11739,"[{""event"":""fullscreenenter"",""trial"":1,""time"":2617}]",NA,NA,NA,NA,NA,3,#D89F1C,#3386FF,10,0,1,38,1,2668.2999999523163,39,0,1292.8999999761581,0,0,experiment,NA,NA,0,0.9,0.1,0,1,278,7,NA
fcp-trial,314,1929299,0.0-289.0-0.0,voc_e2,11739,"[{""event"":""fullscreenenter"",""trial"":1,""time"":2617}]",NA,NA,NA,NA,NA,2,#D8271C,#741CD8,0,10,0,38,1,2116,37,1,746.1999999880791,0,0,experiment,NA,NA,2,0.5,0.5,5,4,279,7,NA
fcp-trial,315,1933016,0.0-290.0-0.0,voc_e2,11739,"[{""event"":""fullscreenenter"",""trial"":1,""time"":2617}]",NA,NA,NA,NA,NA,0,#1CD855,#FA92F8,10,0,1,38,1,1308.5999999642372,37,1,894.0999999642372,10,1,experiment,NA,NA,1,0.7,0.3,2,3,280,7,NA
fcp-trial,316,1936384,0.0-291.0-0.0,voc_e2,11739,"[{""event"":""fullscreenenter"",""trial"":1,""time"":2617}]",NA,NA,NA,NA,NA,6,#FA92F8,#1CD855,10,10,0,40,0,1146.4000000357628,39,0,706.6999999880791,10,1,experiment,NA,NA,1,0.3,0.7,3,2,281,7,NA
fcp-trial,317,1939866,0.0-292.0-0.0,voc_e2,11739,"[{""event"":""fullscreenenter"",""trial"":1,""time"":2617}]",NA,NA,NA,NA,NA,2,#D89F1C,#3386FF,10,0,1,38,1,1363.8999999761581,37,1,606.5999999642372,10,1,experiment,NA,NA,0,0.9,0.1,0,1,282,7,NA
fcp-trial,318,1943814,0.0-293.0-0.0,voc_e2,11739,"[{""event"":""fullscreenenter"",""trial"":1,""time"":2617}]",NA,NA,NA,NA,NA,1,#741CD8,#D8271C,10,10,1,38,1,1816.2999999523163,39,0,619.3000000119209,10,0,experiment,NA,NA,2,0.5,0.5,4,5,283,7,NA
fcp-trial,319,1947624,0.0-294.0-0.0,voc_e2,11739,"[{""event"":""fullscreenenter"",""trial"":1,""time"":2617}]",NA,NA,NA,NA,NA,3,#1CD855,#FA92F8,0,0,1,38,1,1562.199999988079,37,1,738,0,1,experiment,NA,NA,1,0.7,0.3,2,3,284,7,NA
fcp-trial,320,1953543,0.0-295.0-0.0,voc_e2,11739,"[{""event"":""fullscreenenter"",""trial"":1,""time"":2617}]",NA,NA,NA,NA,NA,5,#3386FF,#D89F1C,0,10,0,40,0,3239.800000011921,37,1,1164.8999999761581,0,0,experiment,NA,NA,0,0.1,0.9,1,0,285,7,NA
fcp-trial,321,1958777,0.0-296.0-0.0,voc_e2,11739,"[{""event"":""fullscreenenter"",""trial"":1,""time"":2617}]",NA,NA,NA,NA,NA,4,#D8271C,#741CD8,0,0,0,40,0,2188.899999976158,37,1,1526.300000011921,0,0,experiment,NA,NA,2,0.5,0.5,5,4,286,7,NA
fcp-trial,322,1963329,0.0-297.0-0.0,voc_e2,11739,"[{""event"":""fullscreenenter"",""trial"":1,""time"":2617}]",NA,NA,NA,NA,NA,6,#D89F1C,#3386FF,10,0,1,40,0,2244.199999988079,39,0,791.1000000238419,0,0,experiment,NA,NA,0,0.9,0.1,0,1,287,7,NA
fcp-trial,323,1967524,0.0-298.0-0.0,voc_e2,11739,"[{""event"":""fullscreenenter"",""trial"":1,""time"":2617}]",NA,NA,NA,NA,NA,0,#D89F1C,#3386FF,10,0,1,38,1,1714.4000000357628,37,1,961.0999999642372,10,1,experiment,NA,NA,0,0.9,0.1,0,1,288,7,NA
fcp-trial,324,1971156,0.0-299.0-0.0,voc_e2,11739,"[{""event"":""fullscreenenter"",""trial"":1,""time"":2617}]",NA,NA,NA,NA,NA,4,#1CD855,#FA92F8,0,0,1,40,0,1364.5,39,0,754.5,0,0,experiment,NA,NA,1,0.7,0.3,2,3,289,7,NA
fcp-trial,325,1975425,0.0-300.0-0.0,voc_e2,11739,"[{""event"":""fullscreenenter"",""trial"":1,""time"":2617}]",NA,NA,NA,NA,NA,0,#741CD8,#D8271C,10,0,1,38,1,2183,37,1,570.7999999523163,10,1,experiment,NA,NA,2,0.5,0.5,4,5,290,7,NA
fcp-trial,326,1981720,0.0-301.0-0.0,voc_e2,11739,"[{""event"":""fullscreenenter"",""trial"":1,""time"":2617}]",NA,NA,NA,NA,NA,2,#1CD855,#FA92F8,10,0,1,38,1,1798.5,39,0,2979.300000011921,0,0,experiment,NA,NA,1,0.7,0.3,2,3,291,7,NA
fcp-trial,327,1985241,0.0-302.0-0.0,voc_e2,11739,"[{""event"":""fullscreenenter"",""trial"":1,""time"":2617}]",NA,NA,NA,NA,NA,1,#3386FF,#D89F1C,0,10,0,38,1,1646.6000000238419,37,1,362.30000001192093,0,0,experiment,NA,NA,0,0.1,0.9,1,0,292,7,NA
fcp-trial,328,1989084,0.0-303.0-0.0,voc_e2,11739,"[{""event"":""fullscreenenter"",""trial"":1,""time"":2617}]",NA,NA,NA,NA,NA,4,#3386FF,#D89F1C,0,10,0,40,0,1443.5,39,0,882.5,10,1,experiment,NA,NA,0,0.1,0.9,1,0,293,7,NA
fcp-trial,329,1993409,0.0-304.0-0.0,voc_e2,11739,"[{""event"":""fullscreenenter"",""trial"":1,""time"":2617}]",NA,NA,NA,NA,NA,3,#D8271C,#741CD8,0,0,0,38,1,1961.300000011921,37,1,852.2000000476837,0,0,experiment,NA,NA,2,0.5,0.5,5,4,294,7,NA
fcp-trial,330,1996953,0.0-305.0-0.0,voc_e2,11739,"[{""event"":""fullscreenenter"",""trial"":1,""time"":2617}]",NA,NA,NA,NA,NA,0,#1CD855,#FA92F8,10,0,1,38,1,1400.9000000357628,39,0,629.3000000119209,0,0,experiment,NA,NA,1,0.7,0.3,2,3,295,7,NA
fcp-trial,331,2000704,0.0-306.0-0.0,voc_e2,11739,"[{""event"":""fullscreenenter"",""trial"":1,""time"":2617}]",NA,NA,NA,NA,NA,2,#1CD855,#FA92F8,10,0,1,38,1,1610.5,37,1,624.5,10,1,experiment,NA,NA,1,0.7,0.3,2,3,296,7,NA
fcp-trial,332,2004385,0.0-307.0-0.0,voc_e2,11739,"[{""event"":""fullscreenenter"",""trial"":1,""time"":2617}]",NA,NA,NA,NA,NA,4,#D8271C,#741CD8,10,0,0,40,0,1246.199999988079,39,0,924.8000000119209,0,1,experiment,NA,NA,2,0.5,0.5,5,4,297,7,NA
fcp-trial,333,2008326,0.0-308.0-0.0,voc_e2,11739,"[{""event"":""fullscreenenter"",""trial"":1,""time"":2617}]",NA,NA,NA,NA,NA,4,#1CD855,#FA92F8,10,10,1,40,0,1016.8999999761581,37,1,1410.4000000357628,10,1,experiment,NA,NA,1,0.7,0.3,2,3,298,7,NA
fcp-trial,334,2011768,0.0-309.0-0.0,voc_e2,11739,"[{""event"":""fullscreenenter"",""trial"":1,""time"":2617}]",NA,NA,NA,NA,NA,1,#D89F1C,#3386FF,10,0,1,38,1,1033.199999988079,39,0,896.2999999523163,0,0,experiment,NA,NA,0,0.9,0.1,0,1,299,7,NA
fcp-trial,335,2015977,0.0-310.0-0.0,voc_e2,11739,"[{""event"":""fullscreenenter"",""trial"":1,""time"":2617}]",NA,NA,NA,NA,NA,4,#D89F1C,#3386FF,10,0,1,40,0,1689.5,39,0,1007.3000000119209,0,0,experiment,NA,NA,0,0.9,0.1,0,1,300,7,NA
fcp-trial,336,2020428,0.0-311.0-0.0,voc_e2,11739,"[{""event"":""fullscreenenter"",""trial"":1,""time"":2617}]",NA,NA,NA,NA,NA,1,#D8271C,#741CD8,0,10,0,38,1,2273.199999988079,37,1,665.9000000357628,0,0,experiment,NA,NA,2,0.5,0.5,5,4,301,7,NA
fcp-trial,337,2025051,0.0-312.0-0.0,voc_e2,11739,"[{""event"":""fullscreenenter"",""trial"":1,""time"":2617}]",NA,NA,NA,NA,NA,6,#FA92F8,#1CD855,0,10,0,40,0,1150.0999999642372,37,1,1954.5,0,0,experiment,NA,NA,1,0.3,0.7,3,2,302,7,NA
fcp-trial,338,2029299,0.0-313.0-0.0,voc_e2,11739,"[{""event"":""fullscreenenter"",""trial"":1,""time"":2617}]",NA,NA,NA,NA,NA,0,#D89F1C,#3386FF,10,10,1,38,1,1635.800000011921,39,0,1100.5,10,0,experiment,NA,NA,0,0.9,0.1,0,1,303,7,NA
fcp-trial,339,2033067,0.0-314.0-0.0,voc_e2,11739,"[{""event"":""fullscreenenter"",""trial"":1,""time"":2617}]",NA,NA,NA,NA,NA,5,#D89F1C,#3386FF,0,0,1,40,0,1416.5999999642372,37,1,838.2999999523163,0,1,experiment,NA,NA,0,0.9,0.1,0,1,304,7,NA
fcp-trial,340,2037104,0.0-315.0-0.0,voc_e2,11739,"[{""event"":""fullscreenenter"",""trial"":1,""time"":2617}]",NA,NA,NA,NA,NA,1,#FA92F8,#1CD855,0,0,0,38,1,1416.9000000357628,37,1,1109.0999999642372,0,0,experiment,NA,NA,1,0.3,0.7,3,2,305,7,NA
fcp-trial,341,2041392,0.0-316.0-0.0,voc_e2,11739,"[{""event"":""fullscreenenter"",""trial"":1,""time"":2617}]",NA,NA,NA,NA,NA,3,#D8271C,#741CD8,0,0,0,38,1,1877.1000000238419,39,0,901.2999999523163,0,1,experiment,NA,NA,2,0.5,0.5,5,4,306,7,NA
fcp-trial,342,2046572,0.0-317.0-0.0,voc_e2,11739,"[{""event"":""fullscreenenter"",""trial"":1,""time"":2617}]",NA,NA,NA,NA,NA,3,#D89F1C,#3386FF,10,0,1,38,1,2060.099999964237,37,1,1609.3999999761581,10,1,experiment,NA,NA,0,0.9,0.1,0,1,307,7,NA
fcp-trial,343,2052851,0.0-318.0-0.0,voc_e2,11739,"[{""event"":""fullscreenenter"",""trial"":1,""time"":2617}]",NA,NA,NA,NA,NA,3,#1CD855,#FA92F8,0,0,1,38,1,3872.300000011921,37,1,889.6999999880791,0,1,experiment,NA,NA,1,0.7,0.3,2,3,308,7,NA
fcp-trial,344,2056949,0.0-319.0-0.0,voc_e2,11739,"[{""event"":""fullscreenenter"",""trial"":1,""time"":2617}]",NA,NA,NA,NA,NA,6,#D8271C,#741CD8,0,0,0,40,0,1875.699999988079,39,0,708,0,1,experiment,NA,NA,2,0.5,0.5,5,4,309,7,NA
fcp-trial,345,2064134,0.0-320.0-0.0,voc_e2,11739,"[{""event"":""fullscreenenter"",""trial"":1,""time"":2617}]",NA,NA,NA,NA,NA,0,#D8271C,#741CD8,10,0,0,40,0,4043.100000023842,39,0,1629,0,1,experiment,NA,NA,2,0.5,0.5,5,4,310,7,NA
fcp-trial,346,2067936,0.0-321.0-0.0,voc_e2,11739,"[{""event"":""fullscreenenter"",""trial"":1,""time"":2617}]",NA,NA,NA,NA,NA,5,#1CD855,#FA92F8,10,0,1,40,0,1597.699999988079,37,1,690,10,1,experiment,NA,NA,1,0.7,0.3,2,3,311,7,NA
fcp-trial,347,2074162,0.0-322.0-0.0,voc_e2,11739,"[{""event"":""fullscreenenter"",""trial"":1,""time"":2617}]",NA,NA,NA,NA,NA,2,#D89F1C,#3386FF,10,0,1,38,1,2787.599999964237,37,1,1924.300000011921,10,1,experiment,NA,NA,0,0.9,0.1,0,1,312,7,NA
fcp-trial,348,2080177,0.0-323.0-0.0,voc_e2,11739,"[{""event"":""fullscreenenter"",""trial"":1,""time"":2617}]",NA,NA,NA,NA,NA,6,#D89F1C,#3386FF,10,0,1,40,0,3552.199999988079,39,0,946.4000000357628,0,0,experiment,NA,NA,0,0.9,0.1,0,1,313,7,NA
fcp-trial,349,2084076,0.0-324.0-0.0,voc_e2,11739,"[{""event"":""fullscreenenter"",""trial"":1,""time"":2617}]",NA,NA,NA,NA,NA,5,#741CD8,#D8271C,0,0,1,40,0,1641.4000000357628,39,0,738,0,0,experiment,NA,NA,2,0.5,0.5,4,5,314,7,NA
fcp-trial,350,2088549,0.0-325.0-0.0,voc_e2,11739,"[{""event"":""fullscreenenter"",""trial"":1,""time"":2617}]",NA,NA,NA,NA,NA,2,#741CD8,#D8271C,0,10,1,38,1,1209,37,1,1741.699999988079,0,1,experiment,NA,NA,2,0.5,0.5,4,5,315,7,NA
audio-instructions,351,2100688,0.0-326.0,voc_e2,11739,"[{""event"":""fullscreenenter"",""trial"":1,""time"":2617}]",NA,6017.100000023842,static/audio/finished.wav,NA,0,NA,NA,NA,NA,NA,NA,NA,NA,NA,NA,NA,NA,NA,NA,NA,NA,NA,NA,NA,NA,NA,NA,NA,NA,NA
audio-instructions,352,2118525,0.0-327.0-0.0,voc_e2,11739,"[{""event"":""fullscreenenter"",""trial"":1,""time"":2617}]",NA,6992.100000023842,static/audio/explicit1.wav,NA,0,NA,NA,NA,NA,NA,NA,NA,NA,NA,NA,NA,NA,NA,NA,NA,NA,NA,NA,NA,NA,NA,NA,NA,NA,NA
audio-instructions,353,2126783,0.0-327.0-1.0,voc_e2,11739,"[{""event"":""fullscreenenter"",""trial"":1,""time"":2617}]",NA,661.4000000357628,static/audio/explicit2.wav,NA,0,NA,NA,NA,NA,NA,NA,NA,NA,NA,NA,NA,NA,NA,NA,NA,NA,NA,NA,NA,NA,NA,NA,NA,NA,NA
image-slider-response,354,2133287,0.0-328.0,voc_e2,11739,"[{""event"":""fullscreenenter"",""trial"":1,""time"":2617}]",NA,6501.600000023842,static/img/machines/machine2.png,NA,NA,NA,NA,NA,NA,NA,NA,NA,NA,NA,NA,NA,NA,NA,NA,explicit,NA,NA,NA,NA,NA,NA,NA,NA,NA,4
image-slider-response,355,2138455,0.0-329.0,voc_e2,11739,"[{""event"":""fullscreenenter"",""trial"":1,""time"":2617}]",NA,5165.200000047684,static/img/machines/machine3.png,NA,NA,NA,NA,NA,NA,NA,NA,NA,NA,NA,NA,NA,NA,NA,NA,explicit,NA,NA,NA,NA,NA,NA,NA,NA,NA,7
image-slider-response,356,2146159,0.0-330.0,voc_e2,11739,"[{""event"":""fullscreenenter"",""trial"":1,""time"":2617}]",NA,7702.199999988079,static/img/machines/machine6.png,NA,NA,NA,NA,NA,NA,NA,NA,NA,NA,NA,NA,NA,NA,NA,NA,explicit,NA,NA,NA,NA,NA,NA,NA,NA,NA,5
image-slider-response,357,2150655,0.0-331.0,voc_e2,11739,"[{""event"":""fullscreenenter"",""trial"":1,""time"":2617}]",NA,4494,static/img/machines/machine1.png,NA,NA,NA,NA,NA,NA,NA,NA,NA,NA,NA,NA,NA,NA,NA,NA,explicit,NA,NA,NA,NA,NA,NA,NA,NA,NA,6
image-slider-response,358,2155343,0.0-332.0,voc_e2,11739,"[{""event"":""fullscreenenter"",""trial"":1,""time"":2617}]",NA,4686.300000011921,static/img/machines/machine5.png,NA,NA,NA,NA,NA,NA,NA,NA,NA,NA,NA,NA,NA,NA,NA,NA,explicit,NA,NA,NA,NA,NA,NA,NA,NA,NA,3
image-slider-response,359,2158902,0.0-333.0,voc_e2,11739,"[{""event"":""fullscreenenter"",""trial"":1,""time"":2617}]",NA,3557.300000011921,static/img/machines/machine4.png,NA,NA,NA,NA,NA,NA,NA,NA,NA,NA,NA,NA,NA,NA,NA,NA,explicit,NA,NA,NA,NA,NA,NA,NA,NA,NA,7
