trial_type,trial_index,time_elapsed,internal_node_id,task_version,subject_id,interactions,success,rt,stimulus,key_press,button_pressed,offer,arcade_color_L,arcade_color_R,arcade_outcome_L,arcade_outcome_R,correct,stage_1_key,stage_1_choice,stage_1_rt,stage_2_key,stage_2_choice,stage_2_rt,stage_3_outcome,accuracy,phase,responses,num_errors,context,reward_prob_L,reward_prob_R,arcade_id_L,arcade_id_R,trial,block,response
pavlovia,0,18,0.0-0.0,voc_e2,11911,"[{""event"":""focus"",""trial"":0,""time"":0}]",NA,NA,NA,NA,NA,NA,NA,NA,NA,NA,NA,NA,NA,NA,NA,NA,NA,NA,NA,NA,NA,NA,NA,NA,NA,NA,NA,NA,NA,NA
fullscreen,1,9036,0.0-1.0,voc_e2,11911,"[{""event"":""focus"",""trial"":0,""time"":0},{""event"":""fullscreenenter"",""trial"":1,""time"":8292}]",TRUE,NA,NA,NA,NA,NA,NA,NA,NA,NA,NA,NA,NA,NA,NA,NA,NA,NA,NA,NA,NA,NA,NA,NA,NA,NA,NA,NA,NA,NA
audio-keyboard-response,2,20105,0.0-2.0,voc_e2,11911,"[{""event"":""focus"",""trial"":0,""time"":0},{""event"":""fullscreenenter"",""trial"":1,""time"":8292}]",NA,10890,static/audio/beep_loop.wav,32,NA,NA,NA,NA,NA,NA,NA,NA,NA,NA,NA,NA,NA,NA,NA,NA,NA,NA,NA,NA,NA,NA,NA,NA,NA,NA
audio-test,3,21928,0.0-3.0,voc_e2,11911,"[{""event"":""focus"",""trial"":0,""time"":0},{""event"":""fullscreenenter"",""trial"":1,""time"":8292}]",NA,NA,static/audio/turtle.wav,NA,3,NA,NA,NA,NA,NA,NA,NA,NA,NA,NA,NA,NA,NA,NA,NA,NA,NA,NA,NA,NA,NA,NA,NA,NA,NA
audio-test,4,39633,0.0-4.0,voc_e2,11911,"[{""event"":""focus"",""trial"":0,""time"":0},{""event"":""fullscreenenter"",""trial"":1,""time"":8292}]",NA,NA,static/audio/shark.wav,NA,2,NA,NA,NA,NA,NA,NA,NA,NA,NA,NA,NA,NA,NA,NA,NA,NA,NA,NA,NA,NA,NA,NA,NA,NA,NA
audio-instructions,5,49195,0.0-5.0-0.0,voc_e2,11911,"[{""event"":""focus"",""trial"":0,""time"":0},{""event"":""fullscreenenter"",""trial"":1,""time"":8292}]",NA,3775,static/audio/instructions1.wav,NA,0,NA,NA,NA,NA,NA,NA,NA,NA,NA,NA,NA,NA,NA,NA,NA,NA,NA,NA,NA,NA,NA,NA,NA,NA,NA
audio-instructions,6,64155,0.0-5.0-1.0,voc_e2,11911,"[{""event"":""focus"",""trial"":0,""time"":0},{""event"":""fullscreenenter"",""trial"":1,""time"":8292}]",NA,8203,static/audio/instructions2.wav,NA,0,NA,NA,NA,NA,NA,NA,NA,NA,NA,NA,NA,NA,NA,NA,NA,NA,NA,NA,NA,NA,NA,NA,NA,NA,NA
audio-instructions,7,88941,0.0-5.0-2.0,voc_e2,11911,"[{""event"":""focus"",""trial"":0,""time"":0},{""event"":""fullscreenenter"",""trial"":1,""time"":8292}]",NA,18971,static/audio/instructions3.wav,NA,0,NA,NA,NA,NA,NA,NA,NA,NA,NA,NA,NA,NA,NA,NA,NA,NA,NA,NA,NA,NA,NA,NA,NA,NA,NA
audio-instructions,8,110422,0.0-5.0-3.0,voc_e2,11911,"[{""event"":""focus"",""trial"":0,""time"":0},{""event"":""fullscreenenter"",""trial"":1,""time"":8292}]",NA,8241,static/audio/instructions4.wav,NA,0,NA,NA,NA,NA,NA,NA,NA,NA,NA,NA,NA,NA,NA,NA,NA,NA,NA,NA,NA,NA,NA,NA,NA,NA,NA
audio-instructions,9,121545,0.0-5.0-4.0,voc_e2,11911,"[{""event"":""focus"",""trial"":0,""time"":0},{""event"":""fullscreenenter"",""trial"":1,""time"":8292}]",NA,1723,static/audio/instructions5.wav,NA,0,NA,NA,NA,NA,NA,NA,NA,NA,NA,NA,NA,NA,NA,NA,NA,NA,NA,NA,NA,NA,NA,NA,NA,NA,NA
fcp-practice,10,124395,0.0-5.0-5.0-0.0,voc_e2,11911,"[{""event"":""focus"",""trial"":0,""time"":0},{""event"":""fullscreenenter"",""trial"":1,""time"":8292}]",NA,NA,NA,NA,NA,NA,#EDC948,#46d3c8,10,0,1,null,null,null,37,1,1301,10,1,practice,NA,NA,NA,NA,NA,NA,NA,NA,NA,NA
fcp-practice,11,126931,0.0-5.0-5.0-1.0,voc_e2,11911,"[{""event"":""focus"",""trial"":0,""time"":0},{""event"":""fullscreenenter"",""trial"":1,""time"":8292}]",NA,NA,NA,NA,NA,NA,#EDC948,#46d3c8,10,0,1,null,null,null,37,1,1014,10,1,practice,NA,NA,NA,NA,NA,NA,NA,NA,NA,NA
fcp-practice,12,129172,0.0-5.0-5.0-2.0,voc_e2,11911,"[{""event"":""focus"",""trial"":0,""time"":0},{""event"":""fullscreenenter"",""trial"":1,""time"":8292}]",NA,NA,NA,NA,NA,NA,#EDC948,#46d3c8,0,10,1,null,null,null,37,1,731,0,1,practice,NA,NA,NA,NA,NA,NA,NA,NA,NA,NA
fcp-practice,13,131204,0.0-5.0-5.0-3.0,voc_e2,11911,"[{""event"":""focus"",""trial"":0,""time"":0},{""event"":""fullscreenenter"",""trial"":1,""time"":8292}]",NA,NA,NA,NA,NA,NA,#EDC948,#46d3c8,10,0,1,null,null,null,37,1,519,10,1,practice,NA,NA,NA,NA,NA,NA,NA,NA,NA,NA
fcp-practice,14,133326,0.0-5.0-5.0-4.0,voc_e2,11911,"[{""event"":""focus"",""trial"":0,""time"":0},{""event"":""fullscreenenter"",""trial"":1,""time"":8292}]",NA,NA,NA,NA,NA,NA,#EDC948,#46d3c8,10,0,1,null,null,null,37,1,615,10,1,practice,NA,NA,NA,NA,NA,NA,NA,NA,NA,NA
audio-instructions,15,155479,0.0-5.0-6.0,voc_e2,11911,"[{""event"":""focus"",""trial"":0,""time"":0},{""event"":""fullscreenenter"",""trial"":1,""time"":8292}]",NA,4138,static/audio/instructions6.wav,NA,0,NA,NA,NA,NA,NA,NA,NA,NA,NA,NA,NA,NA,NA,NA,NA,NA,NA,NA,NA,NA,NA,NA,NA,NA,NA
audio-instructions,16,202957,0.0-5.0-7.0,voc_e2,11911,"[{""event"":""focus"",""trial"":0,""time"":0},{""event"":""fullscreenenter"",""trial"":1,""time"":8292}]",NA,28264,static/audio/instructions7.wav,NA,0,NA,NA,NA,NA,NA,NA,NA,NA,NA,NA,NA,NA,NA,NA,NA,NA,NA,NA,NA,NA,NA,NA,NA,NA,NA
audio-instructions,17,216152,0.0-5.0-8.0,voc_e2,11911,"[{""event"":""focus"",""trial"":0,""time"":0},{""event"":""fullscreenenter"",""trial"":1,""time"":8292}]",NA,3713,static/audio/instructions8.wav,NA,0,NA,NA,NA,NA,NA,NA,NA,NA,NA,NA,NA,NA,NA,NA,NA,NA,NA,NA,NA,NA,NA,NA,NA,NA,NA
fcp-comprehension,18,224471,0.0-5.0-9.0,voc_e2,11911,"[{""event"":""focus"",""trial"":0,""time"":0},{""event"":""fullscreenenter"",""trial"":1,""time"":8292}]",NA,8314,NA,NA,NA,NA,NA,NA,NA,NA,NA,NA,NA,NA,NA,NA,NA,NA,NA,NA,"true,true",0,NA,NA,NA,NA,NA,NA,NA,NA
audio-instructions,19,237847,0.0-6.0-0.0,voc_e2,11911,"[{""event"":""focus"",""trial"":0,""time"":0},{""event"":""fullscreenenter"",""trial"":1,""time"":8292}]",NA,7817,static/audio/instructions9.wav,NA,0,NA,NA,NA,NA,NA,NA,NA,NA,NA,NA,NA,NA,NA,NA,NA,NA,NA,NA,NA,NA,NA,NA,NA,NA,NA
audio-instructions,20,251593,0.0-6.0-1.0,voc_e2,11911,"[{""event"":""focus"",""trial"":0,""time"":0},{""event"":""fullscreenenter"",""trial"":1,""time"":8292}]",NA,1622,static/audio/instructions10.wav,NA,0,NA,NA,NA,NA,NA,NA,NA,NA,NA,NA,NA,NA,NA,NA,NA,NA,NA,NA,NA,NA,NA,NA,NA,NA,NA
fcp-trial,21,264087,0.0-6.0-2.0,voc_e2,11911,"[{""event"":""focus"",""trial"":0,""time"":0},{""event"":""fullscreenenter"",""trial"":1,""time"":8292}]",NA,NA,NA,NA,NA,0,#EDC948,#46d3c8,10,10,1,38,1,8752,37,1,2188,10,1,practice,NA,NA,NA,NA,NA,NA,NA,NA,NA,NA
audio-instructions,22,285480,0.0-6.0-3.0,voc_e2,11911,"[{""event"":""focus"",""trial"":0,""time"":0},{""event"":""fullscreenenter"",""trial"":1,""time"":8292}]",NA,10378,static/audio/instructions11.wav,NA,0,NA,NA,NA,NA,NA,NA,NA,NA,NA,NA,NA,NA,NA,NA,NA,NA,NA,NA,NA,NA,NA,NA,NA,NA,NA
fcp-trial,23,291132,0.0-6.0-4.0,voc_e2,11911,"[{""event"":""focus"",""trial"":0,""time"":0},{""event"":""fullscreenenter"",""trial"":1,""time"":8292}]",NA,NA,NA,NA,NA,6,#EDC948,#46d3c8,10,10,1,40,0,2724,37,1,1419,10,1,practice,NA,NA,NA,NA,NA,NA,NA,NA,NA,NA
audio-instructions,24,319090,0.0-6.0-5.0,voc_e2,11911,"[{""event"":""focus"",""trial"":0,""time"":0},{""event"":""fullscreenenter"",""trial"":1,""time"":8292}]",NA,9261,static/audio/instructions12.wav,NA,0,NA,NA,NA,NA,NA,NA,NA,NA,NA,NA,NA,NA,NA,NA,NA,NA,NA,NA,NA,NA,NA,NA,NA,NA,NA
audio-instructions,25,331014,0.0-6.0-6.0,voc_e2,11911,"[{""event"":""focus"",""trial"":0,""time"":0},{""event"":""fullscreenenter"",""trial"":1,""time"":8292}]",NA,4314,static/audio/instructions13.wav,NA,0,NA,NA,NA,NA,NA,NA,NA,NA,NA,NA,NA,NA,NA,NA,NA,NA,NA,NA,NA,NA,NA,NA,NA,NA,NA
audio-instructions,26,342828,0.0-6.0-7.0,voc_e2,11911,"[{""event"":""focus"",""trial"":0,""time"":0},{""event"":""fullscreenenter"",""trial"":1,""time"":8292}]",NA,3358,static/audio/instructions14.wav,NA,0,NA,NA,NA,NA,NA,NA,NA,NA,NA,NA,NA,NA,NA,NA,NA,NA,NA,NA,NA,NA,NA,NA,NA,NA,NA
audio-instructions,27,359502,0.0-7.0-0.0,voc_e2,11911,"[{""event"":""focus"",""trial"":0,""time"":0},{""event"":""fullscreenenter"",""trial"":1,""time"":8292}]",NA,9753,static/audio/instructions15.wav,NA,0,NA,NA,NA,NA,NA,NA,NA,NA,NA,NA,NA,NA,NA,NA,NA,NA,NA,NA,NA,NA,NA,NA,NA,NA,NA
audio-instructions,28,369222,0.0-7.0-1.0,voc_e2,11911,"[{""event"":""focus"",""trial"":0,""time"":0},{""event"":""fullscreenenter"",""trial"":1,""time"":8292}]",NA,2878,static/audio/instructions16.wav,NA,0,NA,NA,NA,NA,NA,NA,NA,NA,NA,NA,NA,NA,NA,NA,NA,NA,NA,NA,NA,NA,NA,NA,NA,NA,NA
audio-instructions,29,377996,0.0-7.0-2.0,voc_e2,11911,"[{""event"":""focus"",""trial"":0,""time"":0},{""event"":""fullscreenenter"",""trial"":1,""time"":8292}]",NA,1087,static/audio/instructions17.wav,NA,0,NA,NA,NA,NA,NA,NA,NA,NA,NA,NA,NA,NA,NA,NA,NA,NA,NA,NA,NA,NA,NA,NA,NA,NA,NA
audio-instructions,30,386188,0.0-7.0-3.0,voc_e2,11911,"[{""event"":""focus"",""trial"":0,""time"":0},{""event"":""fullscreenenter"",""trial"":1,""time"":8292}]",NA,418,static/audio/instructions18.wav,NA,0,NA,NA,NA,NA,NA,NA,NA,NA,NA,NA,NA,NA,NA,NA,NA,NA,NA,NA,NA,NA,NA,NA,NA,NA,NA
audio-instructions,31,393734,0.0-7.0-4.0,voc_e2,11911,"[{""event"":""focus"",""trial"":0,""time"":0},{""event"":""fullscreenenter"",""trial"":1,""time"":8292}]",NA,784,static/audio/instructions19.wav,NA,0,NA,NA,NA,NA,NA,NA,NA,NA,NA,NA,NA,NA,NA,NA,NA,NA,NA,NA,NA,NA,NA,NA,NA,NA,NA
fcp-comprehension,32,413513,0.0-7.0-5.0,voc_e2,11911,"[{""event"":""focus"",""trial"":0,""time"":0},{""event"":""fullscreenenter"",""trial"":1,""time"":8292}]",NA,19777,NA,NA,NA,NA,NA,NA,NA,NA,NA,NA,NA,NA,NA,NA,NA,NA,NA,NA,"false,true,false,true",1,NA,NA,NA,NA,NA,NA,NA,NA
audio-instructions,33,421536,0.0-7.1-0.1,voc_e2,11911,"[{""event"":""focus"",""trial"":0,""time"":0},{""event"":""fullscreenenter"",""trial"":1,""time"":8292}]",NA,1096,static/audio/instructions15.wav,NA,0,NA,NA,NA,NA,NA,NA,NA,NA,NA,NA,NA,NA,NA,NA,NA,NA,NA,NA,NA,NA,NA,NA,NA,NA,NA
audio-instructions,34,429404,0.0-7.1-1.1,voc_e2,11911,"[{""event"":""focus"",""trial"":0,""time"":0},{""event"":""fullscreenenter"",""trial"":1,""time"":8292}]",NA,1034,static/audio/instructions16.wav,NA,0,NA,NA,NA,NA,NA,NA,NA,NA,NA,NA,NA,NA,NA,NA,NA,NA,NA,NA,NA,NA,NA,NA,NA,NA,NA
audio-instructions,35,437572,0.0-7.1-2.1,voc_e2,11911,"[{""event"":""focus"",""trial"":0,""time"":0},{""event"":""fullscreenenter"",""trial"":1,""time"":8292}]",NA,481,static/audio/instructions17.wav,NA,0,NA,NA,NA,NA,NA,NA,NA,NA,NA,NA,NA,NA,NA,NA,NA,NA,NA,NA,NA,NA,NA,NA,NA,NA,NA
audio-instructions,36,445944,0.0-7.1-3.1,voc_e2,11911,"[{""event"":""focus"",""trial"":0,""time"":0},{""event"":""fullscreenenter"",""trial"":1,""time"":8292}]",NA,595,static/audio/instructions18.wav,NA,0,NA,NA,NA,NA,NA,NA,NA,NA,NA,NA,NA,NA,NA,NA,NA,NA,NA,NA,NA,NA,NA,NA,NA,NA,NA
audio-instructions,37,453229,0.0-7.1-4.1,voc_e2,11911,"[{""event"":""focus"",""trial"":0,""time"":0},{""event"":""fullscreenenter"",""trial"":1,""time"":8292}]",NA,529,static/audio/instructions19.wav,NA,0,NA,NA,NA,NA,NA,NA,NA,NA,NA,NA,NA,NA,NA,NA,NA,NA,NA,NA,NA,NA,NA,NA,NA,NA,NA
fcp-comprehension,38,466139,0.0-7.1-5.1,voc_e2,11911,"[{""event"":""focus"",""trial"":0,""time"":0},{""event"":""fullscreenenter"",""trial"":1,""time"":8292}]",NA,12907,NA,NA,NA,NA,NA,NA,NA,NA,NA,NA,NA,NA,NA,NA,NA,NA,NA,NA,"false,false,false,true",0,NA,NA,NA,NA,NA,NA,NA,NA
audio-instructions,39,490518,0.0-8.0,voc_e2,11911,"[{""event"":""focus"",""trial"":0,""time"":0},{""event"":""fullscreenenter"",""trial"":1,""time"":8292}]",NA,15147,static/audio/ready.wav,NA,0,NA,NA,NA,NA,NA,NA,NA,NA,NA,NA,NA,NA,NA,NA,NA,NA,NA,NA,NA,NA,NA,NA,NA,NA,NA
fcp-trial,40,496117,0.0-9.0-0.0,voc_e2,11911,"[{""event"":""focus"",""trial"":0,""time"":0},{""event"":""fullscreenenter"",""trial"":1,""time"":8292}]",NA,NA,NA,NA,NA,3,#3386FF,#D89F1C,0,10,0,40,0,3404,37,1,680,0,0,experiment,NA,NA,0,0.1,0.9,1,0,1,1,NA
fcp-trial,41,500850,0.0-10.0-0.0,voc_e2,11911,"[{""event"":""focus"",""trial"":0,""time"":0},{""event"":""fullscreenenter"",""trial"":1,""time"":8292}]",NA,NA,NA,NA,NA,3,#1CD855,#FA92F8,10,10,0,38,1,2141,37,1,1073,10,0,experiment,NA,NA,1,0.3,0.7,3,2,2,1,NA
fcp-trial,42,503874,0.0-11.0-0.0,voc_e2,11911,"[{""event"":""focus"",""trial"":0,""time"":0},{""event"":""fullscreenenter"",""trial"":1,""time"":8292}]",NA,NA,NA,NA,NA,0,#741CD8,#D8271C,10,0,1,38,1,1047,37,1,436,10,1,experiment,NA,NA,2,0.5,0.5,4,5,3,1,NA
fcp-trial,43,506335,0.0-12.0-0.0,voc_e2,11911,"[{""event"":""focus"",""trial"":0,""time"":0},{""event"":""fullscreenenter"",""trial"":1,""time"":8292}]",NA,NA,NA,NA,NA,6,#3386FF,#D89F1C,0,10,0,38,1,519,37,1,419,0,0,experiment,NA,NA,0,0.1,0.9,1,0,4,1,NA
fcp-trial,44,509371,0.0-13.0-0.0,voc_e2,11911,"[{""event"":""focus"",""trial"":0,""time"":0},{""event"":""fullscreenenter"",""trial"":1,""time"":8292}]",NA,NA,NA,NA,NA,0,#D89F1C,#3386FF,10,10,1,38,1,1030,37,1,482,10,1,experiment,NA,NA,0,0.9,0.1,0,1,5,1,NA
fcp-trial,45,512733,0.0-14.0-0.0,voc_e2,11911,"[{""event"":""focus"",""trial"":0,""time"":0},{""event"":""fullscreenenter"",""trial"":1,""time"":8292}]",NA,NA,NA,NA,NA,6,#1CD855,#FA92F8,10,0,0,38,1,1392,37,1,438,10,0,experiment,NA,NA,1,0.3,0.7,3,2,6,1,NA
fcp-trial,46,516456,0.0-15.0-0.0,voc_e2,11911,"[{""event"":""focus"",""trial"":0,""time"":0},{""event"":""fullscreenenter"",""trial"":1,""time"":8292}]",NA,NA,NA,NA,NA,6,#D8271C,#741CD8,0,10,0,38,1,1050,37,1,1149,0,0,experiment,NA,NA,2,0.5,0.5,5,4,7,1,NA
fcp-trial,47,520077,0.0-16.0-0.0,voc_e2,11911,"[{""event"":""focus"",""trial"":0,""time"":0},{""event"":""fullscreenenter"",""trial"":1,""time"":8292}]",NA,NA,NA,NA,NA,4,#D89F1C,#3386FF,10,0,1,38,1,1706,37,1,391,10,1,experiment,NA,NA,0,0.9,0.1,0,1,8,1,NA
fcp-trial,48,523584,0.0-17.0-0.0,voc_e2,11911,"[{""event"":""focus"",""trial"":0,""time"":0},{""event"":""fullscreenenter"",""trial"":1,""time"":8292}]",NA,NA,NA,NA,NA,1,#741CD8,#D8271C,0,10,1,40,0,1004,39,0,987,10,0,experiment,NA,NA,2,0.5,0.5,4,5,9,1,NA
fcp-trial,49,526763,0.0-18.0-0.0,voc_e2,11911,"[{""event"":""focus"",""trial"":0,""time"":0},{""event"":""fullscreenenter"",""trial"":1,""time"":8292}]",NA,NA,NA,NA,NA,5,#FA92F8,#1CD855,10,0,1,40,0,995,39,0,669,0,0,experiment,NA,NA,1,0.7,0.3,2,3,10,1,NA
fcp-trial,50,530137,0.0-19.0-0.0,voc_e2,11911,"[{""event"":""focus"",""trial"":0,""time"":0},{""event"":""fullscreenenter"",""trial"":1,""time"":8292}]",NA,NA,NA,NA,NA,4,#D8271C,#741CD8,10,10,0,40,0,1281,37,1,564,10,0,experiment,NA,NA,2,0.5,0.5,5,4,11,1,NA
fcp-trial,51,533053,0.0-20.0-0.0,voc_e2,11911,"[{""event"":""focus"",""trial"":0,""time"":0},{""event"":""fullscreenenter"",""trial"":1,""time"":8292}]",NA,NA,NA,NA,NA,5,#3386FF,#D89F1C,0,10,0,40,0,864,37,1,502,0,0,experiment,NA,NA,0,0.1,0.9,1,0,12,1,NA
fcp-trial,52,536457,0.0-21.0-0.0,voc_e2,11911,"[{""event"":""focus"",""trial"":0,""time"":0},{""event"":""fullscreenenter"",""trial"":1,""time"":8292}]",NA,NA,NA,NA,NA,2,#D8271C,#741CD8,0,0,0,38,1,1166,39,0,732,0,1,experiment,NA,NA,2,0.5,0.5,5,4,13,1,NA
fcp-trial,53,541991,0.0-22.0-0.0,voc_e2,11911,"[{""event"":""focus"",""trial"":0,""time"":0},{""event"":""fullscreenenter"",""trial"":1,""time"":8292}]",NA,NA,NA,NA,NA,1,#FA92F8,#1CD855,10,10,1,40,0,3034,39,0,853,10,0,experiment,NA,NA,1,0.7,0.3,2,3,14,1,NA
fcp-trial,54,544110,0.0-23.0-0.0,voc_e2,11911,"[{""event"":""focus"",""trial"":0,""time"":0},{""event"":""fullscreenenter"",""trial"":1,""time"":8292}]",NA,NA,NA,NA,NA,2,#3386FF,#D89F1C,0,10,0,40,0,26,39,0,563,10,1,experiment,NA,NA,0,0.1,0.9,1,0,15,1,NA
fcp-trial,55,546365,0.0-24.0-0.0,voc_e2,11911,"[{""event"":""focus"",""trial"":0,""time"":0},{""event"":""fullscreenenter"",""trial"":1,""time"":8292}]",NA,NA,NA,NA,NA,4,#1CD855,#FA92F8,0,10,0,40,0,63,37,1,657,0,0,experiment,NA,NA,1,0.3,0.7,3,2,16,1,NA
fcp-trial,56,548269,0.0-25.0-0.0,voc_e2,11911,"[{""event"":""focus"",""trial"":0,""time"":0},{""event"":""fullscreenenter"",""trial"":1,""time"":8292}]",NA,NA,NA,NA,NA,3,#D8271C,#741CD8,0,0,0,40,0,39,39,0,336,0,1,experiment,NA,NA,2,0.5,0.5,5,4,17,1,NA
fcp-trial,57,550293,0.0-26.0-0.0,voc_e2,11911,"[{""event"":""focus"",""trial"":0,""time"":0},{""event"":""fullscreenenter"",""trial"":1,""time"":8292}]",NA,NA,NA,NA,NA,5,#D8271C,#741CD8,10,10,0,40,0,244,37,1,260,10,0,experiment,NA,NA,2,0.5,0.5,5,4,18,1,NA
fcp-trial,58,552889,0.0-27.0-0.0,voc_e2,11911,"[{""event"":""focus"",""trial"":0,""time"":0},{""event"":""fullscreenenter"",""trial"":1,""time"":8292}]",NA,NA,NA,NA,NA,1,#D89F1C,#3386FF,10,0,1,40,0,439,37,1,625,10,1,experiment,NA,NA,0,0.9,0.1,0,1,19,1,NA
fcp-trial,59,556092,0.0-28.0-0.0,voc_e2,11911,"[{""event"":""focus"",""trial"":0,""time"":0},{""event"":""fullscreenenter"",""trial"":1,""time"":8292}]",NA,NA,NA,NA,NA,2,#1CD855,#FA92F8,10,10,0,40,0,336,37,1,1334,10,0,experiment,NA,NA,1,0.3,0.7,3,2,20,1,NA
fcp-trial,60,558886,0.0-29.0-0.0,voc_e2,11911,"[{""event"":""focus"",""trial"":0,""time"":0},{""event"":""fullscreenenter"",""trial"":1,""time"":8292}]",NA,NA,NA,NA,NA,0,#1CD855,#FA92F8,10,0,0,40,0,479,37,1,796,10,0,experiment,NA,NA,1,0.3,0.7,3,2,21,1,NA
fcp-trial,61,560873,0.0-30.0-0.0,voc_e2,11911,"[{""event"":""focus"",""trial"":0,""time"":0},{""event"":""fullscreenenter"",""trial"":1,""time"":8292}]",NA,NA,NA,NA,NA,5,#D8271C,#741CD8,10,0,0,40,0,36,37,1,294,10,0,experiment,NA,NA,2,0.5,0.5,5,4,22,1,NA
fcp-trial,62,563371,0.0-31.0-0.0,voc_e2,11911,"[{""event"":""focus"",""trial"":0,""time"":0},{""event"":""fullscreenenter"",""trial"":1,""time"":8292}]",NA,NA,NA,NA,NA,3,#1CD855,#FA92F8,10,0,0,40,0,162,39,0,736,0,1,experiment,NA,NA,1,0.3,0.7,3,2,23,1,NA
fcp-trial,63,565369,0.0-32.0-0.0,voc_e2,11911,"[{""event"":""focus"",""trial"":0,""time"":0},{""event"":""fullscreenenter"",""trial"":1,""time"":8292}]",NA,NA,NA,NA,NA,4,#741CD8,#D8271C,0,0,1,40,0,86,37,1,388,0,1,experiment,NA,NA,2,0.5,0.5,4,5,24,1,NA
fcp-trial,64,567540,0.0-33.0-0.0,voc_e2,11911,"[{""event"":""focus"",""trial"":0,""time"":0},{""event"":""fullscreenenter"",""trial"":1,""time"":8292}]",NA,NA,NA,NA,NA,3,#3386FF,#D89F1C,0,10,0,40,0,181,37,1,454,0,0,experiment,NA,NA,0,0.1,0.9,1,0,25,1,NA
fcp-trial,65,569369,0.0-34.0-0.0,voc_e2,11911,"[{""event"":""focus"",""trial"":0,""time"":0},{""event"":""fullscreenenter"",""trial"":1,""time"":8292}]",NA,NA,NA,NA,NA,5,#FA92F8,#1CD855,10,0,1,40,0,32,37,1,256,10,1,experiment,NA,NA,1,0.7,0.3,2,3,26,1,NA
fcp-trial,66,571223,0.0-35.0-0.0,voc_e2,11911,"[{""event"":""focus"",""trial"":0,""time"":0},{""event"":""fullscreenenter"",""trial"":1,""time"":8292}]",NA,NA,NA,NA,NA,0,#741CD8,#D8271C,10,10,1,40,0,50,39,0,284,10,0,experiment,NA,NA,2,0.5,0.5,4,5,27,1,NA
fcp-trial,67,573387,0.0-36.0-0.0,voc_e2,11911,"[{""event"":""focus"",""trial"":0,""time"":0},{""event"":""fullscreenenter"",""trial"":1,""time"":8292}]",NA,NA,NA,NA,NA,0,#D89F1C,#3386FF,10,0,1,40,0,91,37,1,524,10,1,experiment,NA,NA,0,0.9,0.1,0,1,28,1,NA
fcp-trial,68,575337,0.0-37.0-0.0,voc_e2,11911,"[{""event"":""focus"",""trial"":0,""time"":0},{""event"":""fullscreenenter"",""trial"":1,""time"":8292}]",NA,NA,NA,NA,NA,4,#D89F1C,#3386FF,10,0,1,40,0,0,37,1,406,10,1,experiment,NA,NA,0,0.9,0.1,0,1,29,1,NA
fcp-trial,69,577296,0.0-38.0-0.0,voc_e2,11911,"[{""event"":""focus"",""trial"":0,""time"":0},{""event"":""fullscreenenter"",""trial"":1,""time"":8292}]",NA,NA,NA,NA,NA,4,#1CD855,#FA92F8,0,10,0,40,0,168,39,0,271,10,1,experiment,NA,NA,1,0.3,0.7,3,2,30,1,NA
fcp-trial,70,579382,0.0-39.0-0.0,voc_e2,11911,"[{""event"":""focus"",""trial"":0,""time"":0},{""event"":""fullscreenenter"",""trial"":1,""time"":8292}]",NA,NA,NA,NA,NA,2,#741CD8,#D8271C,10,10,1,40,0,51,37,1,510,10,1,experiment,NA,NA,2,0.5,0.5,4,5,31,1,NA
fcp-trial,71,581431,0.0-40.0-0.0,voc_e2,11911,"[{""event"":""focus"",""trial"":0,""time"":0},{""event"":""fullscreenenter"",""trial"":1,""time"":8292}]",NA,NA,NA,NA,NA,1,#741CD8,#D8271C,10,0,1,40,0,131,37,1,386,10,1,experiment,NA,NA,2,0.5,0.5,4,5,32,1,NA
fcp-trial,72,583608,0.0-41.0-0.0,voc_e2,11911,"[{""event"":""focus"",""trial"":0,""time"":0},{""event"":""fullscreenenter"",""trial"":1,""time"":8292}]",NA,NA,NA,NA,NA,2,#FA92F8,#1CD855,0,10,1,40,0,206,39,0,453,10,0,experiment,NA,NA,1,0.7,0.3,2,3,33,1,NA
fcp-trial,73,585458,0.0-42.0-0.0,voc_e2,11911,"[{""event"":""focus"",""trial"":0,""time"":0},{""event"":""fullscreenenter"",""trial"":1,""time"":8292}]",NA,NA,NA,NA,NA,1,#3386FF,#D89F1C,0,10,0,40,0,80,39,0,263,10,1,experiment,NA,NA,0,0.1,0.9,1,0,34,1,NA
fcp-trial,74,587478,0.0-43.0-0.0,voc_e2,11911,"[{""event"":""focus"",""trial"":0,""time"":0},{""event"":""fullscreenenter"",""trial"":1,""time"":8292}]",NA,NA,NA,NA,NA,3,#D8271C,#741CD8,0,0,0,40,0,159,37,1,336,0,0,experiment,NA,NA,2,0.5,0.5,5,4,35,1,NA
fcp-trial,75,589631,0.0-44.0-0.0,voc_e2,11911,"[{""event"":""focus"",""trial"":0,""time"":0},{""event"":""fullscreenenter"",""trial"":1,""time"":8292}]",NA,NA,NA,NA,NA,0,#1CD855,#FA92F8,0,10,0,40,0,154,37,1,476,0,0,experiment,NA,NA,1,0.3,0.7,3,2,36,1,NA
fcp-trial,76,591717,0.0-45.0-0.0,voc_e2,11911,"[{""event"":""focus"",""trial"":0,""time"":0},{""event"":""fullscreenenter"",""trial"":1,""time"":8292}]",NA,NA,NA,NA,NA,1,#FA92F8,#1CD855,0,0,1,40,0,266,37,1,291,0,1,experiment,NA,NA,1,0.7,0.3,2,3,37,1,NA
fcp-trial,77,593713,0.0-46.0-0.0,voc_e2,11911,"[{""event"":""focus"",""trial"":0,""time"":0},{""event"":""fullscreenenter"",""trial"":1,""time"":8292}]",NA,NA,NA,NA,NA,5,#3386FF,#D89F1C,0,10,0,40,0,196,39,0,278,10,1,experiment,NA,NA,0,0.1,0.9,1,0,38,1,NA
fcp-trial,78,597537,0.0-47.0-0.0,voc_e2,11911,"[{""event"":""focus"",""trial"":0,""time"":0},{""event"":""fullscreenenter"",""trial"":1,""time"":8292}]",NA,NA,NA,NA,NA,6,#D8271C,#741CD8,0,0,0,40,0,103,37,1,2200,0,0,experiment,NA,NA,2,0.5,0.5,5,4,39,1,NA
fcp-trial,79,599675,0.0-48.0-0.0,voc_e2,11911,"[{""event"":""focus"",""trial"":0,""time"":0},{""event"":""fullscreenenter"",""trial"":1,""time"":8292}]",NA,NA,NA,NA,NA,6,#3386FF,#D89F1C,0,10,0,40,0,304,39,0,304,10,1,experiment,NA,NA,0,0.1,0.9,1,0,40,1,NA
fcp-trial,80,601688,0.0-49.0-0.0,voc_e2,11911,"[{""event"":""focus"",""trial"":0,""time"":0},{""event"":""fullscreenenter"",""trial"":1,""time"":8292}]",NA,NA,NA,NA,NA,6,#1CD855,#FA92F8,0,0,0,40,0,32,37,1,455,0,0,experiment,NA,NA,1,0.3,0.7,3,2,41,1,NA
fcp-trial,81,603969,0.0-50.0-0.0,voc_e2,11911,"[{""event"":""focus"",""trial"":0,""time"":0},{""event"":""fullscreenenter"",""trial"":1,""time"":8292}]",NA,NA,NA,NA,NA,2,#3386FF,#D89F1C,0,10,0,40,0,329,39,0,413,10,1,experiment,NA,NA,0,0.1,0.9,1,0,42,1,NA
fcp-trial,82,606035,0.0-51.0-0.0,voc_e2,11911,"[{""event"":""focus"",""trial"":0,""time"":0},{""event"":""fullscreenenter"",""trial"":1,""time"":8292}]",NA,NA,NA,NA,NA,3,#FA92F8,#1CD855,10,0,1,40,0,187,39,0,353,0,0,experiment,NA,NA,1,0.7,0.3,2,3,43,1,NA
fcp-trial,83,608514,0.0-52.0-0.0,voc_e2,11911,"[{""event"":""focus"",""trial"":0,""time"":0},{""event"":""fullscreenenter"",""trial"":1,""time"":8292}]",NA,NA,NA,NA,NA,5,#3386FF,#D89F1C,0,10,0,40,0,361,37,1,599,0,0,experiment,NA,NA,0,0.1,0.9,1,0,44,1,NA
fcp-trial,84,610511,0.0-53.0-0.0,voc_e2,11911,"[{""event"":""focus"",""trial"":0,""time"":0},{""event"":""fullscreenenter"",""trial"":1,""time"":8292}]",NA,NA,NA,NA,NA,1,#FA92F8,#1CD855,10,0,1,40,0,32,37,1,440,10,1,experiment,NA,NA,1,0.7,0.3,2,3,45,1,NA
fcp-trial,85,612673,0.0-54.0-0.0,voc_e2,11911,"[{""event"":""focus"",""trial"":0,""time"":0},{""event"":""fullscreenenter"",""trial"":1,""time"":8292}]",NA,NA,NA,NA,NA,3,#3386FF,#D89F1C,0,10,0,40,0,275,37,1,371,0,0,experiment,NA,NA,0,0.1,0.9,1,0,46,2,NA
fcp-trial,86,614946,0.0-55.0-0.0,voc_e2,11911,"[{""event"":""focus"",""trial"":0,""time"":0},{""event"":""fullscreenenter"",""trial"":1,""time"":8292}]",NA,NA,NA,NA,NA,3,#D8271C,#741CD8,0,10,0,40,0,201,37,1,536,0,0,experiment,NA,NA,2,0.5,0.5,5,4,47,2,NA
fcp-trial,87,617351,0.0-56.0-0.0,voc_e2,11911,"[{""event"":""focus"",""trial"":0,""time"":0},{""event"":""fullscreenenter"",""trial"":1,""time"":8292}]",NA,NA,NA,NA,NA,0,#3386FF,#D89F1C,0,10,0,40,0,464,39,0,421,10,1,experiment,NA,NA,0,0.1,0.9,1,0,48,2,NA
fcp-trial,88,632737,0.0-57.0-0.0,voc_e2,11911,"[{""event"":""focus"",""trial"":0,""time"":0},{""event"":""fullscreenenter"",""trial"":1,""time"":8292},{""event"":""fullscreenexit"",""trial"":88,""time"":627462},{""event"":""blur"",""trial"":88,""time"":630223},{""event"":""focus"",""trial"":88,""time"":631162}]",NA,NA,NA,NA,NA,2,#D8271C,#741CD8,0,10,0,40,0,115,null,null,null,NA,0,experiment,NA,NA,2,0.5,0.5,5,4,49,2,NA
fcp-trial,89,635274,0.0-58.0-0.0,voc_e2,11911,"[{""event"":""focus"",""trial"":0,""time"":0},{""event"":""fullscreenenter"",""trial"":1,""time"":8292},{""event"":""fullscreenexit"",""trial"":88,""time"":627462},{""event"":""blur"",""trial"":88,""time"":630223},{""event"":""focus"",""trial"":88,""time"":631162}]",NA,NA,NA,NA,NA,6,#1CD855,#FA92F8,10,0,0,40,0,82,37,1,806,10,0,experiment,NA,NA,1,0.3,0.7,3,2,50,2,NA
fcp-trial,90,637283,0.0-59.0-0.0,voc_e2,11911,"[{""event"":""focus"",""trial"":0,""time"":0},{""event"":""fullscreenenter"",""trial"":1,""time"":8292},{""event"":""fullscreenexit"",""trial"":88,""time"":627462},{""event"":""blur"",""trial"":88,""time"":630223},{""event"":""focus"",""trial"":88,""time"":631162},{""event"":""blur"",""trial"":90,""time"":637044}]",NA,NA,NA,NA,NA,4,#3386FF,#D89F1C,0,10,0,40,0,23,37,1,424,0,0,experiment,NA,NA,0,0.1,0.9,1,0,51,2,NA
fcp-trial,91,652377,0.0-60.0-0.0,voc_e2,11911,"[{""event"":""focus"",""trial"":0,""time"":0},{""event"":""fullscreenenter"",""trial"":1,""time"":8292},{""event"":""fullscreenexit"",""trial"":88,""time"":627462},{""event"":""blur"",""trial"":88,""time"":630223},{""event"":""focus"",""trial"":88,""time"":631162},{""event"":""blur"",""trial"":90,""time"":637044},{""event"":""focus"",""trial"":91,""time"":646292}]",NA,NA,NA,NA,NA,1,#741CD8,#D8271C,0,0,1,null,null,null,null,null,null,NA,0,experiment,NA,NA,2,0.5,0.5,4,5,52,2,NA
fcp-trial,92,654245,0.0-61.0-0.0,voc_e2,11911,"[{""event"":""focus"",""trial"":0,""time"":0},{""event"":""fullscreenenter"",""trial"":1,""time"":8292},{""event"":""fullscreenexit"",""trial"":88,""time"":627462},{""event"":""blur"",""trial"":88,""time"":630223},{""event"":""focus"",""trial"":88,""time"":631162},{""event"":""blur"",""trial"":90,""time"":637044},{""event"":""focus"",""trial"":91,""time"":646292}]",NA,NA,NA,NA,NA,5,#D8271C,#741CD8,0,0,0,40,0,80,39,0,258,0,1,experiment,NA,NA,2,0.5,0.5,5,4,53,2,NA
fcp-trial,93,656229,0.0-62.0-0.0,voc_e2,11911,"[{""event"":""focus"",""trial"":0,""time"":0},{""event"":""fullscreenenter"",""trial"":1,""time"":8292},{""event"":""fullscreenexit"",""trial"":88,""time"":627462},{""event"":""blur"",""trial"":88,""time"":630223},{""event"":""focus"",""trial"":88,""time"":631162},{""event"":""blur"",""trial"":90,""time"":637044},{""event"":""focus"",""trial"":91,""time"":646292}]",NA,NA,NA,NA,NA,1,#D89F1C,#3386FF,10,0,1,40,0,188,37,1,284,10,1,experiment,NA,NA,0,0.9,0.1,0,1,54,2,NA
fcp-trial,94,658423,0.0-63.0-0.0,voc_e2,11911,"[{""event"":""focus"",""trial"":0,""time"":0},{""event"":""fullscreenenter"",""trial"":1,""time"":8292},{""event"":""fullscreenexit"",""trial"":88,""time"":627462},{""event"":""blur"",""trial"":88,""time"":630223},{""event"":""focus"",""trial"":88,""time"":631162},{""event"":""blur"",""trial"":90,""time"":637044},{""event"":""focus"",""trial"":91,""time"":646292}]",NA,NA,NA,NA,NA,2,#1CD855,#FA92F8,0,10,0,40,0,140,39,0,504,10,1,experiment,NA,NA,1,0.3,0.7,3,2,55,2,NA
fcp-trial,95,660374,0.0-64.0-0.0,voc_e2,11911,"[{""event"":""focus"",""trial"":0,""time"":0},{""event"":""fullscreenenter"",""trial"":1,""time"":8292},{""event"":""fullscreenexit"",""trial"":88,""time"":627462},{""event"":""blur"",""trial"":88,""time"":630223},{""event"":""focus"",""trial"":88,""time"":631162},{""event"":""blur"",""trial"":90,""time"":637044},{""event"":""focus"",""trial"":91,""time"":646292}]",NA,NA,NA,NA,NA,4,#741CD8,#D8271C,10,10,1,40,0,152,37,1,268,10,1,experiment,NA,NA,2,0.5,0.5,4,5,56,2,NA
fcp-trial,96,662613,0.0-65.0-0.0,voc_e2,11911,"[{""event"":""focus"",""trial"":0,""time"":0},{""event"":""fullscreenenter"",""trial"":1,""time"":8292},{""event"":""fullscreenexit"",""trial"":88,""time"":627462},{""event"":""blur"",""trial"":88,""time"":630223},{""event"":""focus"",""trial"":88,""time"":631162},{""event"":""blur"",""trial"":90,""time"":637044},{""event"":""focus"",""trial"":91,""time"":646292}]",NA,NA,NA,NA,NA,0,#1CD855,#FA92F8,0,0,0,40,0,223,39,0,491,0,1,experiment,NA,NA,1,0.3,0.7,3,2,57,2,NA
fcp-trial,97,664865,0.0-66.0-0.0,voc_e2,11911,"[{""event"":""focus"",""trial"":0,""time"":0},{""event"":""fullscreenenter"",""trial"":1,""time"":8292},{""event"":""fullscreenexit"",""trial"":88,""time"":627462},{""event"":""blur"",""trial"":88,""time"":630223},{""event"":""focus"",""trial"":88,""time"":631162},{""event"":""blur"",""trial"":90,""time"":637044},{""event"":""focus"",""trial"":91,""time"":646292}]",NA,NA,NA,NA,NA,0,#741CD8,#D8271C,10,10,1,40,0,260,37,1,465,10,1,experiment,NA,NA,2,0.5,0.5,4,5,58,2,NA
fcp-trial,98,667069,0.0-67.0-0.0,voc_e2,11911,"[{""event"":""focus"",""trial"":0,""time"":0},{""event"":""fullscreenenter"",""trial"":1,""time"":8292},{""event"":""fullscreenexit"",""trial"":88,""time"":627462},{""event"":""blur"",""trial"":88,""time"":630223},{""event"":""focus"",""trial"":88,""time"":631162},{""event"":""blur"",""trial"":90,""time"":637044},{""event"":""focus"",""trial"":91,""time"":646292}]",NA,NA,NA,NA,NA,6,#3386FF,#D89F1C,0,10,0,40,0,232,37,1,448,0,0,experiment,NA,NA,0,0.1,0.9,1,0,59,2,NA
fcp-trial,99,669148,0.0-68.0-0.0,voc_e2,11911,"[{""event"":""focus"",""trial"":0,""time"":0},{""event"":""fullscreenenter"",""trial"":1,""time"":8292},{""event"":""fullscreenexit"",""trial"":88,""time"":627462},{""event"":""blur"",""trial"":88,""time"":630223},{""event"":""focus"",""trial"":88,""time"":631162},{""event"":""blur"",""trial"":90,""time"":637044},{""event"":""focus"",""trial"":91,""time"":646292}]",NA,NA,NA,NA,NA,2,#3386FF,#D89F1C,10,10,0,40,0,180,39,0,382,10,1,experiment,NA,NA,0,0.1,0.9,1,0,60,2,NA
fcp-trial,100,671389,0.0-69.0-0.0,voc_e2,11911,"[{""event"":""focus"",""trial"":0,""time"":0},{""event"":""fullscreenenter"",""trial"":1,""time"":8292},{""event"":""fullscreenexit"",""trial"":88,""time"":627462},{""event"":""blur"",""trial"":88,""time"":630223},{""event"":""focus"",""trial"":88,""time"":631162},{""event"":""blur"",""trial"":90,""time"":637044},{""event"":""focus"",""trial"":91,""time"":646292}]",NA,NA,NA,NA,NA,5,#FA92F8,#1CD855,10,0,1,40,0,327,39,0,388,0,0,experiment,NA,NA,1,0.7,0.3,2,3,61,2,NA
fcp-trial,101,674093,0.0-70.0-0.0,voc_e2,11911,"[{""event"":""focus"",""trial"":0,""time"":0},{""event"":""fullscreenenter"",""trial"":1,""time"":8292},{""event"":""fullscreenexit"",""trial"":88,""time"":627462},{""event"":""blur"",""trial"":88,""time"":630223},{""event"":""focus"",""trial"":88,""time"":631162},{""event"":""blur"",""trial"":90,""time"":637044},{""event"":""focus"",""trial"":91,""time"":646292}]",NA,NA,NA,NA,NA,4,#FA92F8,#1CD855,10,10,1,40,0,620,39,0,437,10,0,experiment,NA,NA,1,0.7,0.3,2,3,62,2,NA
fcp-trial,102,679068,0.0-71.0-0.0,voc_e2,11911,"[{""event"":""focus"",""trial"":0,""time"":0},{""event"":""fullscreenenter"",""trial"":1,""time"":8292},{""event"":""fullscreenexit"",""trial"":88,""time"":627462},{""event"":""blur"",""trial"":88,""time"":630223},{""event"":""focus"",""trial"":88,""time"":631162},{""event"":""blur"",""trial"":90,""time"":637044},{""event"":""focus"",""trial"":91,""time"":646292}]",NA,NA,NA,NA,NA,6,#D8271C,#741CD8,10,0,0,40,0,2716,39,0,729,0,1,experiment,NA,NA,2,0.5,0.5,5,4,63,2,NA
fcp-trial,103,682418,0.0-72.0-0.0,voc_e2,11911,"[{""event"":""focus"",""trial"":0,""time"":0},{""event"":""fullscreenenter"",""trial"":1,""time"":8292},{""event"":""fullscreenexit"",""trial"":88,""time"":627462},{""event"":""blur"",""trial"":88,""time"":630223},{""event"":""focus"",""trial"":88,""time"":631162},{""event"":""blur"",""trial"":90,""time"":637044},{""event"":""focus"",""trial"":91,""time"":646292}]",NA,NA,NA,NA,NA,0,#741CD8,#D8271C,10,10,1,38,1,1245,37,1,577,10,1,experiment,NA,NA,2,0.5,0.5,4,5,64,2,NA
fcp-trial,104,685703,0.0-73.0-0.0,voc_e2,11911,"[{""event"":""focus"",""trial"":0,""time"":0},{""event"":""fullscreenenter"",""trial"":1,""time"":8292},{""event"":""fullscreenexit"",""trial"":88,""time"":627462},{""event"":""blur"",""trial"":88,""time"":630223},{""event"":""focus"",""trial"":88,""time"":631162},{""event"":""blur"",""trial"":90,""time"":637044},{""event"":""focus"",""trial"":91,""time"":646292}]",NA,NA,NA,NA,NA,5,#3386FF,#D89F1C,0,10,0,38,1,1126,39,0,644,10,1,experiment,NA,NA,0,0.1,0.9,1,0,65,2,NA
fcp-trial,105,688521,0.0-74.0-0.0,voc_e2,11911,"[{""event"":""focus"",""trial"":0,""time"":0},{""event"":""fullscreenenter"",""trial"":1,""time"":8292},{""event"":""fullscreenexit"",""trial"":88,""time"":627462},{""event"":""blur"",""trial"":88,""time"":630223},{""event"":""focus"",""trial"":88,""time"":631162},{""event"":""blur"",""trial"":90,""time"":637044},{""event"":""focus"",""trial"":91,""time"":646292}]",NA,NA,NA,NA,NA,4,#FA92F8,#1CD855,0,0,1,40,0,867,37,1,426,0,1,experiment,NA,NA,1,0.7,0.3,2,3,66,2,NA
fcp-trial,106,690979,0.0-75.0-0.0,voc_e2,11911,"[{""event"":""focus"",""trial"":0,""time"":0},{""event"":""fullscreenenter"",""trial"":1,""time"":8292},{""event"":""fullscreenexit"",""trial"":88,""time"":627462},{""event"":""blur"",""trial"":88,""time"":630223},{""event"":""focus"",""trial"":88,""time"":631162},{""event"":""blur"",""trial"":90,""time"":637044},{""event"":""focus"",""trial"":91,""time"":646292}]",NA,NA,NA,NA,NA,4,#3386FF,#D89F1C,0,10,0,40,0,513,39,0,410,10,1,experiment,NA,NA,0,0.1,0.9,1,0,67,2,NA
fcp-trial,107,693452,0.0-76.0-0.0,voc_e2,11911,"[{""event"":""focus"",""trial"":0,""time"":0},{""event"":""fullscreenenter"",""trial"":1,""time"":8292},{""event"":""fullscreenexit"",""trial"":88,""time"":627462},{""event"":""blur"",""trial"":88,""time"":630223},{""event"":""focus"",""trial"":88,""time"":631162},{""event"":""blur"",""trial"":90,""time"":637044},{""event"":""focus"",""trial"":91,""time"":646292}]",NA,NA,NA,NA,NA,4,#D8271C,#741CD8,10,10,0,40,0,560,37,1,396,10,0,experiment,NA,NA,2,0.5,0.5,5,4,68,2,NA
fcp-trial,108,696233,0.0-77.0-0.0,voc_e2,11911,"[{""event"":""focus"",""trial"":0,""time"":0},{""event"":""fullscreenenter"",""trial"":1,""time"":8292},{""event"":""fullscreenexit"",""trial"":88,""time"":627462},{""event"":""blur"",""trial"":88,""time"":630223},{""event"":""focus"",""trial"":88,""time"":631162},{""event"":""blur"",""trial"":90,""time"":637044},{""event"":""focus"",""trial"":91,""time"":646292}]",NA,NA,NA,NA,NA,2,#3386FF,#D89F1C,0,10,0,38,1,911,39,0,354,10,1,experiment,NA,NA,0,0.1,0.9,1,0,69,2,NA
fcp-trial,109,698835,0.0-78.0-0.0,voc_e2,11911,"[{""event"":""focus"",""trial"":0,""time"":0},{""event"":""fullscreenenter"",""trial"":1,""time"":8292},{""event"":""fullscreenexit"",""trial"":88,""time"":627462},{""event"":""blur"",""trial"":88,""time"":630223},{""event"":""focus"",""trial"":88,""time"":631162},{""event"":""blur"",""trial"":90,""time"":637044},{""event"":""focus"",""trial"":91,""time"":646292}]",NA,NA,NA,NA,NA,5,#FA92F8,#1CD855,10,10,1,40,0,664,39,0,413,10,0,experiment,NA,NA,1,0.7,0.3,2,3,70,2,NA
fcp-trial,110,701804,0.0-79.0-0.0,voc_e2,11911,"[{""event"":""focus"",""trial"":0,""time"":0},{""event"":""fullscreenenter"",""trial"":1,""time"":8292},{""event"":""fullscreenexit"",""trial"":88,""time"":627462},{""event"":""blur"",""trial"":88,""time"":630223},{""event"":""focus"",""trial"":88,""time"":631162},{""event"":""blur"",""trial"":90,""time"":637044},{""event"":""focus"",""trial"":91,""time"":646292}]",NA,NA,NA,NA,NA,1,#1CD855,#FA92F8,0,10,0,38,1,952,37,1,498,0,0,experiment,NA,NA,1,0.3,0.7,3,2,71,2,NA
fcp-trial,111,704454,0.0-80.0-0.0,voc_e2,11911,"[{""event"":""focus"",""trial"":0,""time"":0},{""event"":""fullscreenenter"",""trial"":1,""time"":8292},{""event"":""fullscreenexit"",""trial"":88,""time"":627462},{""event"":""blur"",""trial"":88,""time"":630223},{""event"":""focus"",""trial"":88,""time"":631162},{""event"":""blur"",""trial"":90,""time"":637044},{""event"":""focus"",""trial"":91,""time"":646292}]",NA,NA,NA,NA,NA,5,#741CD8,#D8271C,10,10,1,40,0,805,39,0,320,10,0,experiment,NA,NA,2,0.5,0.5,4,5,72,2,NA
fcp-trial,112,707275,0.0-81.0-0.0,voc_e2,11911,"[{""event"":""focus"",""trial"":0,""time"":0},{""event"":""fullscreenenter"",""trial"":1,""time"":8292},{""event"":""fullscreenexit"",""trial"":88,""time"":627462},{""event"":""blur"",""trial"":88,""time"":630223},{""event"":""focus"",""trial"":88,""time"":631162},{""event"":""blur"",""trial"":90,""time"":637044},{""event"":""focus"",""trial"":91,""time"":646292}]",NA,NA,NA,NA,NA,1,#D8271C,#741CD8,0,0,0,38,1,923,37,1,377,0,0,experiment,NA,NA,2,0.5,0.5,5,4,73,2,NA
fcp-trial,113,710486,0.0-82.0-0.0,voc_e2,11911,"[{""event"":""focus"",""trial"":0,""time"":0},{""event"":""fullscreenenter"",""trial"":1,""time"":8292},{""event"":""fullscreenexit"",""trial"":88,""time"":627462},{""event"":""blur"",""trial"":88,""time"":630223},{""event"":""focus"",""trial"":88,""time"":631162},{""event"":""blur"",""trial"":90,""time"":637044},{""event"":""focus"",""trial"":91,""time"":646292}]",NA,NA,NA,NA,NA,0,#D89F1C,#3386FF,10,0,1,38,1,1173,39,0,519,0,0,experiment,NA,NA,0,0.9,0.1,0,1,74,2,NA
fcp-trial,114,715499,0.0-83.0-0.0,voc_e2,11911,"[{""event"":""focus"",""trial"":0,""time"":0},{""event"":""fullscreenenter"",""trial"":1,""time"":8292},{""event"":""fullscreenexit"",""trial"":88,""time"":627462},{""event"":""blur"",""trial"":88,""time"":630223},{""event"":""focus"",""trial"":88,""time"":631162},{""event"":""blur"",""trial"":90,""time"":637044},{""event"":""focus"",""trial"":91,""time"":646292}]",NA,NA,NA,NA,NA,3,#FA92F8,#1CD855,0,10,1,38,1,2980,37,1,512,0,1,experiment,NA,NA,1,0.7,0.3,2,3,75,2,NA
fcp-trial,115,718303,0.0-84.0-0.0,voc_e2,11911,"[{""event"":""focus"",""trial"":0,""time"":0},{""event"":""fullscreenenter"",""trial"":1,""time"":8292},{""event"":""fullscreenexit"",""trial"":88,""time"":627462},{""event"":""blur"",""trial"":88,""time"":630223},{""event"":""focus"",""trial"":88,""time"":631162},{""event"":""blur"",""trial"":90,""time"":637044},{""event"":""focus"",""trial"":91,""time"":646292}]",NA,NA,NA,NA,NA,3,#741CD8,#D8271C,0,10,1,40,0,671,39,0,631,10,0,experiment,NA,NA,2,0.5,0.5,4,5,76,2,NA
fcp-trial,116,720550,0.0-85.0-0.0,voc_e2,11911,"[{""event"":""focus"",""trial"":0,""time"":0},{""event"":""fullscreenenter"",""trial"":1,""time"":8292},{""event"":""fullscreenexit"",""trial"":88,""time"":627462},{""event"":""blur"",""trial"":88,""time"":630223},{""event"":""focus"",""trial"":88,""time"":631162},{""event"":""blur"",""trial"":90,""time"":637044},{""event"":""focus"",""trial"":91,""time"":646292}]",NA,NA,NA,NA,NA,0,#1CD855,#FA92F8,0,10,0,40,0,365,37,1,369,0,0,experiment,NA,NA,1,0.3,0.7,3,2,77,2,NA
fcp-trial,117,722806,0.0-86.0-0.0,voc_e2,11911,"[{""event"":""focus"",""trial"":0,""time"":0},{""event"":""fullscreenenter"",""trial"":1,""time"":8292},{""event"":""fullscreenexit"",""trial"":88,""time"":627462},{""event"":""blur"",""trial"":88,""time"":630223},{""event"":""focus"",""trial"":88,""time"":631162},{""event"":""blur"",""trial"":90,""time"":637044},{""event"":""focus"",""trial"":91,""time"":646292}]",NA,NA,NA,NA,NA,6,#FA92F8,#1CD855,10,10,1,40,0,253,37,1,470,10,1,experiment,NA,NA,1,0.7,0.3,2,3,78,2,NA
fcp-trial,118,725117,0.0-87.0-0.0,voc_e2,11911,"[{""event"":""focus"",""trial"":0,""time"":0},{""event"":""fullscreenenter"",""trial"":1,""time"":8292},{""event"":""fullscreenexit"",""trial"":88,""time"":627462},{""event"":""blur"",""trial"":88,""time"":630223},{""event"":""focus"",""trial"":88,""time"":631162},{""event"":""blur"",""trial"":90,""time"":637044},{""event"":""focus"",""trial"":91,""time"":646292}]",NA,NA,NA,NA,NA,1,#D89F1C,#3386FF,10,0,1,40,0,16,37,1,582,10,1,experiment,NA,NA,0,0.9,0.1,0,1,79,2,NA
fcp-trial,119,727170,0.0-88.0-0.0,voc_e2,11911,"[{""event"":""focus"",""trial"":0,""time"":0},{""event"":""fullscreenenter"",""trial"":1,""time"":8292},{""event"":""fullscreenexit"",""trial"":88,""time"":627462},{""event"":""blur"",""trial"":88,""time"":630223},{""event"":""focus"",""trial"":88,""time"":631162},{""event"":""blur"",""trial"":90,""time"":637044},{""event"":""focus"",""trial"":91,""time"":646292}]",NA,NA,NA,NA,NA,6,#3386FF,#D89F1C,0,10,0,40,0,239,39,0,288,10,1,experiment,NA,NA,0,0.1,0.9,1,0,80,2,NA
fcp-trial,120,729173,0.0-89.0-0.0,voc_e2,11911,"[{""event"":""focus"",""trial"":0,""time"":0},{""event"":""fullscreenenter"",""trial"":1,""time"":8292},{""event"":""fullscreenexit"",""trial"":88,""time"":627462},{""event"":""blur"",""trial"":88,""time"":630223},{""event"":""focus"",""trial"":88,""time"":631162},{""event"":""blur"",""trial"":90,""time"":637044},{""event"":""focus"",""trial"":91,""time"":646292}]",NA,NA,NA,NA,NA,6,#741CD8,#D8271C,0,10,1,40,0,72,37,1,354,0,1,experiment,NA,NA,2,0.5,0.5,4,5,81,2,NA
fcp-trial,121,731193,0.0-90.0-0.0,voc_e2,11911,"[{""event"":""focus"",""trial"":0,""time"":0},{""event"":""fullscreenenter"",""trial"":1,""time"":8292},{""event"":""fullscreenexit"",""trial"":88,""time"":627462},{""event"":""blur"",""trial"":88,""time"":630223},{""event"":""focus"",""trial"":88,""time"":631162},{""event"":""blur"",""trial"":90,""time"":637044},{""event"":""focus"",""trial"":91,""time"":646292}]",NA,NA,NA,NA,NA,2,#FA92F8,#1CD855,10,0,1,40,0,45,39,0,287,0,0,experiment,NA,NA,1,0.7,0.3,2,3,82,2,NA
fcp-trial,122,733352,0.0-91.0-0.0,voc_e2,11911,"[{""event"":""focus"",""trial"":0,""time"":0},{""event"":""fullscreenenter"",""trial"":1,""time"":8292},{""event"":""fullscreenexit"",""trial"":88,""time"":627462},{""event"":""blur"",""trial"":88,""time"":630223},{""event"":""focus"",""trial"":88,""time"":631162},{""event"":""blur"",""trial"":90,""time"":637044},{""event"":""focus"",""trial"":91,""time"":646292}]",NA,NA,NA,NA,NA,3,#3386FF,#D89F1C,0,10,0,40,0,211,39,0,408,10,1,experiment,NA,NA,0,0.1,0.9,1,0,83,2,NA
fcp-trial,123,735400,0.0-92.0-0.0,voc_e2,11911,"[{""event"":""focus"",""trial"":0,""time"":0},{""event"":""fullscreenenter"",""trial"":1,""time"":8292},{""event"":""fullscreenexit"",""trial"":88,""time"":627462},{""event"":""blur"",""trial"":88,""time"":630223},{""event"":""focus"",""trial"":88,""time"":631162},{""event"":""blur"",""trial"":90,""time"":637044},{""event"":""focus"",""trial"":91,""time"":646292}]",NA,NA,NA,NA,NA,2,#741CD8,#D8271C,10,0,1,40,0,249,37,1,268,10,1,experiment,NA,NA,2,0.5,0.5,4,5,84,2,NA
fcp-trial,124,737455,0.0-93.0-0.0,voc_e2,11911,"[{""event"":""focus"",""trial"":0,""time"":0},{""event"":""fullscreenenter"",""trial"":1,""time"":8292},{""event"":""fullscreenexit"",""trial"":88,""time"":627462},{""event"":""blur"",""trial"":88,""time"":630223},{""event"":""focus"",""trial"":88,""time"":631162},{""event"":""blur"",""trial"":90,""time"":637044},{""event"":""focus"",""trial"":91,""time"":646292}]",NA,NA,NA,NA,NA,3,#D89F1C,#3386FF,10,0,1,40,0,131,37,1,392,10,1,experiment,NA,NA,0,0.9,0.1,0,1,85,2,NA
fcp-trial,125,739493,0.0-94.0-0.0,voc_e2,11911,"[{""event"":""focus"",""trial"":0,""time"":0},{""event"":""fullscreenenter"",""trial"":1,""time"":8292},{""event"":""fullscreenexit"",""trial"":88,""time"":627462},{""event"":""blur"",""trial"":88,""time"":630223},{""event"":""focus"",""trial"":88,""time"":631162},{""event"":""blur"",""trial"":90,""time"":637044},{""event"":""focus"",""trial"":91,""time"":646292}]",NA,NA,NA,NA,NA,4,#FA92F8,#1CD855,0,0,1,40,0,170,39,0,351,0,0,experiment,NA,NA,1,0.7,0.3,2,3,86,2,NA
fcp-trial,126,741542,0.0-95.0-0.0,voc_e2,11911,"[{""event"":""focus"",""trial"":0,""time"":0},{""event"":""fullscreenenter"",""trial"":1,""time"":8292},{""event"":""fullscreenexit"",""trial"":88,""time"":627462},{""event"":""blur"",""trial"":88,""time"":630223},{""event"":""focus"",""trial"":88,""time"":631162},{""event"":""blur"",""trial"":90,""time"":637044},{""event"":""focus"",""trial"":91,""time"":646292}]",NA,NA,NA,NA,NA,6,#3386FF,#D89F1C,0,10,0,40,0,131,39,0,386,10,1,experiment,NA,NA,0,0.1,0.9,1,0,87,2,NA
fcp-trial,127,743547,0.0-96.0-0.0,voc_e2,11911,"[{""event"":""focus"",""trial"":0,""time"":0},{""event"":""fullscreenenter"",""trial"":1,""time"":8292},{""event"":""fullscreenexit"",""trial"":88,""time"":627462},{""event"":""blur"",""trial"":88,""time"":630223},{""event"":""focus"",""trial"":88,""time"":631162},{""event"":""blur"",""trial"":90,""time"":637044},{""event"":""focus"",""trial"":91,""time"":646292}]",NA,NA,NA,NA,NA,1,#FA92F8,#1CD855,10,0,1,40,0,37,39,0,384,0,0,experiment,NA,NA,1,0.7,0.3,2,3,88,2,NA
fcp-trial,128,745568,0.0-97.0-0.0,voc_e2,11911,"[{""event"":""focus"",""trial"":0,""time"":0},{""event"":""fullscreenenter"",""trial"":1,""time"":8292},{""event"":""fullscreenexit"",""trial"":88,""time"":627462},{""event"":""blur"",""trial"":88,""time"":630223},{""event"":""focus"",""trial"":88,""time"":631162},{""event"":""blur"",""trial"":90,""time"":637044},{""event"":""focus"",""trial"":91,""time"":646292}]",NA,NA,NA,NA,NA,1,#741CD8,#D8271C,0,10,1,40,0,150,37,1,347,0,1,experiment,NA,NA,2,0.5,0.5,4,5,89,2,NA
fcp-trial,129,747584,0.0-98.0-0.0,voc_e2,11911,"[{""event"":""focus"",""trial"":0,""time"":0},{""event"":""fullscreenenter"",""trial"":1,""time"":8292},{""event"":""fullscreenexit"",""trial"":88,""time"":627462},{""event"":""blur"",""trial"":88,""time"":630223},{""event"":""focus"",""trial"":88,""time"":631162},{""event"":""blur"",""trial"":90,""time"":637044},{""event"":""focus"",""trial"":91,""time"":646292}]",NA,NA,NA,NA,NA,0,#3386FF,#D89F1C,0,10,0,40,0,16,39,0,428,10,1,experiment,NA,NA,0,0.1,0.9,1,0,90,2,NA
fcp-trial,130,749603,0.0-99.0-0.0,voc_e2,11911,"[{""event"":""focus"",""trial"":0,""time"":0},{""event"":""fullscreenenter"",""trial"":1,""time"":8292},{""event"":""fullscreenexit"",""trial"":88,""time"":627462},{""event"":""blur"",""trial"":88,""time"":630223},{""event"":""focus"",""trial"":88,""time"":631162},{""event"":""blur"",""trial"":90,""time"":637044},{""event"":""focus"",""trial"":91,""time"":646292}]",NA,NA,NA,NA,NA,2,#FA92F8,#1CD855,10,10,1,40,0,70,39,0,257,10,0,experiment,NA,NA,1,0.7,0.3,2,3,91,3,NA
fcp-trial,131,751622,0.0-100.0-0.0,voc_e2,11911,"[{""event"":""focus"",""trial"":0,""time"":0},{""event"":""fullscreenenter"",""trial"":1,""time"":8292},{""event"":""fullscreenexit"",""trial"":88,""time"":627462},{""event"":""blur"",""trial"":88,""time"":630223},{""event"":""focus"",""trial"":88,""time"":631162},{""event"":""blur"",""trial"":90,""time"":637044},{""event"":""focus"",""trial"":91,""time"":646292}]",NA,NA,NA,NA,NA,5,#1CD855,#FA92F8,10,0,0,40,0,37,37,1,420,10,0,experiment,NA,NA,1,0.3,0.7,3,2,92,3,NA
fcp-trial,132,753872,0.0-101.0-0.0,voc_e2,11911,"[{""event"":""focus"",""trial"":0,""time"":0},{""event"":""fullscreenenter"",""trial"":1,""time"":8292},{""event"":""fullscreenexit"",""trial"":88,""time"":627462},{""event"":""blur"",""trial"":88,""time"":630223},{""event"":""focus"",""trial"":88,""time"":631162},{""event"":""blur"",""trial"":90,""time"":637044},{""event"":""focus"",""trial"":91,""time"":646292}]",NA,NA,NA,NA,NA,4,#D89F1C,#3386FF,10,0,1,40,0,210,39,0,525,0,0,experiment,NA,NA,0,0.9,0.1,0,1,93,3,NA
fcp-trial,133,756063,0.0-102.0-0.0,voc_e2,11911,"[{""event"":""focus"",""trial"":0,""time"":0},{""event"":""fullscreenenter"",""trial"":1,""time"":8292},{""event"":""fullscreenexit"",""trial"":88,""time"":627462},{""event"":""blur"",""trial"":88,""time"":630223},{""event"":""focus"",""trial"":88,""time"":631162},{""event"":""blur"",""trial"":90,""time"":637044},{""event"":""focus"",""trial"":91,""time"":646292}]",NA,NA,NA,NA,NA,2,#D8271C,#741CD8,0,0,0,40,0,232,39,0,440,0,1,experiment,NA,NA,2,0.5,0.5,5,4,94,3,NA
fcp-trial,134,758211,0.0-103.0-0.0,voc_e2,11911,"[{""event"":""focus"",""trial"":0,""time"":0},{""event"":""fullscreenenter"",""trial"":1,""time"":8292},{""event"":""fullscreenexit"",""trial"":88,""time"":627462},{""event"":""blur"",""trial"":88,""time"":630223},{""event"":""focus"",""trial"":88,""time"":631162},{""event"":""blur"",""trial"":90,""time"":637044},{""event"":""focus"",""trial"":91,""time"":646292}]",NA,NA,NA,NA,NA,4,#741CD8,#D8271C,10,0,1,40,0,361,37,1,268,10,1,experiment,NA,NA,2,0.5,0.5,4,5,95,3,NA
fcp-trial,135,760233,0.0-104.0-0.0,voc_e2,11911,"[{""event"":""focus"",""trial"":0,""time"":0},{""event"":""fullscreenenter"",""trial"":1,""time"":8292},{""event"":""fullscreenexit"",""trial"":88,""time"":627462},{""event"":""blur"",""trial"":88,""time"":630223},{""event"":""focus"",""trial"":88,""time"":631162},{""event"":""blur"",""trial"":90,""time"":637044},{""event"":""focus"",""trial"":91,""time"":646292}]",NA,NA,NA,NA,NA,6,#FA92F8,#1CD855,10,0,1,40,0,222,37,1,286,10,1,experiment,NA,NA,1,0.7,0.3,2,3,96,3,NA
fcp-trial,136,762707,0.0-105.0-0.0,voc_e2,11911,"[{""event"":""focus"",""trial"":0,""time"":0},{""event"":""fullscreenenter"",""trial"":1,""time"":8292},{""event"":""fullscreenexit"",""trial"":88,""time"":627462},{""event"":""blur"",""trial"":88,""time"":630223},{""event"":""focus"",""trial"":88,""time"":631162},{""event"":""blur"",""trial"":90,""time"":637044},{""event"":""focus"",""trial"":91,""time"":646292}]",NA,NA,NA,NA,NA,2,#D89F1C,#3386FF,10,0,1,40,0,679,37,1,272,10,1,experiment,NA,NA,0,0.9,0.1,0,1,97,3,NA
fcp-trial,137,767161,0.0-106.0-0.0,voc_e2,11911,"[{""event"":""focus"",""trial"":0,""time"":0},{""event"":""fullscreenenter"",""trial"":1,""time"":8292},{""event"":""fullscreenexit"",""trial"":88,""time"":627462},{""event"":""blur"",""trial"":88,""time"":630223},{""event"":""focus"",""trial"":88,""time"":631162},{""event"":""blur"",""trial"":90,""time"":637044},{""event"":""focus"",""trial"":91,""time"":646292}]",NA,NA,NA,NA,NA,3,#741CD8,#D8271C,10,0,1,40,0,2532,37,1,399,10,1,experiment,NA,NA,2,0.5,0.5,4,5,98,3,NA
fcp-trial,138,770083,0.0-107.0-0.0,voc_e2,11911,"[{""event"":""focus"",""trial"":0,""time"":0},{""event"":""fullscreenenter"",""trial"":1,""time"":8292},{""event"":""fullscreenexit"",""trial"":88,""time"":627462},{""event"":""blur"",""trial"":88,""time"":630223},{""event"":""focus"",""trial"":88,""time"":631162},{""event"":""blur"",""trial"":90,""time"":637044},{""event"":""focus"",""trial"":91,""time"":646292},{""event"":""blur"",""trial"":138,""time"":768978}]",NA,NA,NA,NA,NA,5,#D8271C,#741CD8,0,10,0,40,0,945,37,1,470,0,0,experiment,NA,NA,2,0.5,0.5,5,4,99,3,NA
fcp-trial,139,773100,0.0-108.0-0.0,voc_e2,11911,"[{""event"":""focus"",""trial"":0,""time"":0},{""event"":""fullscreenenter"",""trial"":1,""time"":8292},{""event"":""fullscreenexit"",""trial"":88,""time"":627462},{""event"":""blur"",""trial"":88,""time"":630223},{""event"":""focus"",""trial"":88,""time"":631162},{""event"":""blur"",""trial"":90,""time"":637044},{""event"":""focus"",""trial"":91,""time"":646292},{""event"":""blur"",""trial"":138,""time"":768978},{""event"":""focus"",""trial"":139,""time"":770548}]",NA,NA,NA,NA,NA,5,#D89F1C,#3386FF,10,0,1,40,0,795,39,0,499,0,0,experiment,NA,NA,0,0.9,0.1,0,1,100,3,NA
fcp-trial,140,777534,0.0-109.0-0.0,voc_e2,11911,"[{""event"":""focus"",""trial"":0,""time"":0},{""event"":""fullscreenenter"",""trial"":1,""time"":8292},{""event"":""fullscreenexit"",""trial"":88,""time"":627462},{""event"":""blur"",""trial"":88,""time"":630223},{""event"":""focus"",""trial"":88,""time"":631162},{""event"":""blur"",""trial"":90,""time"":637044},{""event"":""focus"",""trial"":91,""time"":646292},{""event"":""blur"",""trial"":138,""time"":768978},{""event"":""focus"",""trial"":139,""time"":770548}]",NA,NA,NA,NA,NA,0,#1CD855,#FA92F8,10,10,0,40,0,179,39,0,2732,10,1,experiment,NA,NA,1,0.3,0.7,3,2,101,3,NA
fcp-trial,141,779873,0.0-110.0-0.0,voc_e2,11911,"[{""event"":""focus"",""trial"":0,""time"":0},{""event"":""fullscreenenter"",""trial"":1,""time"":8292},{""event"":""fullscreenexit"",""trial"":88,""time"":627462},{""event"":""blur"",""trial"":88,""time"":630223},{""event"":""focus"",""trial"":88,""time"":631162},{""event"":""blur"",""trial"":90,""time"":637044},{""event"":""focus"",""trial"":91,""time"":646292},{""event"":""blur"",""trial"":138,""time"":768978},{""event"":""focus"",""trial"":139,""time"":770548}]",NA,NA,NA,NA,NA,1,#D89F1C,#3386FF,10,0,1,40,0,19,37,1,802,10,1,experiment,NA,NA,0,0.9,0.1,0,1,102,3,NA
fcp-trial,142,782149,0.0-111.0-0.0,voc_e2,11911,"[{""event"":""focus"",""trial"":0,""time"":0},{""event"":""fullscreenenter"",""trial"":1,""time"":8292},{""event"":""fullscreenexit"",""trial"":88,""time"":627462},{""event"":""blur"",""trial"":88,""time"":630223},{""event"":""focus"",""trial"":88,""time"":631162},{""event"":""blur"",""trial"":90,""time"":637044},{""event"":""focus"",""trial"":91,""time"":646292},{""event"":""blur"",""trial"":138,""time"":768978},{""event"":""focus"",""trial"":139,""time"":770548}]",NA,NA,NA,NA,NA,6,#D8271C,#741CD8,10,10,0,40,0,175,39,0,521,10,1,experiment,NA,NA,2,0.5,0.5,5,4,103,3,NA
fcp-trial,143,784616,0.0-112.0-0.0,voc_e2,11911,"[{""event"":""focus"",""trial"":0,""time"":0},{""event"":""fullscreenenter"",""trial"":1,""time"":8292},{""event"":""fullscreenexit"",""trial"":88,""time"":627462},{""event"":""blur"",""trial"":88,""time"":630223},{""event"":""focus"",""trial"":88,""time"":631162},{""event"":""blur"",""trial"":90,""time"":637044},{""event"":""focus"",""trial"":91,""time"":646292},{""event"":""blur"",""trial"":138,""time"":768978},{""event"":""focus"",""trial"":139,""time"":770548}]",NA,NA,NA,NA,NA,0,#741CD8,#D8271C,10,10,1,40,0,367,37,1,580,10,1,experiment,NA,NA,2,0.5,0.5,4,5,104,3,NA
fcp-trial,144,787389,0.0-113.0-0.0,voc_e2,11911,"[{""event"":""focus"",""trial"":0,""time"":0},{""event"":""fullscreenenter"",""trial"":1,""time"":8292},{""event"":""fullscreenexit"",""trial"":88,""time"":627462},{""event"":""blur"",""trial"":88,""time"":630223},{""event"":""focus"",""trial"":88,""time"":631162},{""event"":""blur"",""trial"":90,""time"":637044},{""event"":""focus"",""trial"":91,""time"":646292},{""event"":""blur"",""trial"":138,""time"":768978},{""event"":""focus"",""trial"":139,""time"":770548}]",NA,NA,NA,NA,NA,3,#FA92F8,#1CD855,10,0,1,40,0,747,37,1,500,10,1,experiment,NA,NA,1,0.7,0.3,2,3,105,3,NA
audio-instructions,145,1005686,0.0-114.0,voc_e2,11911,"[{""event"":""focus"",""trial"":0,""time"":0},{""event"":""fullscreenenter"",""trial"":1,""time"":8292},{""event"":""fullscreenexit"",""trial"":88,""time"":627462},{""event"":""blur"",""trial"":88,""time"":630223},{""event"":""focus"",""trial"":88,""time"":631162},{""event"":""blur"",""trial"":90,""time"":637044},{""event"":""focus"",""trial"":91,""time"":646292},{""event"":""blur"",""trial"":138,""time"":768978},{""event"":""focus"",""trial"":139,""time"":770548}]",NA,213855,static/audio/pause.wav,NA,0,NA,NA,NA,NA,NA,NA,NA,NA,NA,NA,NA,NA,NA,NA,NA,NA,NA,NA,NA,NA,NA,NA,NA,NA,NA
fcp-trial,146,1009611,0.0-115.0-0.0,voc_e2,11911,"[{""event"":""focus"",""trial"":0,""time"":0},{""event"":""fullscreenenter"",""trial"":1,""time"":8292},{""event"":""fullscreenexit"",""trial"":88,""time"":627462},{""event"":""blur"",""trial"":88,""time"":630223},{""event"":""focus"",""trial"":88,""time"":631162},{""event"":""blur"",""trial"":90,""time"":637044},{""event"":""focus"",""trial"":91,""time"":646292},{""event"":""blur"",""trial"":138,""time"":768978},{""event"":""focus"",""trial"":139,""time"":770548}]",NA,NA,NA,NA,NA,5,#D8271C,#741CD8,10,10,0,40,0,1935,37,1,467,10,0,experiment,NA,NA,2,0.5,0.5,5,4,106,3,NA
fcp-trial,147,1014690,0.0-116.0-0.0,voc_e2,11911,"[{""event"":""focus"",""trial"":0,""time"":0},{""event"":""fullscreenenter"",""trial"":1,""time"":8292},{""event"":""fullscreenexit"",""trial"":88,""time"":627462},{""event"":""blur"",""trial"":88,""time"":630223},{""event"":""focus"",""trial"":88,""time"":631162},{""event"":""blur"",""trial"":90,""time"":637044},{""event"":""focus"",""trial"":91,""time"":646292},{""event"":""blur"",""trial"":138,""time"":768978},{""event"":""focus"",""trial"":139,""time"":770548}]",NA,NA,NA,NA,NA,6,#1CD855,#FA92F8,10,0,0,40,0,3069,37,1,502,10,0,experiment,NA,NA,1,0.3,0.7,3,2,107,3,NA
fcp-trial,148,1019701,0.0-117.0-0.0,voc_e2,11911,"[{""event"":""focus"",""trial"":0,""time"":0},{""event"":""fullscreenenter"",""trial"":1,""time"":8292},{""event"":""fullscreenexit"",""trial"":88,""time"":627462},{""event"":""blur"",""trial"":88,""time"":630223},{""event"":""focus"",""trial"":88,""time"":631162},{""event"":""blur"",""trial"":90,""time"":637044},{""event"":""focus"",""trial"":91,""time"":646292},{""event"":""blur"",""trial"":138,""time"":768978},{""event"":""focus"",""trial"":139,""time"":770548}]",NA,NA,NA,NA,NA,2,#1CD855,#FA92F8,10,10,0,38,1,2615,39,0,858,10,1,experiment,NA,NA,1,0.3,0.7,3,2,108,3,NA
fcp-trial,149,1022757,0.0-118.0-0.0,voc_e2,11911,"[{""event"":""focus"",""trial"":0,""time"":0},{""event"":""fullscreenenter"",""trial"":1,""time"":8292},{""event"":""fullscreenexit"",""trial"":88,""time"":627462},{""event"":""blur"",""trial"":88,""time"":630223},{""event"":""focus"",""trial"":88,""time"":631162},{""event"":""blur"",""trial"":90,""time"":637044},{""event"":""focus"",""trial"":91,""time"":646292},{""event"":""blur"",""trial"":138,""time"":768978},{""event"":""focus"",""trial"":139,""time"":770548}]",NA,NA,NA,NA,NA,2,#D8271C,#741CD8,0,0,0,38,1,965,37,1,563,0,0,experiment,NA,NA,2,0.5,0.5,5,4,109,3,NA
fcp-trial,150,1026368,0.0-119.0-0.0,voc_e2,11911,"[{""event"":""focus"",""trial"":0,""time"":0},{""event"":""fullscreenenter"",""trial"":1,""time"":8292},{""event"":""fullscreenexit"",""trial"":88,""time"":627462},{""event"":""blur"",""trial"":88,""time"":630223},{""event"":""focus"",""trial"":88,""time"":631162},{""event"":""blur"",""trial"":90,""time"":637044},{""event"":""focus"",""trial"":91,""time"":646292},{""event"":""blur"",""trial"":138,""time"":768978},{""event"":""focus"",""trial"":139,""time"":770548}]",NA,NA,NA,NA,NA,3,#3386FF,#D89F1C,0,10,0,40,0,1361,39,0,634,10,1,experiment,NA,NA,0,0.1,0.9,1,0,110,3,NA
fcp-trial,151,1031318,0.0-120.0-0.0,voc_e2,11911,"[{""event"":""focus"",""trial"":0,""time"":0},{""event"":""fullscreenenter"",""trial"":1,""time"":8292},{""event"":""fullscreenexit"",""trial"":88,""time"":627462},{""event"":""blur"",""trial"":88,""time"":630223},{""event"":""focus"",""trial"":88,""time"":631162},{""event"":""blur"",""trial"":90,""time"":637044},{""event"":""focus"",""trial"":91,""time"":646292},{""event"":""blur"",""trial"":138,""time"":768978},{""event"":""focus"",""trial"":139,""time"":770548}]",NA,NA,NA,NA,NA,2,#3386FF,#D89F1C,0,10,0,38,1,1888,37,1,1542,0,0,experiment,NA,NA,0,0.1,0.9,1,0,111,3,NA
fcp-trial,152,1034793,0.0-121.0-0.0,voc_e2,11911,"[{""event"":""focus"",""trial"":0,""time"":0},{""event"":""fullscreenenter"",""trial"":1,""time"":8292},{""event"":""fullscreenexit"",""trial"":88,""time"":627462},{""event"":""blur"",""trial"":88,""time"":630223},{""event"":""focus"",""trial"":88,""time"":631162},{""event"":""blur"",""trial"":90,""time"":637044},{""event"":""focus"",""trial"":91,""time"":646292},{""event"":""blur"",""trial"":138,""time"":768978},{""event"":""focus"",""trial"":139,""time"":770548}]",NA,NA,NA,NA,NA,4,#D8271C,#741CD8,10,10,0,40,0,1521,37,1,440,10,0,experiment,NA,NA,2,0.5,0.5,5,4,112,3,NA
fcp-trial,153,1037842,0.0-122.0-0.0,voc_e2,11911,"[{""event"":""focus"",""trial"":0,""time"":0},{""event"":""fullscreenenter"",""trial"":1,""time"":8292},{""event"":""fullscreenexit"",""trial"":88,""time"":627462},{""event"":""blur"",""trial"":88,""time"":630223},{""event"":""focus"",""trial"":88,""time"":631162},{""event"":""blur"",""trial"":90,""time"":637044},{""event"":""focus"",""trial"":91,""time"":646292},{""event"":""blur"",""trial"":138,""time"":768978},{""event"":""focus"",""trial"":139,""time"":770548}]",NA,NA,NA,NA,NA,3,#FA92F8,#1CD855,10,10,1,40,0,1133,37,1,385,10,1,experiment,NA,NA,1,0.7,0.3,2,3,113,3,NA
fcp-trial,154,1041062,0.0-123.0-0.0,voc_e2,11911,"[{""event"":""focus"",""trial"":0,""time"":0},{""event"":""fullscreenenter"",""trial"":1,""time"":8292},{""event"":""fullscreenexit"",""trial"":88,""time"":627462},{""event"":""blur"",""trial"":88,""time"":630223},{""event"":""focus"",""trial"":88,""time"":631162},{""event"":""blur"",""trial"":90,""time"":637044},{""event"":""focus"",""trial"":91,""time"":646292},{""event"":""blur"",""trial"":138,""time"":768978},{""event"":""focus"",""trial"":139,""time"":770548}]",NA,NA,NA,NA,NA,0,#741CD8,#D8271C,10,0,1,38,1,911,39,0,788,0,0,experiment,NA,NA,2,0.5,0.5,4,5,114,3,NA
fcp-trial,155,1043988,0.0-124.0-0.0,voc_e2,11911,"[{""event"":""focus"",""trial"":0,""time"":0},{""event"":""fullscreenenter"",""trial"":1,""time"":8292},{""event"":""fullscreenexit"",""trial"":88,""time"":627462},{""event"":""blur"",""trial"":88,""time"":630223},{""event"":""focus"",""trial"":88,""time"":631162},{""event"":""blur"",""trial"":90,""time"":637044},{""event"":""focus"",""trial"":91,""time"":646292},{""event"":""blur"",""trial"":138,""time"":768978},{""event"":""focus"",""trial"":139,""time"":770548}]",NA,NA,NA,NA,NA,6,#3386FF,#D89F1C,0,0,0,40,0,978,37,1,420,0,0,experiment,NA,NA,0,0.1,0.9,1,0,115,3,NA
fcp-trial,156,1046855,0.0-125.0-0.0,voc_e2,11911,"[{""event"":""focus"",""trial"":0,""time"":0},{""event"":""fullscreenenter"",""trial"":1,""time"":8292},{""event"":""fullscreenexit"",""trial"":88,""time"":627462},{""event"":""blur"",""trial"":88,""time"":630223},{""event"":""focus"",""trial"":88,""time"":631162},{""event"":""blur"",""trial"":90,""time"":637044},{""event"":""focus"",""trial"":91,""time"":646292},{""event"":""blur"",""trial"":138,""time"":768978},{""event"":""focus"",""trial"":139,""time"":770548}]",NA,NA,NA,NA,NA,0,#3386FF,#D89F1C,10,10,0,38,1,866,37,1,467,10,0,experiment,NA,NA,0,0.1,0.9,1,0,116,3,NA
fcp-trial,157,1051415,0.0-126.0-0.0,voc_e2,11911,"[{""event"":""focus"",""trial"":0,""time"":0},{""event"":""fullscreenenter"",""trial"":1,""time"":8292},{""event"":""fullscreenexit"",""trial"":88,""time"":627462},{""event"":""blur"",""trial"":88,""time"":630223},{""event"":""focus"",""trial"":88,""time"":631162},{""event"":""blur"",""trial"":90,""time"":637044},{""event"":""focus"",""trial"":91,""time"":646292},{""event"":""blur"",""trial"":138,""time"":768978},{""event"":""focus"",""trial"":139,""time"":770548}]",NA,NA,NA,NA,NA,4,#FA92F8,#1CD855,0,0,1,40,0,2468,39,0,572,0,0,experiment,NA,NA,1,0.7,0.3,2,3,117,3,NA
fcp-trial,158,1055437,0.0-127.0-0.0,voc_e2,11911,"[{""event"":""focus"",""trial"":0,""time"":0},{""event"":""fullscreenenter"",""trial"":1,""time"":8292},{""event"":""fullscreenexit"",""trial"":88,""time"":627462},{""event"":""blur"",""trial"":88,""time"":630223},{""event"":""focus"",""trial"":88,""time"":631162},{""event"":""blur"",""trial"":90,""time"":637044},{""event"":""focus"",""trial"":91,""time"":646292},{""event"":""blur"",""trial"":138,""time"":768978},{""event"":""focus"",""trial"":139,""time"":770548}]",NA,NA,NA,NA,NA,1,#D8271C,#741CD8,0,0,0,38,1,1769,37,1,698,0,0,experiment,NA,NA,2,0.5,0.5,5,4,118,3,NA
fcp-trial,159,1060761,0.0-128.0-0.0,voc_e2,11911,"[{""event"":""focus"",""trial"":0,""time"":0},{""event"":""fullscreenenter"",""trial"":1,""time"":8292},{""event"":""fullscreenexit"",""trial"":88,""time"":627462},{""event"":""blur"",""trial"":88,""time"":630223},{""event"":""focus"",""trial"":88,""time"":631162},{""event"":""blur"",""trial"":90,""time"":637044},{""event"":""focus"",""trial"":91,""time"":646292},{""event"":""blur"",""trial"":138,""time"":768978},{""event"":""focus"",""trial"":139,""time"":770548}]",NA,NA,NA,NA,NA,1,#FA92F8,#1CD855,10,0,1,38,1,3290,39,0,511,0,0,experiment,NA,NA,1,0.7,0.3,2,3,119,3,NA
fcp-trial,160,1063731,0.0-129.0-0.0,voc_e2,11911,"[{""event"":""focus"",""trial"":0,""time"":0},{""event"":""fullscreenenter"",""trial"":1,""time"":8292},{""event"":""fullscreenexit"",""trial"":88,""time"":627462},{""event"":""blur"",""trial"":88,""time"":630223},{""event"":""focus"",""trial"":88,""time"":631162},{""event"":""blur"",""trial"":90,""time"":637044},{""event"":""focus"",""trial"":91,""time"":646292},{""event"":""blur"",""trial"":138,""time"":768978},{""event"":""focus"",""trial"":139,""time"":770548}]",NA,NA,NA,NA,NA,4,#D89F1C,#3386FF,10,0,1,40,0,999,39,0,447,0,0,experiment,NA,NA,0,0.9,0.1,0,1,120,3,NA
fcp-trial,161,1066639,0.0-130.0-0.0,voc_e2,11911,"[{""event"":""focus"",""trial"":0,""time"":0},{""event"":""fullscreenenter"",""trial"":1,""time"":8292},{""event"":""fullscreenexit"",""trial"":88,""time"":627462},{""event"":""blur"",""trial"":88,""time"":630223},{""event"":""focus"",""trial"":88,""time"":631162},{""event"":""blur"",""trial"":90,""time"":637044},{""event"":""focus"",""trial"":91,""time"":646292},{""event"":""blur"",""trial"":138,""time"":768978},{""event"":""focus"",""trial"":139,""time"":770548}]",NA,NA,NA,NA,NA,1,#D89F1C,#3386FF,10,0,1,38,1,895,37,1,499,10,1,experiment,NA,NA,0,0.9,0.1,0,1,121,3,NA
fcp-trial,162,1069583,0.0-131.0-0.0,voc_e2,11911,"[{""event"":""focus"",""trial"":0,""time"":0},{""event"":""fullscreenenter"",""trial"":1,""time"":8292},{""event"":""fullscreenexit"",""trial"":88,""time"":627462},{""event"":""blur"",""trial"":88,""time"":630223},{""event"":""focus"",""trial"":88,""time"":631162},{""event"":""blur"",""trial"":90,""time"":637044},{""event"":""focus"",""trial"":91,""time"":646292},{""event"":""blur"",""trial"":138,""time"":768978},{""event"":""focus"",""trial"":139,""time"":770548}]",NA,NA,NA,NA,NA,3,#741CD8,#D8271C,10,0,1,40,0,1151,37,1,272,10,1,experiment,NA,NA,2,0.5,0.5,4,5,122,3,NA
fcp-trial,163,1071941,0.0-132.0-0.0,voc_e2,11911,"[{""event"":""focus"",""trial"":0,""time"":0},{""event"":""fullscreenenter"",""trial"":1,""time"":8292},{""event"":""fullscreenexit"",""trial"":88,""time"":627462},{""event"":""blur"",""trial"":88,""time"":630223},{""event"":""focus"",""trial"":88,""time"":631162},{""event"":""blur"",""trial"":90,""time"":637044},{""event"":""focus"",""trial"":91,""time"":646292},{""event"":""blur"",""trial"":138,""time"":768978},{""event"":""focus"",""trial"":139,""time"":770548}]",NA,NA,NA,NA,NA,0,#FA92F8,#1CD855,0,10,1,40,0,451,39,0,374,10,0,experiment,NA,NA,1,0.7,0.3,2,3,123,3,NA
fcp-trial,164,1073897,0.0-133.0-0.0,voc_e2,11911,"[{""event"":""focus"",""trial"":0,""time"":0},{""event"":""fullscreenenter"",""trial"":1,""time"":8292},{""event"":""fullscreenexit"",""trial"":88,""time"":627462},{""event"":""blur"",""trial"":88,""time"":630223},{""event"":""focus"",""trial"":88,""time"":631162},{""event"":""blur"",""trial"":90,""time"":637044},{""event"":""focus"",""trial"":91,""time"":646292},{""event"":""blur"",""trial"":138,""time"":768978},{""event"":""focus"",""trial"":139,""time"":770548}]",NA,NA,NA,NA,NA,5,#D89F1C,#3386FF,10,0,1,40,0,131,39,0,273,0,0,experiment,NA,NA,0,0.9,0.1,0,1,124,3,NA
fcp-trial,165,1076319,0.0-134.0-0.0,voc_e2,11911,"[{""event"":""focus"",""trial"":0,""time"":0},{""event"":""fullscreenenter"",""trial"":1,""time"":8292},{""event"":""fullscreenexit"",""trial"":88,""time"":627462},{""event"":""blur"",""trial"":88,""time"":630223},{""event"":""focus"",""trial"":88,""time"":631162},{""event"":""blur"",""trial"":90,""time"":637044},{""event"":""focus"",""trial"":91,""time"":646292},{""event"":""blur"",""trial"":138,""time"":768978},{""event"":""focus"",""trial"":139,""time"":770548}]",NA,NA,NA,NA,NA,5,#FA92F8,#1CD855,0,10,1,40,0,250,39,0,443,10,0,experiment,NA,NA,1,0.7,0.3,2,3,125,3,NA
fcp-trial,166,1078354,0.0-135.0-0.0,voc_e2,11911,"[{""event"":""focus"",""trial"":0,""time"":0},{""event"":""fullscreenenter"",""trial"":1,""time"":8292},{""event"":""fullscreenexit"",""trial"":88,""time"":627462},{""event"":""blur"",""trial"":88,""time"":630223},{""event"":""focus"",""trial"":88,""time"":631162},{""event"":""blur"",""trial"":90,""time"":637044},{""event"":""focus"",""trial"":91,""time"":646292},{""event"":""blur"",""trial"":138,""time"":768978},{""event"":""focus"",""trial"":139,""time"":770548}]",NA,NA,NA,NA,NA,6,#741CD8,#D8271C,10,0,1,40,0,124,37,1,388,10,1,experiment,NA,NA,2,0.5,0.5,4,5,126,3,NA
fcp-trial,167,1080979,0.0-136.0-0.0,voc_e2,11911,"[{""event"":""focus"",""trial"":0,""time"":0},{""event"":""fullscreenenter"",""trial"":1,""time"":8292},{""event"":""fullscreenexit"",""trial"":88,""time"":627462},{""event"":""blur"",""trial"":88,""time"":630223},{""event"":""focus"",""trial"":88,""time"":631162},{""event"":""blur"",""trial"":90,""time"":637044},{""event"":""focus"",""trial"":91,""time"":646292},{""event"":""blur"",""trial"":138,""time"":768978},{""event"":""focus"",""trial"":139,""time"":770548}]",NA,NA,NA,NA,NA,4,#FA92F8,#1CD855,10,0,1,40,0,57,39,0,1044,0,0,experiment,NA,NA,1,0.7,0.3,2,3,127,3,NA
fcp-trial,168,1083053,0.0-137.0-0.0,voc_e2,11911,"[{""event"":""focus"",""trial"":0,""time"":0},{""event"":""fullscreenenter"",""trial"":1,""time"":8292},{""event"":""fullscreenexit"",""trial"":88,""time"":627462},{""event"":""blur"",""trial"":88,""time"":630223},{""event"":""focus"",""trial"":88,""time"":631162},{""event"":""blur"",""trial"":90,""time"":637044},{""event"":""focus"",""trial"":91,""time"":646292},{""event"":""blur"",""trial"":138,""time"":768978},{""event"":""focus"",""trial"":139,""time"":770548}]",NA,NA,NA,NA,NA,1,#D8271C,#741CD8,10,0,0,40,0,253,39,0,289,0,1,experiment,NA,NA,2,0.5,0.5,5,4,128,3,NA
fcp-trial,169,1085356,0.0-138.0-0.0,voc_e2,11911,"[{""event"":""focus"",""trial"":0,""time"":0},{""event"":""fullscreenenter"",""trial"":1,""time"":8292},{""event"":""fullscreenexit"",""trial"":88,""time"":627462},{""event"":""blur"",""trial"":88,""time"":630223},{""event"":""focus"",""trial"":88,""time"":631162},{""event"":""blur"",""trial"":90,""time"":637044},{""event"":""focus"",""trial"":91,""time"":646292},{""event"":""blur"",""trial"":138,""time"":768978},{""event"":""focus"",""trial"":139,""time"":770548}]",NA,NA,NA,NA,NA,4,#741CD8,#D8271C,0,0,1,40,0,275,37,1,503,0,1,experiment,NA,NA,2,0.5,0.5,4,5,129,3,NA
fcp-trial,170,1088762,0.0-139.0-0.0,voc_e2,11911,"[{""event"":""focus"",""trial"":0,""time"":0},{""event"":""fullscreenenter"",""trial"":1,""time"":8292},{""event"":""fullscreenexit"",""trial"":88,""time"":627462},{""event"":""blur"",""trial"":88,""time"":630223},{""event"":""focus"",""trial"":88,""time"":631162},{""event"":""blur"",""trial"":90,""time"":637044},{""event"":""focus"",""trial"":91,""time"":646292},{""event"":""blur"",""trial"":138,""time"":768978},{""event"":""focus"",""trial"":139,""time"":770548}]",NA,NA,NA,NA,NA,3,#3386FF,#D89F1C,0,10,0,40,0,187,39,0,1702,10,1,experiment,NA,NA,0,0.1,0.9,1,0,130,3,NA
fcp-trial,171,1090917,0.0-140.0-0.0,voc_e2,11911,"[{""event"":""focus"",""trial"":0,""time"":0},{""event"":""fullscreenenter"",""trial"":1,""time"":8292},{""event"":""fullscreenexit"",""trial"":88,""time"":627462},{""event"":""blur"",""trial"":88,""time"":630223},{""event"":""focus"",""trial"":88,""time"":631162},{""event"":""blur"",""trial"":90,""time"":637044},{""event"":""focus"",""trial"":91,""time"":646292},{""event"":""blur"",""trial"":138,""time"":768978},{""event"":""focus"",""trial"":139,""time"":770548}]",NA,NA,NA,NA,NA,0,#D89F1C,#3386FF,10,0,1,40,0,238,39,0,394,0,0,experiment,NA,NA,0,0.9,0.1,0,1,131,3,NA
fcp-trial,172,1106766,0.0-141.0-0.0,voc_e2,11911,"[{""event"":""focus"",""trial"":0,""time"":0},{""event"":""fullscreenenter"",""trial"":1,""time"":8292},{""event"":""fullscreenexit"",""trial"":88,""time"":627462},{""event"":""blur"",""trial"":88,""time"":630223},{""event"":""focus"",""trial"":88,""time"":631162},{""event"":""blur"",""trial"":90,""time"":637044},{""event"":""focus"",""trial"":91,""time"":646292},{""event"":""blur"",""trial"":138,""time"":768978},{""event"":""focus"",""trial"":139,""time"":770548}]",NA,NA,NA,NA,NA,1,#1CD855,#FA92F8,0,10,0,null,null,null,null,null,null,NA,0,experiment,NA,NA,1,0.3,0.7,3,2,132,3,NA
fcp-trial,173,1113394,0.0-142.0-0.0,voc_e2,11911,"[{""event"":""focus"",""trial"":0,""time"":0},{""event"":""fullscreenenter"",""trial"":1,""time"":8292},{""event"":""fullscreenexit"",""trial"":88,""time"":627462},{""event"":""blur"",""trial"":88,""time"":630223},{""event"":""focus"",""trial"":88,""time"":631162},{""event"":""blur"",""trial"":90,""time"":637044},{""event"":""focus"",""trial"":91,""time"":646292},{""event"":""blur"",""trial"":138,""time"":768978},{""event"":""focus"",""trial"":139,""time"":770548}]",NA,NA,NA,NA,NA,0,#741CD8,#D8271C,0,10,1,38,1,4040,37,1,884,0,1,experiment,NA,NA,2,0.5,0.5,4,5,133,3,NA
fcp-trial,174,1117097,0.0-143.0-0.0,voc_e2,11911,"[{""event"":""focus"",""trial"":0,""time"":0},{""event"":""fullscreenenter"",""trial"":1,""time"":8292},{""event"":""fullscreenexit"",""trial"":88,""time"":627462},{""event"":""blur"",""trial"":88,""time"":630223},{""event"":""focus"",""trial"":88,""time"":631162},{""event"":""blur"",""trial"":90,""time"":637044},{""event"":""focus"",""trial"":91,""time"":646292},{""event"":""blur"",""trial"":138,""time"":768978},{""event"":""focus"",""trial"":139,""time"":770548}]",NA,NA,NA,NA,NA,6,#D8271C,#741CD8,0,10,0,38,1,1543,39,0,635,10,1,experiment,NA,NA,2,0.5,0.5,5,4,134,3,NA
fcp-trial,175,1119567,0.0-144.0-0.0,voc_e2,11911,"[{""event"":""focus"",""trial"":0,""time"":0},{""event"":""fullscreenenter"",""trial"":1,""time"":8292},{""event"":""fullscreenexit"",""trial"":88,""time"":627462},{""event"":""blur"",""trial"":88,""time"":630223},{""event"":""focus"",""trial"":88,""time"":631162},{""event"":""blur"",""trial"":90,""time"":637044},{""event"":""focus"",""trial"":91,""time"":646292},{""event"":""blur"",""trial"":138,""time"":768978},{""event"":""focus"",""trial"":139,""time"":770548}]",NA,NA,NA,NA,NA,2,#D89F1C,#3386FF,10,0,1,38,1,246,37,1,703,10,1,experiment,NA,NA,0,0.9,0.1,0,1,135,3,NA
fcp-trial,176,1121857,0.0-145.0-0.0,voc_e2,11911,"[{""event"":""focus"",""trial"":0,""time"":0},{""event"":""fullscreenenter"",""trial"":1,""time"":8292},{""event"":""fullscreenexit"",""trial"":88,""time"":627462},{""event"":""blur"",""trial"":88,""time"":630223},{""event"":""focus"",""trial"":88,""time"":631162},{""event"":""blur"",""trial"":90,""time"":637044},{""event"":""focus"",""trial"":91,""time"":646292},{""event"":""blur"",""trial"":138,""time"":768978},{""event"":""focus"",""trial"":139,""time"":770548}]",NA,NA,NA,NA,NA,3,#1CD855,#FA92F8,0,10,0,38,1,418,37,1,335,0,0,experiment,NA,NA,1,0.3,0.7,3,2,136,4,NA
fcp-trial,177,1124393,0.0-146.0-0.0,voc_e2,11911,"[{""event"":""focus"",""trial"":0,""time"":0},{""event"":""fullscreenenter"",""trial"":1,""time"":8292},{""event"":""fullscreenexit"",""trial"":88,""time"":627462},{""event"":""blur"",""trial"":88,""time"":630223},{""event"":""focus"",""trial"":88,""time"":631162},{""event"":""blur"",""trial"":90,""time"":637044},{""event"":""focus"",""trial"":91,""time"":646292},{""event"":""blur"",""trial"":138,""time"":768978},{""event"":""focus"",""trial"":139,""time"":770548}]",NA,NA,NA,NA,NA,2,#D8271C,#741CD8,10,0,0,38,1,607,39,0,402,0,1,experiment,NA,NA,2,0.5,0.5,5,4,137,4,NA
fcp-trial,178,1126811,0.0-147.0-0.0,voc_e2,11911,"[{""event"":""focus"",""trial"":0,""time"":0},{""event"":""fullscreenenter"",""trial"":1,""time"":8292},{""event"":""fullscreenexit"",""trial"":88,""time"":627462},{""event"":""blur"",""trial"":88,""time"":630223},{""event"":""focus"",""trial"":88,""time"":631162},{""event"":""blur"",""trial"":90,""time"":637044},{""event"":""focus"",""trial"":91,""time"":646292},{""event"":""blur"",""trial"":138,""time"":768978},{""event"":""focus"",""trial"":139,""time"":770548}]",NA,NA,NA,NA,NA,5,#3386FF,#D89F1C,0,10,0,40,0,454,37,1,436,0,0,experiment,NA,NA,0,0.1,0.9,1,0,138,4,NA
fcp-trial,179,1128729,0.0-148.0-0.0,voc_e2,11911,"[{""event"":""focus"",""trial"":0,""time"":0},{""event"":""fullscreenenter"",""trial"":1,""time"":8292},{""event"":""fullscreenexit"",""trial"":88,""time"":627462},{""event"":""blur"",""trial"":88,""time"":630223},{""event"":""focus"",""trial"":88,""time"":631162},{""event"":""blur"",""trial"":90,""time"":637044},{""event"":""focus"",""trial"":91,""time"":646292},{""event"":""blur"",""trial"":138,""time"":768978},{""event"":""focus"",""trial"":139,""time"":770548}]",NA,NA,NA,NA,NA,1,#D89F1C,#3386FF,10,0,1,40,0,60,39,0,341,0,0,experiment,NA,NA,0,0.9,0.1,0,1,139,4,NA
fcp-trial,180,1130633,0.0-149.0-0.0,voc_e2,11911,"[{""event"":""focus"",""trial"":0,""time"":0},{""event"":""fullscreenenter"",""trial"":1,""time"":8292},{""event"":""fullscreenexit"",""trial"":88,""time"":627462},{""event"":""blur"",""trial"":88,""time"":630223},{""event"":""focus"",""trial"":88,""time"":631162},{""event"":""blur"",""trial"":90,""time"":637044},{""event"":""focus"",""trial"":91,""time"":646292},{""event"":""blur"",""trial"":138,""time"":768978},{""event"":""focus"",""trial"":139,""time"":770548}]",NA,NA,NA,NA,NA,5,#FA92F8,#1CD855,10,0,1,40,0,14,37,1,359,10,1,experiment,NA,NA,1,0.7,0.3,2,3,140,4,NA
fcp-trial,181,1133189,0.0-150.0-0.0,voc_e2,11911,"[{""event"":""focus"",""trial"":0,""time"":0},{""event"":""fullscreenenter"",""trial"":1,""time"":8292},{""event"":""fullscreenexit"",""trial"":88,""time"":627462},{""event"":""blur"",""trial"":88,""time"":630223},{""event"":""focus"",""trial"":88,""time"":631162},{""event"":""blur"",""trial"":90,""time"":637044},{""event"":""focus"",""trial"":91,""time"":646292},{""event"":""blur"",""trial"":138,""time"":768978},{""event"":""focus"",""trial"":139,""time"":770548}]",NA,NA,NA,NA,NA,5,#D8271C,#741CD8,0,10,0,40,0,69,39,0,960,10,1,experiment,NA,NA,2,0.5,0.5,5,4,141,4,NA
fcp-trial,182,1135364,0.0-151.0-0.0,voc_e2,11911,"[{""event"":""focus"",""trial"":0,""time"":0},{""event"":""fullscreenenter"",""trial"":1,""time"":8292},{""event"":""fullscreenexit"",""trial"":88,""time"":627462},{""event"":""blur"",""trial"":88,""time"":630223},{""event"":""focus"",""trial"":88,""time"":631162},{""event"":""blur"",""trial"":90,""time"":637044},{""event"":""focus"",""trial"":91,""time"":646292},{""event"":""blur"",""trial"":138,""time"":768978},{""event"":""focus"",""trial"":139,""time"":770548}]",NA,NA,NA,NA,NA,4,#D89F1C,#3386FF,10,0,1,40,0,249,37,1,404,10,1,experiment,NA,NA,0,0.9,0.1,0,1,142,4,NA
fcp-trial,183,1138136,0.0-152.0-0.0,voc_e2,11911,"[{""event"":""focus"",""trial"":0,""time"":0},{""event"":""fullscreenenter"",""trial"":1,""time"":8292},{""event"":""fullscreenexit"",""trial"":88,""time"":627462},{""event"":""blur"",""trial"":88,""time"":630223},{""event"":""focus"",""trial"":88,""time"":631162},{""event"":""blur"",""trial"":90,""time"":637044},{""event"":""focus"",""trial"":91,""time"":646292},{""event"":""blur"",""trial"":138,""time"":768978},{""event"":""focus"",""trial"":139,""time"":770548}]",NA,NA,NA,NA,NA,2,#FA92F8,#1CD855,10,10,1,40,0,70,39,0,1156,10,0,experiment,NA,NA,1,0.7,0.3,2,3,143,4,NA
fcp-trial,184,1140244,0.0-153.0-0.0,voc_e2,11911,"[{""event"":""focus"",""trial"":0,""time"":0},{""event"":""fullscreenenter"",""trial"":1,""time"":8292},{""event"":""fullscreenexit"",""trial"":88,""time"":627462},{""event"":""blur"",""trial"":88,""time"":630223},{""event"":""focus"",""trial"":88,""time"":631162},{""event"":""blur"",""trial"":90,""time"":637044},{""event"":""focus"",""trial"":91,""time"":646292},{""event"":""blur"",""trial"":138,""time"":768978},{""event"":""focus"",""trial"":139,""time"":770548}]",NA,NA,NA,NA,NA,3,#741CD8,#D8271C,0,0,1,40,0,334,37,1,250,0,1,experiment,NA,NA,2,0.5,0.5,4,5,144,4,NA
fcp-trial,185,1142124,0.0-154.0-0.0,voc_e2,11911,"[{""event"":""focus"",""trial"":0,""time"":0},{""event"":""fullscreenenter"",""trial"":1,""time"":8292},{""event"":""fullscreenexit"",""trial"":88,""time"":627462},{""event"":""blur"",""trial"":88,""time"":630223},{""event"":""focus"",""trial"":88,""time"":631162},{""event"":""blur"",""trial"":90,""time"":637044},{""event"":""focus"",""trial"":91,""time"":646292},{""event"":""blur"",""trial"":138,""time"":768978},{""event"":""focus"",""trial"":139,""time"":770548}]",NA,NA,NA,NA,NA,6,#1CD855,#FA92F8,10,10,0,40,0,99,39,0,261,10,1,experiment,NA,NA,1,0.3,0.7,3,2,145,4,NA
fcp-trial,186,1144395,0.0-155.0-0.0,voc_e2,11911,"[{""event"":""focus"",""trial"":0,""time"":0},{""event"":""fullscreenenter"",""trial"":1,""time"":8292},{""event"":""fullscreenexit"",""trial"":88,""time"":627462},{""event"":""blur"",""trial"":88,""time"":630223},{""event"":""focus"",""trial"":88,""time"":631162},{""event"":""blur"",""trial"":90,""time"":637044},{""event"":""focus"",""trial"":91,""time"":646292},{""event"":""blur"",""trial"":138,""time"":768978},{""event"":""focus"",""trial"":139,""time"":770548}]",NA,NA,NA,NA,NA,0,#FA92F8,#1CD855,10,0,1,40,0,171,37,1,571,10,1,experiment,NA,NA,1,0.7,0.3,2,3,146,4,NA
fcp-trial,187,1147623,0.0-156.0-0.0,voc_e2,11911,"[{""event"":""focus"",""trial"":0,""time"":0},{""event"":""fullscreenenter"",""trial"":1,""time"":8292},{""event"":""fullscreenexit"",""trial"":88,""time"":627462},{""event"":""blur"",""trial"":88,""time"":630223},{""event"":""focus"",""trial"":88,""time"":631162},{""event"":""blur"",""trial"":90,""time"":637044},{""event"":""focus"",""trial"":91,""time"":646292},{""event"":""blur"",""trial"":138,""time"":768978},{""event"":""focus"",""trial"":139,""time"":770548}]",NA,NA,NA,NA,NA,6,#D89F1C,#3386FF,10,0,1,40,0,187,39,0,1525,0,0,experiment,NA,NA,0,0.9,0.1,0,1,147,4,NA
fcp-trial,188,1150656,0.0-157.0-0.0,voc_e2,11911,"[{""event"":""focus"",""trial"":0,""time"":0},{""event"":""fullscreenenter"",""trial"":1,""time"":8292},{""event"":""fullscreenexit"",""trial"":88,""time"":627462},{""event"":""blur"",""trial"":88,""time"":630223},{""event"":""focus"",""trial"":88,""time"":631162},{""event"":""blur"",""trial"":90,""time"":637044},{""event"":""focus"",""trial"":91,""time"":646292},{""event"":""blur"",""trial"":138,""time"":768978},{""event"":""focus"",""trial"":139,""time"":770548}]",NA,NA,NA,NA,NA,4,#741CD8,#D8271C,10,10,1,40,0,1000,37,1,503,10,1,experiment,NA,NA,2,0.5,0.5,4,5,148,4,NA
fcp-trial,189,1152794,0.0-158.0-0.0,voc_e2,11911,"[{""event"":""focus"",""trial"":0,""time"":0},{""event"":""fullscreenenter"",""trial"":1,""time"":8292},{""event"":""fullscreenexit"",""trial"":88,""time"":627462},{""event"":""blur"",""trial"":88,""time"":630223},{""event"":""focus"",""trial"":88,""time"":631162},{""event"":""blur"",""trial"":90,""time"":637044},{""event"":""focus"",""trial"":91,""time"":646292},{""event"":""blur"",""trial"":138,""time"":768978},{""event"":""focus"",""trial"":139,""time"":770548}]",NA,NA,NA,NA,NA,0,#741CD8,#D8271C,10,10,1,40,0,45,39,0,583,10,0,experiment,NA,NA,2,0.5,0.5,4,5,149,4,NA
fcp-trial,190,1154863,0.0-159.0-0.0,voc_e2,11911,"[{""event"":""focus"",""trial"":0,""time"":0},{""event"":""fullscreenenter"",""trial"":1,""time"":8292},{""event"":""fullscreenexit"",""trial"":88,""time"":627462},{""event"":""blur"",""trial"":88,""time"":630223},{""event"":""focus"",""trial"":88,""time"":631162},{""event"":""blur"",""trial"":90,""time"":637044},{""event"":""focus"",""trial"":91,""time"":646292},{""event"":""blur"",""trial"":138,""time"":768978},{""event"":""focus"",""trial"":139,""time"":770548}]",NA,NA,NA,NA,NA,2,#FA92F8,#1CD855,10,0,1,40,0,38,37,1,515,10,1,experiment,NA,NA,1,0.7,0.3,2,3,150,4,NA
fcp-trial,191,1157014,0.0-160.0-0.0,voc_e2,11911,"[{""event"":""focus"",""trial"":0,""time"":0},{""event"":""fullscreenenter"",""trial"":1,""time"":8292},{""event"":""fullscreenexit"",""trial"":88,""time"":627462},{""event"":""blur"",""trial"":88,""time"":630223},{""event"":""focus"",""trial"":88,""time"":631162},{""event"":""blur"",""trial"":90,""time"":637044},{""event"":""focus"",""trial"":91,""time"":646292},{""event"":""blur"",""trial"":138,""time"":768978},{""event"":""focus"",""trial"":139,""time"":770548}]",NA,NA,NA,NA,NA,3,#3386FF,#D89F1C,10,10,0,40,0,192,37,1,433,10,0,experiment,NA,NA,0,0.1,0.9,1,0,151,4,NA
fcp-trial,192,1159013,0.0-161.0-0.0,voc_e2,11911,"[{""event"":""focus"",""trial"":0,""time"":0},{""event"":""fullscreenenter"",""trial"":1,""time"":8292},{""event"":""fullscreenexit"",""trial"":88,""time"":627462},{""event"":""blur"",""trial"":88,""time"":630223},{""event"":""focus"",""trial"":88,""time"":631162},{""event"":""blur"",""trial"":90,""time"":637044},{""event"":""focus"",""trial"":91,""time"":646292},{""event"":""blur"",""trial"":138,""time"":768978},{""event"":""focus"",""trial"":139,""time"":770548}]",NA,NA,NA,NA,NA,0,#3386FF,#D89F1C,10,0,0,40,0,8,37,1,485,10,0,experiment,NA,NA,0,0.1,0.9,1,0,152,4,NA
fcp-trial,193,1161083,0.0-162.0-0.0,voc_e2,11911,"[{""event"":""focus"",""trial"":0,""time"":0},{""event"":""fullscreenenter"",""trial"":1,""time"":8292},{""event"":""fullscreenexit"",""trial"":88,""time"":627462},{""event"":""blur"",""trial"":88,""time"":630223},{""event"":""focus"",""trial"":88,""time"":631162},{""event"":""blur"",""trial"":90,""time"":637044},{""event"":""focus"",""trial"":91,""time"":646292},{""event"":""blur"",""trial"":138,""time"":768978},{""event"":""focus"",""trial"":139,""time"":770548}]",NA,NA,NA,NA,NA,2,#D8271C,#741CD8,0,0,0,40,0,82,37,1,460,0,0,experiment,NA,NA,2,0.5,0.5,5,4,153,4,NA
fcp-trial,194,1163533,0.0-163.0-0.0,voc_e2,11911,"[{""event"":""focus"",""trial"":0,""time"":0},{""event"":""fullscreenenter"",""trial"":1,""time"":8292},{""event"":""fullscreenexit"",""trial"":88,""time"":627462},{""event"":""blur"",""trial"":88,""time"":630223},{""event"":""focus"",""trial"":88,""time"":631162},{""event"":""blur"",""trial"":90,""time"":637044},{""event"":""focus"",""trial"":91,""time"":646292},{""event"":""blur"",""trial"":138,""time"":768978},{""event"":""focus"",""trial"":139,""time"":770548}]",NA,NA,NA,NA,NA,5,#3386FF,#D89F1C,0,0,0,40,0,212,37,1,707,0,0,experiment,NA,NA,0,0.1,0.9,1,0,154,4,NA
fcp-trial,195,1165370,0.0-164.0-0.0,voc_e2,11911,"[{""event"":""focus"",""trial"":0,""time"":0},{""event"":""fullscreenenter"",""trial"":1,""time"":8292},{""event"":""fullscreenexit"",""trial"":88,""time"":627462},{""event"":""blur"",""trial"":88,""time"":630223},{""event"":""focus"",""trial"":88,""time"":631162},{""event"":""blur"",""trial"":90,""time"":637044},{""event"":""focus"",""trial"":91,""time"":646292},{""event"":""blur"",""trial"":138,""time"":768978},{""event"":""focus"",""trial"":139,""time"":770548}]",NA,NA,NA,NA,NA,6,#FA92F8,#1CD855,10,0,1,40,0,18,39,0,286,0,0,experiment,NA,NA,1,0.7,0.3,2,3,155,4,NA
fcp-trial,196,1169204,0.0-165.0-0.0,voc_e2,11911,"[{""event"":""focus"",""trial"":0,""time"":0},{""event"":""fullscreenenter"",""trial"":1,""time"":8292},{""event"":""fullscreenexit"",""trial"":88,""time"":627462},{""event"":""blur"",""trial"":88,""time"":630223},{""event"":""focus"",""trial"":88,""time"":631162},{""event"":""blur"",""trial"":90,""time"":637044},{""event"":""focus"",""trial"":91,""time"":646292},{""event"":""blur"",""trial"":138,""time"":768978},{""event"":""focus"",""trial"":139,""time"":770548}]",NA,NA,NA,NA,NA,1,#FA92F8,#1CD855,10,0,1,40,0,1629,37,1,674,10,1,experiment,NA,NA,1,0.7,0.3,2,3,156,4,NA
fcp-trial,197,1172715,0.0-166.0-0.0,voc_e2,11911,"[{""event"":""focus"",""trial"":0,""time"":0},{""event"":""fullscreenenter"",""trial"":1,""time"":8292},{""event"":""fullscreenexit"",""trial"":88,""time"":627462},{""event"":""blur"",""trial"":88,""time"":630223},{""event"":""focus"",""trial"":88,""time"":631162},{""event"":""blur"",""trial"":90,""time"":637044},{""event"":""focus"",""trial"":91,""time"":646292},{""event"":""blur"",""trial"":138,""time"":768978},{""event"":""focus"",""trial"":139,""time"":770548}]",NA,NA,NA,NA,NA,6,#D8271C,#741CD8,0,0,0,40,0,1515,39,0,466,0,1,experiment,NA,NA,2,0.5,0.5,5,4,157,4,NA
fcp-trial,198,1175266,0.0-167.0-0.0,voc_e2,11911,"[{""event"":""focus"",""trial"":0,""time"":0},{""event"":""fullscreenenter"",""trial"":1,""time"":8292},{""event"":""fullscreenexit"",""trial"":88,""time"":627462},{""event"":""blur"",""trial"":88,""time"":630223},{""event"":""focus"",""trial"":88,""time"":631162},{""event"":""blur"",""trial"":90,""time"":637044},{""event"":""focus"",""trial"":91,""time"":646292},{""event"":""blur"",""trial"":138,""time"":768978},{""event"":""focus"",""trial"":139,""time"":770548}]",NA,NA,NA,NA,NA,5,#FA92F8,#1CD855,10,0,1,40,0,145,39,0,872,0,0,experiment,NA,NA,1,0.7,0.3,2,3,158,4,NA
fcp-trial,199,1177286,0.0-168.0-0.0,voc_e2,11911,"[{""event"":""focus"",""trial"":0,""time"":0},{""event"":""fullscreenenter"",""trial"":1,""time"":8292},{""event"":""fullscreenexit"",""trial"":88,""time"":627462},{""event"":""blur"",""trial"":88,""time"":630223},{""event"":""focus"",""trial"":88,""time"":631162},{""event"":""blur"",""trial"":90,""time"":637044},{""event"":""focus"",""trial"":91,""time"":646292},{""event"":""blur"",""trial"":138,""time"":768978},{""event"":""focus"",""trial"":139,""time"":770548}]",NA,NA,NA,NA,NA,1,#D89F1C,#3386FF,10,0,1,40,0,76,39,0,426,0,0,experiment,NA,NA,0,0.9,0.1,0,1,159,4,NA
fcp-trial,200,1179177,0.0-169.0-0.0,voc_e2,11911,"[{""event"":""focus"",""trial"":0,""time"":0},{""event"":""fullscreenenter"",""trial"":1,""time"":8292},{""event"":""fullscreenexit"",""trial"":88,""time"":627462},{""event"":""blur"",""trial"":88,""time"":630223},{""event"":""focus"",""trial"":88,""time"":631162},{""event"":""blur"",""trial"":90,""time"":637044},{""event"":""focus"",""trial"":91,""time"":646292},{""event"":""blur"",""trial"":138,""time"":768978},{""event"":""focus"",""trial"":139,""time"":770548}]",NA,NA,NA,NA,NA,0,#FA92F8,#1CD855,0,0,1,40,0,9,39,0,354,0,0,experiment,NA,NA,1,0.7,0.3,2,3,160,4,NA
fcp-trial,201,1181433,0.0-170.0-0.0,voc_e2,11911,"[{""event"":""focus"",""trial"":0,""time"":0},{""event"":""fullscreenenter"",""trial"":1,""time"":8292},{""event"":""fullscreenexit"",""trial"":88,""time"":627462},{""event"":""blur"",""trial"":88,""time"":630223},{""event"":""focus"",""trial"":88,""time"":631162},{""event"":""blur"",""trial"":90,""time"":637044},{""event"":""focus"",""trial"":91,""time"":646292},{""event"":""blur"",""trial"":138,""time"":768978},{""event"":""focus"",""trial"":139,""time"":770548}]",NA,NA,NA,NA,NA,3,#741CD8,#D8271C,0,0,1,40,0,96,37,1,466,0,1,experiment,NA,NA,2,0.5,0.5,4,5,161,4,NA
fcp-trial,202,1183940,0.0-171.0-0.0,voc_e2,11911,"[{""event"":""focus"",""trial"":0,""time"":0},{""event"":""fullscreenenter"",""trial"":1,""time"":8292},{""event"":""fullscreenexit"",""trial"":88,""time"":627462},{""event"":""blur"",""trial"":88,""time"":630223},{""event"":""focus"",""trial"":88,""time"":631162},{""event"":""blur"",""trial"":90,""time"":637044},{""event"":""focus"",""trial"":91,""time"":646292},{""event"":""blur"",""trial"":138,""time"":768978},{""event"":""focus"",""trial"":139,""time"":770548}]",NA,NA,NA,NA,NA,3,#1CD855,#FA92F8,10,10,0,40,0,391,39,0,508,10,1,experiment,NA,NA,1,0.3,0.7,3,2,162,4,NA
fcp-trial,203,1186439,0.0-172.0-0.0,voc_e2,11911,"[{""event"":""focus"",""trial"":0,""time"":0},{""event"":""fullscreenenter"",""trial"":1,""time"":8292},{""event"":""fullscreenexit"",""trial"":88,""time"":627462},{""event"":""blur"",""trial"":88,""time"":630223},{""event"":""focus"",""trial"":88,""time"":631162},{""event"":""blur"",""trial"":90,""time"":637044},{""event"":""focus"",""trial"":91,""time"":646292},{""event"":""blur"",""trial"":138,""time"":768978},{""event"":""focus"",""trial"":139,""time"":770548}]",NA,NA,NA,NA,NA,1,#741CD8,#D8271C,10,0,1,40,0,429,39,0,464,0,0,experiment,NA,NA,2,0.5,0.5,4,5,163,4,NA
fcp-trial,204,1188957,0.0-173.0-0.0,voc_e2,11911,"[{""event"":""focus"",""trial"":0,""time"":0},{""event"":""fullscreenenter"",""trial"":1,""time"":8292},{""event"":""fullscreenexit"",""trial"":88,""time"":627462},{""event"":""blur"",""trial"":88,""time"":630223},{""event"":""focus"",""trial"":88,""time"":631162},{""event"":""blur"",""trial"":90,""time"":637044},{""event"":""focus"",""trial"":91,""time"":646292},{""event"":""blur"",""trial"":138,""time"":768978},{""event"":""focus"",""trial"":139,""time"":770548}]",NA,NA,NA,NA,NA,6,#D89F1C,#3386FF,10,0,1,40,0,401,37,1,510,10,1,experiment,NA,NA,0,0.9,0.1,0,1,164,4,NA
fcp-trial,205,1191445,0.0-174.0-0.0,voc_e2,11911,"[{""event"":""focus"",""trial"":0,""time"":0},{""event"":""fullscreenenter"",""trial"":1,""time"":8292},{""event"":""fullscreenexit"",""trial"":88,""time"":627462},{""event"":""blur"",""trial"":88,""time"":630223},{""event"":""focus"",""trial"":88,""time"":631162},{""event"":""blur"",""trial"":90,""time"":637044},{""event"":""focus"",""trial"":91,""time"":646292},{""event"":""blur"",""trial"":138,""time"":768978},{""event"":""focus"",""trial"":139,""time"":770548}]",NA,NA,NA,NA,NA,2,#D89F1C,#3386FF,10,0,1,40,0,346,37,1,512,10,1,experiment,NA,NA,0,0.9,0.1,0,1,165,4,NA
fcp-trial,206,1193629,0.0-175.0-0.0,voc_e2,11911,"[{""event"":""focus"",""trial"":0,""time"":0},{""event"":""fullscreenenter"",""trial"":1,""time"":8292},{""event"":""fullscreenexit"",""trial"":88,""time"":627462},{""event"":""blur"",""trial"":88,""time"":630223},{""event"":""focus"",""trial"":88,""time"":631162},{""event"":""blur"",""trial"":90,""time"":637044},{""event"":""focus"",""trial"":91,""time"":646292},{""event"":""blur"",""trial"":138,""time"":768978},{""event"":""focus"",""trial"":139,""time"":770548}]",NA,NA,NA,NA,NA,4,#FA92F8,#1CD855,10,0,1,40,0,241,39,0,428,0,0,experiment,NA,NA,1,0.7,0.3,2,3,166,4,NA
fcp-trial,207,1195916,0.0-176.0-0.0,voc_e2,11911,"[{""event"":""focus"",""trial"":0,""time"":0},{""event"":""fullscreenenter"",""trial"":1,""time"":8292},{""event"":""fullscreenexit"",""trial"":88,""time"":627462},{""event"":""blur"",""trial"":88,""time"":630223},{""event"":""focus"",""trial"":88,""time"":631162},{""event"":""blur"",""trial"":90,""time"":637044},{""event"":""focus"",""trial"":91,""time"":646292},{""event"":""blur"",""trial"":138,""time"":768978},{""event"":""focus"",""trial"":139,""time"":770548}]",NA,NA,NA,NA,NA,5,#D8271C,#741CD8,10,10,0,40,0,106,37,1,665,10,0,experiment,NA,NA,2,0.5,0.5,5,4,167,4,NA
fcp-trial,208,1197955,0.0-177.0-0.0,voc_e2,11911,"[{""event"":""focus"",""trial"":0,""time"":0},{""event"":""fullscreenenter"",""trial"":1,""time"":8292},{""event"":""fullscreenexit"",""trial"":88,""time"":627462},{""event"":""blur"",""trial"":88,""time"":630223},{""event"":""focus"",""trial"":88,""time"":631162},{""event"":""blur"",""trial"":90,""time"":637044},{""event"":""focus"",""trial"":91,""time"":646292},{""event"":""blur"",""trial"":138,""time"":768978},{""event"":""focus"",""trial"":139,""time"":770548}]",NA,NA,NA,NA,NA,4,#3386FF,#D89F1C,0,10,0,40,0,225,39,0,300,10,1,experiment,NA,NA,0,0.1,0.9,1,0,168,4,NA
fcp-trial,209,1200330,0.0-178.0-0.0,voc_e2,11911,"[{""event"":""focus"",""trial"":0,""time"":0},{""event"":""fullscreenenter"",""trial"":1,""time"":8292},{""event"":""fullscreenexit"",""trial"":88,""time"":627462},{""event"":""blur"",""trial"":88,""time"":630223},{""event"":""focus"",""trial"":88,""time"":631162},{""event"":""blur"",""trial"":90,""time"":637044},{""event"":""focus"",""trial"":91,""time"":646292},{""event"":""blur"",""trial"":138,""time"":768978},{""event"":""focus"",""trial"":139,""time"":770548}]",NA,NA,NA,NA,NA,3,#1CD855,#FA92F8,0,10,0,40,0,311,37,1,534,0,0,experiment,NA,NA,1,0.3,0.7,3,2,169,4,NA
fcp-trial,210,1202771,0.0-179.0-0.0,voc_e2,11911,"[{""event"":""focus"",""trial"":0,""time"":0},{""event"":""fullscreenenter"",""trial"":1,""time"":8292},{""event"":""fullscreenexit"",""trial"":88,""time"":627462},{""event"":""blur"",""trial"":88,""time"":630223},{""event"":""focus"",""trial"":88,""time"":631162},{""event"":""blur"",""trial"":90,""time"":637044},{""event"":""focus"",""trial"":91,""time"":646292},{""event"":""blur"",""trial"":138,""time"":768978},{""event"":""focus"",""trial"":139,""time"":770548}]",NA,NA,NA,NA,NA,3,#741CD8,#D8271C,0,0,1,40,0,472,39,0,314,0,0,experiment,NA,NA,2,0.5,0.5,4,5,170,4,NA
fcp-trial,211,1205443,0.0-180.0-0.0,voc_e2,11911,"[{""event"":""focus"",""trial"":0,""time"":0},{""event"":""fullscreenenter"",""trial"":1,""time"":8292},{""event"":""fullscreenexit"",""trial"":88,""time"":627462},{""event"":""blur"",""trial"":88,""time"":630223},{""event"":""focus"",""trial"":88,""time"":631162},{""event"":""blur"",""trial"":90,""time"":637044},{""event"":""focus"",""trial"":91,""time"":646292},{""event"":""blur"",""trial"":138,""time"":768978},{""event"":""focus"",""trial"":139,""time"":770548}]",NA,NA,NA,NA,NA,1,#3386FF,#D89F1C,0,10,0,40,0,755,39,0,392,10,1,experiment,NA,NA,0,0.1,0.9,1,0,171,4,NA
fcp-trial,212,1207953,0.0-181.0-0.0,voc_e2,11911,"[{""event"":""focus"",""trial"":0,""time"":0},{""event"":""fullscreenenter"",""trial"":1,""time"":8292},{""event"":""fullscreenexit"",""trial"":88,""time"":627462},{""event"":""blur"",""trial"":88,""time"":630223},{""event"":""focus"",""trial"":88,""time"":631162},{""event"":""blur"",""trial"":90,""time"":637044},{""event"":""focus"",""trial"":91,""time"":646292},{""event"":""blur"",""trial"":138,""time"":768978},{""event"":""focus"",""trial"":139,""time"":770548}]",NA,NA,NA,NA,NA,2,#3386FF,#D89F1C,0,10,0,40,0,171,39,0,822,10,1,experiment,NA,NA,0,0.1,0.9,1,0,172,4,NA
fcp-trial,213,1210507,0.0-182.0-0.0,voc_e2,11911,"[{""event"":""focus"",""trial"":0,""time"":0},{""event"":""fullscreenenter"",""trial"":1,""time"":8292},{""event"":""fullscreenexit"",""trial"":88,""time"":627462},{""event"":""blur"",""trial"":88,""time"":630223},{""event"":""focus"",""trial"":88,""time"":631162},{""event"":""blur"",""trial"":90,""time"":637044},{""event"":""focus"",""trial"":91,""time"":646292},{""event"":""blur"",""trial"":138,""time"":768978},{""event"":""focus"",""trial"":139,""time"":770548}]",NA,NA,NA,NA,NA,0,#3386FF,#D89F1C,0,0,0,40,0,114,39,0,918,0,1,experiment,NA,NA,0,0.1,0.9,1,0,173,4,NA
fcp-trial,214,1212601,0.0-183.0-0.0,voc_e2,11911,"[{""event"":""focus"",""trial"":0,""time"":0},{""event"":""fullscreenenter"",""trial"":1,""time"":8292},{""event"":""fullscreenexit"",""trial"":88,""time"":627462},{""event"":""blur"",""trial"":88,""time"":630223},{""event"":""focus"",""trial"":88,""time"":631162},{""event"":""blur"",""trial"":90,""time"":637044},{""event"":""focus"",""trial"":91,""time"":646292},{""event"":""blur"",""trial"":138,""time"":768978},{""event"":""focus"",""trial"":139,""time"":770548}]",NA,NA,NA,NA,NA,4,#1CD855,#FA92F8,0,10,0,40,0,77,39,0,494,10,1,experiment,NA,NA,1,0.3,0.7,3,2,174,4,NA
fcp-trial,215,1215098,0.0-184.0-0.0,voc_e2,11911,"[{""event"":""focus"",""trial"":0,""time"":0},{""event"":""fullscreenenter"",""trial"":1,""time"":8292},{""event"":""fullscreenexit"",""trial"":88,""time"":627462},{""event"":""blur"",""trial"":88,""time"":630223},{""event"":""focus"",""trial"":88,""time"":631162},{""event"":""blur"",""trial"":90,""time"":637044},{""event"":""focus"",""trial"":91,""time"":646292},{""event"":""blur"",""trial"":138,""time"":768978},{""event"":""focus"",""trial"":139,""time"":770548}]",NA,NA,NA,NA,NA,5,#D8271C,#741CD8,10,0,0,40,0,342,37,1,640,10,0,experiment,NA,NA,2,0.5,0.5,5,4,175,4,NA
fcp-trial,216,1218917,0.0-185.0-0.0,voc_e2,11911,"[{""event"":""focus"",""trial"":0,""time"":0},{""event"":""fullscreenenter"",""trial"":1,""time"":8292},{""event"":""fullscreenexit"",""trial"":88,""time"":627462},{""event"":""blur"",""trial"":88,""time"":630223},{""event"":""focus"",""trial"":88,""time"":631162},{""event"":""blur"",""trial"":90,""time"":637044},{""event"":""focus"",""trial"":91,""time"":646292},{""event"":""blur"",""trial"":138,""time"":768978},{""event"":""focus"",""trial"":139,""time"":770548}]",NA,NA,NA,NA,NA,1,#FA92F8,#1CD855,10,10,1,40,0,1819,39,0,482,10,0,experiment,NA,NA,1,0.7,0.3,2,3,176,4,NA
fcp-trial,217,1220940,0.0-186.0-0.0,voc_e2,11911,"[{""event"":""focus"",""trial"":0,""time"":0},{""event"":""fullscreenenter"",""trial"":1,""time"":8292},{""event"":""fullscreenexit"",""trial"":88,""time"":627462},{""event"":""blur"",""trial"":88,""time"":630223},{""event"":""focus"",""trial"":88,""time"":631162},{""event"":""blur"",""trial"":90,""time"":637044},{""event"":""focus"",""trial"":91,""time"":646292},{""event"":""blur"",""trial"":138,""time"":768978},{""event"":""focus"",""trial"":139,""time"":770548}]",NA,NA,NA,NA,NA,6,#FA92F8,#1CD855,10,0,1,40,0,53,39,0,449,0,0,experiment,NA,NA,1,0.7,0.3,2,3,177,4,NA
fcp-trial,218,1223055,0.0-187.0-0.0,voc_e2,11911,"[{""event"":""focus"",""trial"":0,""time"":0},{""event"":""fullscreenenter"",""trial"":1,""time"":8292},{""event"":""fullscreenexit"",""trial"":88,""time"":627462},{""event"":""blur"",""trial"":88,""time"":630223},{""event"":""focus"",""trial"":88,""time"":631162},{""event"":""blur"",""trial"":90,""time"":637044},{""event"":""focus"",""trial"":91,""time"":646292},{""event"":""blur"",""trial"":138,""time"":768978},{""event"":""focus"",""trial"":139,""time"":770548}]",NA,NA,NA,NA,NA,4,#3386FF,#D89F1C,0,0,0,40,0,66,37,1,518,0,0,experiment,NA,NA,0,0.1,0.9,1,0,178,4,NA
