trial_type,trial_index,time_elapsed,internal_node_id,task_version,subject_id,interactions,success,rt,stimulus,key_press,button_pressed,offer,arcade_color_L,arcade_color_R,arcade_outcome_L,arcade_outcome_R,correct,stage_1_key,stage_1_choice,stage_1_rt,stage_2_key,stage_2_choice,stage_2_rt,stage_3_outcome,accuracy,phase,responses,num_errors,context,reward_prob_L,reward_prob_R,arcade_id_L,arcade_id_R,trial,block,response
pavlovia,0,11,0.0-0.0,voc_e2,11838,[],NA,NA,NA,NA,NA,NA,NA,NA,NA,NA,NA,NA,NA,NA,NA,NA,NA,NA,NA,NA,NA,NA,NA,NA,NA,NA,NA,NA,NA,NA
fullscreen,1,2348,0.0-1.0,voc_e2,11838,"[{""event"":""fullscreenenter"",""trial"":1,""time"":1366}]",TRUE,NA,NA,NA,NA,NA,NA,NA,NA,NA,NA,NA,NA,NA,NA,NA,NA,NA,NA,NA,NA,NA,NA,NA,NA,NA,NA,NA,NA,NA
audio-keyboard-response,2,4683,0.0-2.0,voc_e2,11838,"[{""event"":""fullscreenenter"",""trial"":1,""time"":1366},{""event"":""fullscreenexit"",""trial"":2,""time"":2416}]",NA,2301,static/audio/beep_loop.wav,32,NA,NA,NA,NA,NA,NA,NA,NA,NA,NA,NA,NA,NA,NA,NA,NA,NA,NA,NA,NA,NA,NA,NA,NA,NA,NA
audio-test,3,6166,0.0-3.0,voc_e2,11838,"[{""event"":""fullscreenenter"",""trial"":1,""time"":1366},{""event"":""fullscreenexit"",""trial"":2,""time"":2416}]",NA,NA,static/audio/turtle.wav,NA,3,NA,NA,NA,NA,NA,NA,NA,NA,NA,NA,NA,NA,NA,NA,NA,NA,NA,NA,NA,NA,NA,NA,NA,NA,NA
audio-test,4,8279,0.0-4.0,voc_e2,11838,"[{""event"":""fullscreenenter"",""trial"":1,""time"":1366},{""event"":""fullscreenexit"",""trial"":2,""time"":2416}]",NA,NA,static/audio/shark.wav,NA,2,NA,NA,NA,NA,NA,NA,NA,NA,NA,NA,NA,NA,NA,NA,NA,NA,NA,NA,NA,NA,NA,NA,NA,NA,NA
audio-instructions,5,15363,0.0-5.0-0.0,voc_e2,11838,"[{""event"":""fullscreenenter"",""trial"":1,""time"":1366},{""event"":""fullscreenexit"",""trial"":2,""time"":2416}]",NA,1302.2000000029802,static/audio/instructions1.wav,NA,0,NA,NA,NA,NA,NA,NA,NA,NA,NA,NA,NA,NA,NA,NA,NA,NA,NA,NA,NA,NA,NA,NA,NA,NA,NA
audio-instructions,6,23255,0.0-5.0-1.0,voc_e2,11838,"[{""event"":""fullscreenenter"",""trial"":1,""time"":1366},{""event"":""fullscreenexit"",""trial"":2,""time"":2416}]",NA,1144.7999999970198,static/audio/instructions2.wav,NA,0,NA,NA,NA,NA,NA,NA,NA,NA,NA,NA,NA,NA,NA,NA,NA,NA,NA,NA,NA,NA,NA,NA,NA,NA,NA
audio-instructions,7,29523,0.0-5.0-2.0,voc_e2,11838,"[{""event"":""fullscreenenter"",""trial"":1,""time"":1366},{""event"":""fullscreenexit"",""trial"":2,""time"":2416}]",NA,462.20000000298023,static/audio/instructions3.wav,NA,0,NA,NA,NA,NA,NA,NA,NA,NA,NA,NA,NA,NA,NA,NA,NA,NA,NA,NA,NA,NA,NA,NA,NA,NA,NA
audio-instructions,8,48435,0.0-5.0-3.0,voc_e2,11838,"[{""event"":""fullscreenenter"",""trial"":1,""time"":1366},{""event"":""fullscreenexit"",""trial"":2,""time"":2416}]",NA,5684.800000011921,static/audio/instructions4.wav,NA,0,NA,NA,NA,NA,NA,NA,NA,NA,NA,NA,NA,NA,NA,NA,NA,NA,NA,NA,NA,NA,NA,NA,NA,NA,NA
audio-instructions,9,58395,0.0-5.0-4.0,voc_e2,11838,"[{""event"":""fullscreenenter"",""trial"":1,""time"":1366},{""event"":""fullscreenexit"",""trial"":2,""time"":2416}]",NA,574.2999999970198,static/audio/instructions5.wav,NA,0,NA,NA,NA,NA,NA,NA,NA,NA,NA,NA,NA,NA,NA,NA,NA,NA,NA,NA,NA,NA,NA,NA,NA,NA,NA
fcp-practice,10,61070,0.0-5.0-5.0-0.0,voc_e2,11838,"[{""event"":""fullscreenenter"",""trial"":1,""time"":1366},{""event"":""fullscreenexit"",""trial"":2,""time"":2416}]",NA,NA,NA,NA,NA,NA,#EDC948,#46d3c8,10,0,1,null,null,null,37,1,1156,10,1,practice,NA,NA,NA,NA,NA,NA,NA,NA,NA,NA
fcp-practice,11,62715,0.0-5.0-5.0-1.0,voc_e2,11838,"[{""event"":""fullscreenenter"",""trial"":1,""time"":1366},{""event"":""fullscreenexit"",""trial"":2,""time"":2416}]",NA,NA,NA,NA,NA,NA,#EDC948,#46d3c8,10,0,1,null,null,null,37,1,130.20000000298023,10,1,practice,NA,NA,NA,NA,NA,NA,NA,NA,NA,NA
fcp-practice,12,64539,0.0-5.0-5.0-2.0,voc_e2,11838,"[{""event"":""fullscreenenter"",""trial"":1,""time"":1366},{""event"":""fullscreenexit"",""trial"":2,""time"":2416}]",NA,NA,NA,NA,NA,NA,#EDC948,#46d3c8,0,10,1,null,null,null,37,1,318.09999999403954,0,1,practice,NA,NA,NA,NA,NA,NA,NA,NA,NA,NA
fcp-practice,13,66361,0.0-5.0-5.0-3.0,voc_e2,11838,"[{""event"":""fullscreenenter"",""trial"":1,""time"":1366},{""event"":""fullscreenexit"",""trial"":2,""time"":2416}]",NA,NA,NA,NA,NA,NA,#EDC948,#46d3c8,10,0,1,null,null,null,37,1,315.30000001192093,10,1,practice,NA,NA,NA,NA,NA,NA,NA,NA,NA,NA
fcp-practice,14,69623,0.0-5.0-5.0-4.0,voc_e2,11838,"[{""event"":""fullscreenenter"",""trial"":1,""time"":1366},{""event"":""fullscreenexit"",""trial"":2,""time"":2416}]",NA,NA,NA,NA,NA,NA,#EDC948,#46d3c8,10,0,1,null,null,null,37,1,1759.2999999970198,10,1,practice,NA,NA,NA,NA,NA,NA,NA,NA,NA,NA
audio-instructions,15,91411,0.0-5.0-6.0,voc_e2,11838,"[{""event"":""fullscreenenter"",""trial"":1,""time"":1366},{""event"":""fullscreenexit"",""trial"":2,""time"":2416}]",NA,3780.400000005961,static/audio/instructions6.wav,NA,0,NA,NA,NA,NA,NA,NA,NA,NA,NA,NA,NA,NA,NA,NA,NA,NA,NA,NA,NA,NA,NA,NA,NA,NA,NA
audio-instructions,16,112286,0.0-5.0-7.0,voc_e2,11838,"[{""event"":""fullscreenenter"",""trial"":1,""time"":1366},{""event"":""fullscreenexit"",""trial"":2,""time"":2416},{""event"":""blur"",""trial"":16,""time"":94616},{""event"":""focus"",""trial"":16,""time"":100908}]",NA,1676.699999988079,static/audio/instructions7.wav,NA,0,NA,NA,NA,NA,NA,NA,NA,NA,NA,NA,NA,NA,NA,NA,NA,NA,NA,NA,NA,NA,NA,NA,NA,NA,NA
audio-instructions,17,995783,0.0-5.0-8.0,voc_e2,11838,"[{""event"":""fullscreenenter"",""trial"":1,""time"":1366},{""event"":""fullscreenexit"",""trial"":2,""time"":2416},{""event"":""blur"",""trial"":16,""time"":94616},{""event"":""focus"",""trial"":16,""time"":100908},{""event"":""blur"",""trial"":17,""time"":117199},{""event"":""focus"",""trial"":17,""time"":129822}]",NA,874023.3999999911,static/audio/instructions8.wav,NA,0,NA,NA,NA,NA,NA,NA,NA,NA,NA,NA,NA,NA,NA,NA,NA,NA,NA,NA,NA,NA,NA,NA,NA,NA,NA
fcp-comprehension,18,1001875,0.0-5.0-9.0,voc_e2,11838,"[{""event"":""fullscreenenter"",""trial"":1,""time"":1366},{""event"":""fullscreenexit"",""trial"":2,""time"":2416},{""event"":""blur"",""trial"":16,""time"":94616},{""event"":""focus"",""trial"":16,""time"":100908},{""event"":""blur"",""trial"":17,""time"":117199},{""event"":""focus"",""trial"":17,""time"":129822}]",NA,6090.5,NA,NA,NA,NA,NA,NA,NA,NA,NA,NA,NA,NA,NA,NA,NA,NA,NA,NA,"false,true",1,NA,NA,NA,NA,NA,NA,NA,NA
audio-instructions,19,1008460,0.0-5.1-0.1,voc_e2,11838,"[{""event"":""fullscreenenter"",""trial"":1,""time"":1366},{""event"":""fullscreenexit"",""trial"":2,""time"":2416},{""event"":""blur"",""trial"":16,""time"":94616},{""event"":""focus"",""trial"":16,""time"":100908},{""event"":""blur"",""trial"":17,""time"":117199},{""event"":""focus"",""trial"":17,""time"":129822}]",NA,1762.8999999910593,static/audio/instructions1.wav,NA,0,NA,NA,NA,NA,NA,NA,NA,NA,NA,NA,NA,NA,NA,NA,NA,NA,NA,NA,NA,NA,NA,NA,NA,NA,NA
audio-instructions,20,1018391,0.0-5.1-1.1,voc_e2,11838,"[{""event"":""fullscreenenter"",""trial"":1,""time"":1366},{""event"":""fullscreenexit"",""trial"":2,""time"":2416},{""event"":""blur"",""trial"":16,""time"":94616},{""event"":""focus"",""trial"":16,""time"":100908},{""event"":""blur"",""trial"":17,""time"":117199},{""event"":""focus"",""trial"":17,""time"":129822},{""event"":""blur"",""trial"":20,""time"":1010580},{""event"":""focus"",""trial"":20,""time"":1017218}]",NA,3184,static/audio/instructions2.wav,NA,0,NA,NA,NA,NA,NA,NA,NA,NA,NA,NA,NA,NA,NA,NA,NA,NA,NA,NA,NA,NA,NA,NA,NA,NA,NA
audio-instructions,21,1036455,0.0-5.1-2.1,voc_e2,11838,"[{""event"":""fullscreenenter"",""trial"":1,""time"":1366},{""event"":""fullscreenexit"",""trial"":2,""time"":2416},{""event"":""blur"",""trial"":16,""time"":94616},{""event"":""focus"",""trial"":16,""time"":100908},{""event"":""blur"",""trial"":17,""time"":117199},{""event"":""focus"",""trial"":17,""time"":129822},{""event"":""blur"",""trial"":20,""time"":1010580},{""event"":""focus"",""trial"":20,""time"":1017218},{""event"":""blur"",""trial"":21,""time"":1022177},{""event"":""focus"",""trial"":21,""time"":1027632},{""event"":""blur"",""trial"":21,""time"":1028632},{""event"":""focus"",""trial"":21,""time"":1034947}]",NA,12256.69999998808,static/audio/instructions3.wav,NA,0,NA,NA,NA,NA,NA,NA,NA,NA,NA,NA,NA,NA,NA,NA,NA,NA,NA,NA,NA,NA,NA,NA,NA,NA,NA
audio-instructions,22,1051863,0.0-5.1-3.1,voc_e2,11838,"[{""event"":""fullscreenenter"",""trial"":1,""time"":1366},{""event"":""fullscreenexit"",""trial"":2,""time"":2416},{""event"":""blur"",""trial"":16,""time"":94616},{""event"":""focus"",""trial"":16,""time"":100908},{""event"":""blur"",""trial"":17,""time"":117199},{""event"":""focus"",""trial"":17,""time"":129822},{""event"":""blur"",""trial"":20,""time"":1010580},{""event"":""focus"",""trial"":20,""time"":1017218},{""event"":""blur"",""trial"":21,""time"":1022177},{""event"":""focus"",""trial"":21,""time"":1027632},{""event"":""blur"",""trial"":21,""time"":1028632},{""event"":""focus"",""trial"":21,""time"":1034947}]",NA,2186.3999999910593,static/audio/instructions4.wav,NA,0,NA,NA,NA,NA,NA,NA,NA,NA,NA,NA,NA,NA,NA,NA,NA,NA,NA,NA,NA,NA,NA,NA,NA,NA,NA
audio-instructions,23,1064610,0.0-5.1-4.1,voc_e2,11838,"[{""event"":""fullscreenenter"",""trial"":1,""time"":1366},{""event"":""fullscreenexit"",""trial"":2,""time"":2416},{""event"":""blur"",""trial"":16,""time"":94616},{""event"":""focus"",""trial"":16,""time"":100908},{""event"":""blur"",""trial"":17,""time"":117199},{""event"":""focus"",""trial"":17,""time"":129822},{""event"":""blur"",""trial"":20,""time"":1010580},{""event"":""focus"",""trial"":20,""time"":1017218},{""event"":""blur"",""trial"":21,""time"":1022177},{""event"":""focus"",""trial"":21,""time"":1027632},{""event"":""blur"",""trial"":21,""time"":1028632},{""event"":""focus"",""trial"":21,""time"":1034947},{""event"":""blur"",""trial"":23,""time"":1059446},{""event"":""focus"",""trial"":23,""time"":1062833}]",NA,3363.79999999702,static/audio/instructions5.wav,NA,0,NA,NA,NA,NA,NA,NA,NA,NA,NA,NA,NA,NA,NA,NA,NA,NA,NA,NA,NA,NA,NA,NA,NA,NA,NA
fcp-practice,24,1067348,0.0-5.1-5.1-0.1,voc_e2,11838,"[{""event"":""fullscreenenter"",""trial"":1,""time"":1366},{""event"":""fullscreenexit"",""trial"":2,""time"":2416},{""event"":""blur"",""trial"":16,""time"":94616},{""event"":""focus"",""trial"":16,""time"":100908},{""event"":""blur"",""trial"":17,""time"":117199},{""event"":""focus"",""trial"":17,""time"":129822},{""event"":""blur"",""trial"":20,""time"":1010580},{""event"":""focus"",""trial"":20,""time"":1017218},{""event"":""blur"",""trial"":21,""time"":1022177},{""event"":""focus"",""trial"":21,""time"":1027632},{""event"":""blur"",""trial"":21,""time"":1028632},{""event"":""focus"",""trial"":21,""time"":1034947},{""event"":""blur"",""trial"":23,""time"":1059446},{""event"":""focus"",""trial"":23,""time"":1062833}]",NA,NA,NA,NA,NA,NA,#EDC948,#46d3c8,10,0,1,null,null,null,37,1,1232.0999999940395,10,1,practice,NA,NA,NA,NA,NA,NA,NA,NA,NA,NA
fcp-practice,25,1069239,0.0-5.1-5.1-1.1,voc_e2,11838,"[{""event"":""fullscreenenter"",""trial"":1,""time"":1366},{""event"":""fullscreenexit"",""trial"":2,""time"":2416},{""event"":""blur"",""trial"":16,""time"":94616},{""event"":""focus"",""trial"":16,""time"":100908},{""event"":""blur"",""trial"":17,""time"":117199},{""event"":""focus"",""trial"":17,""time"":129822},{""event"":""blur"",""trial"":20,""time"":1010580},{""event"":""focus"",""trial"":20,""time"":1017218},{""event"":""blur"",""trial"":21,""time"":1022177},{""event"":""focus"",""trial"":21,""time"":1027632},{""event"":""blur"",""trial"":21,""time"":1028632},{""event"":""focus"",""trial"":21,""time"":1034947},{""event"":""blur"",""trial"":23,""time"":1059446},{""event"":""focus"",""trial"":23,""time"":1062833}]",NA,NA,NA,NA,NA,NA,#EDC948,#46d3c8,10,0,1,null,null,null,37,1,387.1000000089407,10,1,practice,NA,NA,NA,NA,NA,NA,NA,NA,NA,NA
fcp-practice,26,1071145,0.0-5.1-5.1-2.1,voc_e2,11838,"[{""event"":""fullscreenenter"",""trial"":1,""time"":1366},{""event"":""fullscreenexit"",""trial"":2,""time"":2416},{""event"":""blur"",""trial"":16,""time"":94616},{""event"":""focus"",""trial"":16,""time"":100908},{""event"":""blur"",""trial"":17,""time"":117199},{""event"":""focus"",""trial"":17,""time"":129822},{""event"":""blur"",""trial"":20,""time"":1010580},{""event"":""focus"",""trial"":20,""time"":1017218},{""event"":""blur"",""trial"":21,""time"":1022177},{""event"":""focus"",""trial"":21,""time"":1027632},{""event"":""blur"",""trial"":21,""time"":1028632},{""event"":""focus"",""trial"":21,""time"":1034947},{""event"":""blur"",""trial"":23,""time"":1059446},{""event"":""focus"",""trial"":23,""time"":1062833}]",NA,NA,NA,NA,NA,NA,#EDC948,#46d3c8,0,10,1,null,null,null,37,1,402.20000000298023,0,1,practice,NA,NA,NA,NA,NA,NA,NA,NA,NA,NA
fcp-practice,27,1073040,0.0-5.1-5.1-3.1,voc_e2,11838,"[{""event"":""fullscreenenter"",""trial"":1,""time"":1366},{""event"":""fullscreenexit"",""trial"":2,""time"":2416},{""event"":""blur"",""trial"":16,""time"":94616},{""event"":""focus"",""trial"":16,""time"":100908},{""event"":""blur"",""trial"":17,""time"":117199},{""event"":""focus"",""trial"":17,""time"":129822},{""event"":""blur"",""trial"":20,""time"":1010580},{""event"":""focus"",""trial"":20,""time"":1017218},{""event"":""blur"",""trial"":21,""time"":1022177},{""event"":""focus"",""trial"":21,""time"":1027632},{""event"":""blur"",""trial"":21,""time"":1028632},{""event"":""focus"",""trial"":21,""time"":1034947},{""event"":""blur"",""trial"":23,""time"":1059446},{""event"":""focus"",""trial"":23,""time"":1062833}]",NA,NA,NA,NA,NA,NA,#EDC948,#46d3c8,10,0,1,null,null,null,37,1,392,10,1,practice,NA,NA,NA,NA,NA,NA,NA,NA,NA,NA
fcp-practice,28,1075047,0.0-5.1-5.1-4.1,voc_e2,11838,"[{""event"":""fullscreenenter"",""trial"":1,""time"":1366},{""event"":""fullscreenexit"",""trial"":2,""time"":2416},{""event"":""blur"",""trial"":16,""time"":94616},{""event"":""focus"",""trial"":16,""time"":100908},{""event"":""blur"",""trial"":17,""time"":117199},{""event"":""focus"",""trial"":17,""time"":129822},{""event"":""blur"",""trial"":20,""time"":1010580},{""event"":""focus"",""trial"":20,""time"":1017218},{""event"":""blur"",""trial"":21,""time"":1022177},{""event"":""focus"",""trial"":21,""time"":1027632},{""event"":""blur"",""trial"":21,""time"":1028632},{""event"":""focus"",""trial"":21,""time"":1034947},{""event"":""blur"",""trial"":23,""time"":1059446},{""event"":""focus"",""trial"":23,""time"":1062833}]",NA,NA,NA,NA,NA,NA,#EDC948,#46d3c8,10,0,1,null,null,null,37,1,502.09999999403954,10,1,practice,NA,NA,NA,NA,NA,NA,NA,NA,NA,NA
audio-instructions,29,1097778,0.0-5.1-6.1,voc_e2,11838,"[{""event"":""fullscreenenter"",""trial"":1,""time"":1366},{""event"":""fullscreenexit"",""trial"":2,""time"":2416},{""event"":""blur"",""trial"":16,""time"":94616},{""event"":""focus"",""trial"":16,""time"":100908},{""event"":""blur"",""trial"":17,""time"":117199},{""event"":""focus"",""trial"":17,""time"":129822},{""event"":""blur"",""trial"":20,""time"":1010580},{""event"":""focus"",""trial"":20,""time"":1017218},{""event"":""blur"",""trial"":21,""time"":1022177},{""event"":""focus"",""trial"":21,""time"":1027632},{""event"":""blur"",""trial"":21,""time"":1028632},{""event"":""focus"",""trial"":21,""time"":1034947},{""event"":""blur"",""trial"":23,""time"":1059446},{""event"":""focus"",""trial"":23,""time"":1062833},{""event"":""blur"",""trial"":29,""time"":1079471},{""event"":""focus"",""trial"":29,""time"":1079681},{""event"":""blur"",""trial"":29,""time"":1089073},{""event"":""focus"",""trial"":29,""time"":1096747}]",NA,4721.70000000298,static/audio/instructions6.wav,NA,0,NA,NA,NA,NA,NA,NA,NA,NA,NA,NA,NA,NA,NA,NA,NA,NA,NA,NA,NA,NA,NA,NA,NA,NA,NA
audio-instructions,30,1120306,0.0-5.1-7.1,voc_e2,11838,"[{""event"":""fullscreenenter"",""trial"":1,""time"":1366},{""event"":""fullscreenexit"",""trial"":2,""time"":2416},{""event"":""blur"",""trial"":16,""time"":94616},{""event"":""focus"",""trial"":16,""time"":100908},{""event"":""blur"",""trial"":17,""time"":117199},{""event"":""focus"",""trial"":17,""time"":129822},{""event"":""blur"",""trial"":20,""time"":1010580},{""event"":""focus"",""trial"":20,""time"":1017218},{""event"":""blur"",""trial"":21,""time"":1022177},{""event"":""focus"",""trial"":21,""time"":1027632},{""event"":""blur"",""trial"":21,""time"":1028632},{""event"":""focus"",""trial"":21,""time"":1034947},{""event"":""blur"",""trial"":23,""time"":1059446},{""event"":""focus"",""trial"":23,""time"":1062833},{""event"":""blur"",""trial"":29,""time"":1079471},{""event"":""focus"",""trial"":29,""time"":1079681},{""event"":""blur"",""trial"":29,""time"":1089073},{""event"":""focus"",""trial"":29,""time"":1096747},{""event"":""blur"",""trial"":30,""time"":1099058},{""event"":""focus"",""trial"":30,""time"":1101890},{""event"":""blur"",""trial"":30,""time"":1104419},{""event"":""focus"",""trial"":30,""time"":1104858}]",NA,3328.8999999910593,static/audio/instructions7.wav,NA,0,NA,NA,NA,NA,NA,NA,NA,NA,NA,NA,NA,NA,NA,NA,NA,NA,NA,NA,NA,NA,NA,NA,NA,NA,NA
audio-instructions,31,1132111,0.0-5.1-8.1,voc_e2,11838,"[{""event"":""fullscreenenter"",""trial"":1,""time"":1366},{""event"":""fullscreenexit"",""trial"":2,""time"":2416},{""event"":""blur"",""trial"":16,""time"":94616},{""event"":""focus"",""trial"":16,""time"":100908},{""event"":""blur"",""trial"":17,""time"":117199},{""event"":""focus"",""trial"":17,""time"":129822},{""event"":""blur"",""trial"":20,""time"":1010580},{""event"":""focus"",""trial"":20,""time"":1017218},{""event"":""blur"",""trial"":21,""time"":1022177},{""event"":""focus"",""trial"":21,""time"":1027632},{""event"":""blur"",""trial"":21,""time"":1028632},{""event"":""focus"",""trial"":21,""time"":1034947},{""event"":""blur"",""trial"":23,""time"":1059446},{""event"":""focus"",""trial"":23,""time"":1062833},{""event"":""blur"",""trial"":29,""time"":1079471},{""event"":""focus"",""trial"":29,""time"":1079681},{""event"":""blur"",""trial"":29,""time"":1089073},{""event"":""focus"",""trial"":29,""time"":1096747},{""event"":""blur"",""trial"":30,""time"":1099058},{""event"":""focus"",""trial"":30,""time"":1101890},{""event"":""blur"",""trial"":30,""time"":1104419},{""event"":""focus"",""trial"":30,""time"":1104858}]",NA,2333.20000000298,static/audio/instructions8.wav,NA,0,NA,NA,NA,NA,NA,NA,NA,NA,NA,NA,NA,NA,NA,NA,NA,NA,NA,NA,NA,NA,NA,NA,NA,NA,NA
fcp-comprehension,32,1145667,0.0-5.1-9.1,voc_e2,11838,"[{""event"":""fullscreenenter"",""trial"":1,""time"":1366},{""event"":""fullscreenexit"",""trial"":2,""time"":2416},{""event"":""blur"",""trial"":16,""time"":94616},{""event"":""focus"",""trial"":16,""time"":100908},{""event"":""blur"",""trial"":17,""time"":117199},{""event"":""focus"",""trial"":17,""time"":129822},{""event"":""blur"",""trial"":20,""time"":1010580},{""event"":""focus"",""trial"":20,""time"":1017218},{""event"":""blur"",""trial"":21,""time"":1022177},{""event"":""focus"",""trial"":21,""time"":1027632},{""event"":""blur"",""trial"":21,""time"":1028632},{""event"":""focus"",""trial"":21,""time"":1034947},{""event"":""blur"",""trial"":23,""time"":1059446},{""event"":""focus"",""trial"":23,""time"":1062833},{""event"":""blur"",""trial"":29,""time"":1079471},{""event"":""focus"",""trial"":29,""time"":1079681},{""event"":""blur"",""trial"":29,""time"":1089073},{""event"":""focus"",""trial"":29,""time"":1096747},{""event"":""blur"",""trial"":30,""time"":1099058},{""event"":""focus"",""trial"":30,""time"":1101890},{""event"":""blur"",""trial"":30,""time"":1104419},{""event"":""focus"",""trial"":30,""time"":1104858}]",NA,13554.70000000298,NA,NA,NA,NA,NA,NA,NA,NA,NA,NA,NA,NA,NA,NA,NA,NA,NA,NA,"false,true",1,NA,NA,NA,NA,NA,NA,NA,NA
audio-instructions,33,1150995,0.0-5.2-0.2,voc_e2,11838,"[{""event"":""fullscreenenter"",""trial"":1,""time"":1366},{""event"":""fullscreenexit"",""trial"":2,""time"":2416},{""event"":""blur"",""trial"":16,""time"":94616},{""event"":""focus"",""trial"":16,""time"":100908},{""event"":""blur"",""trial"":17,""time"":117199},{""event"":""focus"",""trial"":17,""time"":129822},{""event"":""blur"",""trial"":20,""time"":1010580},{""event"":""focus"",""trial"":20,""time"":1017218},{""event"":""blur"",""trial"":21,""time"":1022177},{""event"":""focus"",""trial"":21,""time"":1027632},{""event"":""blur"",""trial"":21,""time"":1028632},{""event"":""focus"",""trial"":21,""time"":1034947},{""event"":""blur"",""trial"":23,""time"":1059446},{""event"":""focus"",""trial"":23,""time"":1062833},{""event"":""blur"",""trial"":29,""time"":1079471},{""event"":""focus"",""trial"":29,""time"":1079681},{""event"":""blur"",""trial"":29,""time"":1089073},{""event"":""focus"",""trial"":29,""time"":1096747},{""event"":""blur"",""trial"":30,""time"":1099058},{""event"":""focus"",""trial"":30,""time"":1101890},{""event"":""blur"",""trial"":30,""time"":1104419},{""event"":""focus"",""trial"":30,""time"":1104858}]",NA,548.1000000089407,static/audio/instructions1.wav,NA,0,NA,NA,NA,NA,NA,NA,NA,NA,NA,NA,NA,NA,NA,NA,NA,NA,NA,NA,NA,NA,NA,NA,NA,NA,NA
audio-instructions,34,1158315,0.0-5.2-1.2,voc_e2,11838,"[{""event"":""fullscreenenter"",""trial"":1,""time"":1366},{""event"":""fullscreenexit"",""trial"":2,""time"":2416},{""event"":""blur"",""trial"":16,""time"":94616},{""event"":""focus"",""trial"":16,""time"":100908},{""event"":""blur"",""trial"":17,""time"":117199},{""event"":""focus"",""trial"":17,""time"":129822},{""event"":""blur"",""trial"":20,""time"":1010580},{""event"":""focus"",""trial"":20,""time"":1017218},{""event"":""blur"",""trial"":21,""time"":1022177},{""event"":""focus"",""trial"":21,""time"":1027632},{""event"":""blur"",""trial"":21,""time"":1028632},{""event"":""focus"",""trial"":21,""time"":1034947},{""event"":""blur"",""trial"":23,""time"":1059446},{""event"":""focus"",""trial"":23,""time"":1062833},{""event"":""blur"",""trial"":29,""time"":1079471},{""event"":""focus"",""trial"":29,""time"":1079681},{""event"":""blur"",""trial"":29,""time"":1089073},{""event"":""focus"",""trial"":29,""time"":1096747},{""event"":""blur"",""trial"":30,""time"":1099058},{""event"":""focus"",""trial"":30,""time"":1101890},{""event"":""blur"",""trial"":30,""time"":1104419},{""event"":""focus"",""trial"":30,""time"":1104858}]",NA,576.7999999970198,static/audio/instructions2.wav,NA,0,NA,NA,NA,NA,NA,NA,NA,NA,NA,NA,NA,NA,NA,NA,NA,NA,NA,NA,NA,NA,NA,NA,NA,NA,NA
audio-instructions,35,1165692,0.0-5.2-2.2,voc_e2,11838,"[{""event"":""fullscreenenter"",""trial"":1,""time"":1366},{""event"":""fullscreenexit"",""trial"":2,""time"":2416},{""event"":""blur"",""trial"":16,""time"":94616},{""event"":""focus"",""trial"":16,""time"":100908},{""event"":""blur"",""trial"":17,""time"":117199},{""event"":""focus"",""trial"":17,""time"":129822},{""event"":""blur"",""trial"":20,""time"":1010580},{""event"":""focus"",""trial"":20,""time"":1017218},{""event"":""blur"",""trial"":21,""time"":1022177},{""event"":""focus"",""trial"":21,""time"":1027632},{""event"":""blur"",""trial"":21,""time"":1028632},{""event"":""focus"",""trial"":21,""time"":1034947},{""event"":""blur"",""trial"":23,""time"":1059446},{""event"":""focus"",""trial"":23,""time"":1062833},{""event"":""blur"",""trial"":29,""time"":1079471},{""event"":""focus"",""trial"":29,""time"":1079681},{""event"":""blur"",""trial"":29,""time"":1089073},{""event"":""focus"",""trial"":29,""time"":1096747},{""event"":""blur"",""trial"":30,""time"":1099058},{""event"":""focus"",""trial"":30,""time"":1101890},{""event"":""blur"",""trial"":30,""time"":1104419},{""event"":""focus"",""trial"":30,""time"":1104858}]",NA,1574,static/audio/instructions3.wav,NA,0,NA,NA,NA,NA,NA,NA,NA,NA,NA,NA,NA,NA,NA,NA,NA,NA,NA,NA,NA,NA,NA,NA,NA,NA,NA
audio-instructions,36,1183319,0.0-5.2-3.2,voc_e2,11838,"[{""event"":""fullscreenenter"",""trial"":1,""time"":1366},{""event"":""fullscreenexit"",""trial"":2,""time"":2416},{""event"":""blur"",""trial"":16,""time"":94616},{""event"":""focus"",""trial"":16,""time"":100908},{""event"":""blur"",""trial"":17,""time"":117199},{""event"":""focus"",""trial"":17,""time"":129822},{""event"":""blur"",""trial"":20,""time"":1010580},{""event"":""focus"",""trial"":20,""time"":1017218},{""event"":""blur"",""trial"":21,""time"":1022177},{""event"":""focus"",""trial"":21,""time"":1027632},{""event"":""blur"",""trial"":21,""time"":1028632},{""event"":""focus"",""trial"":21,""time"":1034947},{""event"":""blur"",""trial"":23,""time"":1059446},{""event"":""focus"",""trial"":23,""time"":1062833},{""event"":""blur"",""trial"":29,""time"":1079471},{""event"":""focus"",""trial"":29,""time"":1079681},{""event"":""blur"",""trial"":29,""time"":1089073},{""event"":""focus"",""trial"":29,""time"":1096747},{""event"":""blur"",""trial"":30,""time"":1099058},{""event"":""focus"",""trial"":30,""time"":1101890},{""event"":""blur"",""trial"":30,""time"":1104419},{""event"":""focus"",""trial"":30,""time"":1104858}]",NA,4401.600000008941,static/audio/instructions4.wav,NA,0,NA,NA,NA,NA,NA,NA,NA,NA,NA,NA,NA,NA,NA,NA,NA,NA,NA,NA,NA,NA,NA,NA,NA,NA,NA
audio-instructions,37,1194763,0.0-5.2-4.2,voc_e2,11838,"[{""event"":""fullscreenenter"",""trial"":1,""time"":1366},{""event"":""fullscreenexit"",""trial"":2,""time"":2416},{""event"":""blur"",""trial"":16,""time"":94616},{""event"":""focus"",""trial"":16,""time"":100908},{""event"":""blur"",""trial"":17,""time"":117199},{""event"":""focus"",""trial"":17,""time"":129822},{""event"":""blur"",""trial"":20,""time"":1010580},{""event"":""focus"",""trial"":20,""time"":1017218},{""event"":""blur"",""trial"":21,""time"":1022177},{""event"":""focus"",""trial"":21,""time"":1027632},{""event"":""blur"",""trial"":21,""time"":1028632},{""event"":""focus"",""trial"":21,""time"":1034947},{""event"":""blur"",""trial"":23,""time"":1059446},{""event"":""focus"",""trial"":23,""time"":1062833},{""event"":""blur"",""trial"":29,""time"":1079471},{""event"":""focus"",""trial"":29,""time"":1079681},{""event"":""blur"",""trial"":29,""time"":1089073},{""event"":""focus"",""trial"":29,""time"":1096747},{""event"":""blur"",""trial"":30,""time"":1099058},{""event"":""focus"",""trial"":30,""time"":1101890},{""event"":""blur"",""trial"":30,""time"":1104419},{""event"":""focus"",""trial"":30,""time"":1104858}]",NA,2055.29999999702,static/audio/instructions5.wav,NA,0,NA,NA,NA,NA,NA,NA,NA,NA,NA,NA,NA,NA,NA,NA,NA,NA,NA,NA,NA,NA,NA,NA,NA,NA,NA
fcp-practice,38,1198416,0.0-5.2-5.2-0.2,voc_e2,11838,"[{""event"":""fullscreenenter"",""trial"":1,""time"":1366},{""event"":""fullscreenexit"",""trial"":2,""time"":2416},{""event"":""blur"",""trial"":16,""time"":94616},{""event"":""focus"",""trial"":16,""time"":100908},{""event"":""blur"",""trial"":17,""time"":117199},{""event"":""focus"",""trial"":17,""time"":129822},{""event"":""blur"",""trial"":20,""time"":1010580},{""event"":""focus"",""trial"":20,""time"":1017218},{""event"":""blur"",""trial"":21,""time"":1022177},{""event"":""focus"",""trial"":21,""time"":1027632},{""event"":""blur"",""trial"":21,""time"":1028632},{""event"":""focus"",""trial"":21,""time"":1034947},{""event"":""blur"",""trial"":23,""time"":1059446},{""event"":""focus"",""trial"":23,""time"":1062833},{""event"":""blur"",""trial"":29,""time"":1079471},{""event"":""focus"",""trial"":29,""time"":1079681},{""event"":""blur"",""trial"":29,""time"":1089073},{""event"":""focus"",""trial"":29,""time"":1096747},{""event"":""blur"",""trial"":30,""time"":1099058},{""event"":""focus"",""trial"":30,""time"":1101890},{""event"":""blur"",""trial"":30,""time"":1104419},{""event"":""focus"",""trial"":30,""time"":1104858}]",NA,NA,NA,NA,NA,NA,#EDC948,#46d3c8,10,0,1,null,null,null,37,1,2148.5,10,1,practice,NA,NA,NA,NA,NA,NA,NA,NA,NA,NA
fcp-practice,39,1200196,0.0-5.2-5.2-1.2,voc_e2,11838,"[{""event"":""fullscreenenter"",""trial"":1,""time"":1366},{""event"":""fullscreenexit"",""trial"":2,""time"":2416},{""event"":""blur"",""trial"":16,""time"":94616},{""event"":""focus"",""trial"":16,""time"":100908},{""event"":""blur"",""trial"":17,""time"":117199},{""event"":""focus"",""trial"":17,""time"":129822},{""event"":""blur"",""trial"":20,""time"":1010580},{""event"":""focus"",""trial"":20,""time"":1017218},{""event"":""blur"",""trial"":21,""time"":1022177},{""event"":""focus"",""trial"":21,""time"":1027632},{""event"":""blur"",""trial"":21,""time"":1028632},{""event"":""focus"",""trial"":21,""time"":1034947},{""event"":""blur"",""trial"":23,""time"":1059446},{""event"":""focus"",""trial"":23,""time"":1062833},{""event"":""blur"",""trial"":29,""time"":1079471},{""event"":""focus"",""trial"":29,""time"":1079681},{""event"":""blur"",""trial"":29,""time"":1089073},{""event"":""focus"",""trial"":29,""time"":1096747},{""event"":""blur"",""trial"":30,""time"":1099058},{""event"":""focus"",""trial"":30,""time"":1101890},{""event"":""blur"",""trial"":30,""time"":1104419},{""event"":""focus"",""trial"":30,""time"":1104858}]",NA,NA,NA,NA,NA,NA,#EDC948,#46d3c8,10,0,1,null,null,null,37,1,274,10,1,practice,NA,NA,NA,NA,NA,NA,NA,NA,NA,NA
fcp-practice,40,1201987,0.0-5.2-5.2-2.2,voc_e2,11838,"[{""event"":""fullscreenenter"",""trial"":1,""time"":1366},{""event"":""fullscreenexit"",""trial"":2,""time"":2416},{""event"":""blur"",""trial"":16,""time"":94616},{""event"":""focus"",""trial"":16,""time"":100908},{""event"":""blur"",""trial"":17,""time"":117199},{""event"":""focus"",""trial"":17,""time"":129822},{""event"":""blur"",""trial"":20,""time"":1010580},{""event"":""focus"",""trial"":20,""time"":1017218},{""event"":""blur"",""trial"":21,""time"":1022177},{""event"":""focus"",""trial"":21,""time"":1027632},{""event"":""blur"",""trial"":21,""time"":1028632},{""event"":""focus"",""trial"":21,""time"":1034947},{""event"":""blur"",""trial"":23,""time"":1059446},{""event"":""focus"",""trial"":23,""time"":1062833},{""event"":""blur"",""trial"":29,""time"":1079471},{""event"":""focus"",""trial"":29,""time"":1079681},{""event"":""blur"",""trial"":29,""time"":1089073},{""event"":""focus"",""trial"":29,""time"":1096747},{""event"":""blur"",""trial"":30,""time"":1099058},{""event"":""focus"",""trial"":30,""time"":1101890},{""event"":""blur"",""trial"":30,""time"":1104419},{""event"":""focus"",""trial"":30,""time"":1104858}]",NA,NA,NA,NA,NA,NA,#EDC948,#46d3c8,0,10,1,null,null,null,37,1,281,0,1,practice,NA,NA,NA,NA,NA,NA,NA,NA,NA,NA
fcp-practice,41,1203793,0.0-5.2-5.2-3.2,voc_e2,11838,"[{""event"":""fullscreenenter"",""trial"":1,""time"":1366},{""event"":""fullscreenexit"",""trial"":2,""time"":2416},{""event"":""blur"",""trial"":16,""time"":94616},{""event"":""focus"",""trial"":16,""time"":100908},{""event"":""blur"",""trial"":17,""time"":117199},{""event"":""focus"",""trial"":17,""time"":129822},{""event"":""blur"",""trial"":20,""time"":1010580},{""event"":""focus"",""trial"":20,""time"":1017218},{""event"":""blur"",""trial"":21,""time"":1022177},{""event"":""focus"",""trial"":21,""time"":1027632},{""event"":""blur"",""trial"":21,""time"":1028632},{""event"":""focus"",""trial"":21,""time"":1034947},{""event"":""blur"",""trial"":23,""time"":1059446},{""event"":""focus"",""trial"":23,""time"":1062833},{""event"":""blur"",""trial"":29,""time"":1079471},{""event"":""focus"",""trial"":29,""time"":1079681},{""event"":""blur"",""trial"":29,""time"":1089073},{""event"":""focus"",""trial"":29,""time"":1096747},{""event"":""blur"",""trial"":30,""time"":1099058},{""event"":""focus"",""trial"":30,""time"":1101890},{""event"":""blur"",""trial"":30,""time"":1104419},{""event"":""focus"",""trial"":30,""time"":1104858}]",NA,NA,NA,NA,NA,NA,#EDC948,#46d3c8,10,0,1,null,null,null,37,1,297.8999999910593,10,1,practice,NA,NA,NA,NA,NA,NA,NA,NA,NA,NA
fcp-practice,42,1205518,0.0-5.2-5.2-4.2,voc_e2,11838,"[{""event"":""fullscreenenter"",""trial"":1,""time"":1366},{""event"":""fullscreenexit"",""trial"":2,""time"":2416},{""event"":""blur"",""trial"":16,""time"":94616},{""event"":""focus"",""trial"":16,""time"":100908},{""event"":""blur"",""trial"":17,""time"":117199},{""event"":""focus"",""trial"":17,""time"":129822},{""event"":""blur"",""trial"":20,""time"":1010580},{""event"":""focus"",""trial"":20,""time"":1017218},{""event"":""blur"",""trial"":21,""time"":1022177},{""event"":""focus"",""trial"":21,""time"":1027632},{""event"":""blur"",""trial"":21,""time"":1028632},{""event"":""focus"",""trial"":21,""time"":1034947},{""event"":""blur"",""trial"":23,""time"":1059446},{""event"":""focus"",""trial"":23,""time"":1062833},{""event"":""blur"",""trial"":29,""time"":1079471},{""event"":""focus"",""trial"":29,""time"":1079681},{""event"":""blur"",""trial"":29,""time"":1089073},{""event"":""focus"",""trial"":29,""time"":1096747},{""event"":""blur"",""trial"":30,""time"":1099058},{""event"":""focus"",""trial"":30,""time"":1101890},{""event"":""blur"",""trial"":30,""time"":1104419},{""event"":""focus"",""trial"":30,""time"":1104858}]",NA,NA,NA,NA,NA,NA,#EDC948,#46d3c8,10,0,1,null,null,null,37,1,218.09999999403954,10,1,practice,NA,NA,NA,NA,NA,NA,NA,NA,NA,NA
audio-instructions,43,1224408,0.0-5.2-6.2,voc_e2,11838,"[{""event"":""fullscreenenter"",""trial"":1,""time"":1366},{""event"":""fullscreenexit"",""trial"":2,""time"":2416},{""event"":""blur"",""trial"":16,""time"":94616},{""event"":""focus"",""trial"":16,""time"":100908},{""event"":""blur"",""trial"":17,""time"":117199},{""event"":""focus"",""trial"":17,""time"":129822},{""event"":""blur"",""trial"":20,""time"":1010580},{""event"":""focus"",""trial"":20,""time"":1017218},{""event"":""blur"",""trial"":21,""time"":1022177},{""event"":""focus"",""trial"":21,""time"":1027632},{""event"":""blur"",""trial"":21,""time"":1028632},{""event"":""focus"",""trial"":21,""time"":1034947},{""event"":""blur"",""trial"":23,""time"":1059446},{""event"":""focus"",""trial"":23,""time"":1062833},{""event"":""blur"",""trial"":29,""time"":1079471},{""event"":""focus"",""trial"":29,""time"":1079681},{""event"":""blur"",""trial"":29,""time"":1089073},{""event"":""focus"",""trial"":29,""time"":1096747},{""event"":""blur"",""trial"":30,""time"":1099058},{""event"":""focus"",""trial"":30,""time"":1101890},{""event"":""blur"",""trial"":30,""time"":1104419},{""event"":""focus"",""trial"":30,""time"":1104858}]",NA,880.3999999910593,static/audio/instructions6.wav,NA,0,NA,NA,NA,NA,NA,NA,NA,NA,NA,NA,NA,NA,NA,NA,NA,NA,NA,NA,NA,NA,NA,NA,NA,NA,NA
audio-instructions,44,1244948,0.0-5.2-7.2,voc_e2,11838,"[{""event"":""fullscreenenter"",""trial"":1,""time"":1366},{""event"":""fullscreenexit"",""trial"":2,""time"":2416},{""event"":""blur"",""trial"":16,""time"":94616},{""event"":""focus"",""trial"":16,""time"":100908},{""event"":""blur"",""trial"":17,""time"":117199},{""event"":""focus"",""trial"":17,""time"":129822},{""event"":""blur"",""trial"":20,""time"":1010580},{""event"":""focus"",""trial"":20,""time"":1017218},{""event"":""blur"",""trial"":21,""time"":1022177},{""event"":""focus"",""trial"":21,""time"":1027632},{""event"":""blur"",""trial"":21,""time"":1028632},{""event"":""focus"",""trial"":21,""time"":1034947},{""event"":""blur"",""trial"":23,""time"":1059446},{""event"":""focus"",""trial"":23,""time"":1062833},{""event"":""blur"",""trial"":29,""time"":1079471},{""event"":""focus"",""trial"":29,""time"":1079681},{""event"":""blur"",""trial"":29,""time"":1089073},{""event"":""focus"",""trial"":29,""time"":1096747},{""event"":""blur"",""trial"":30,""time"":1099058},{""event"":""focus"",""trial"":30,""time"":1101890},{""event"":""blur"",""trial"":30,""time"":1104419},{""event"":""focus"",""trial"":30,""time"":1104858},{""event"":""blur"",""trial"":44,""time"":1226955},{""event"":""focus"",""trial"":44,""time"":1238193},{""event"":""blur"",""trial"":44,""time"":1239132},{""event"":""focus"",""trial"":44,""time"":1241535}]",NA,1341.0999999940395,static/audio/instructions7.wav,NA,0,NA,NA,NA,NA,NA,NA,NA,NA,NA,NA,NA,NA,NA,NA,NA,NA,NA,NA,NA,NA,NA,NA,NA,NA,NA
audio-instructions,45,1317012,0.0-5.2-8.2,voc_e2,11838,"[{""event"":""fullscreenenter"",""trial"":1,""time"":1366},{""event"":""fullscreenexit"",""trial"":2,""time"":2416},{""event"":""blur"",""trial"":16,""time"":94616},{""event"":""focus"",""trial"":16,""time"":100908},{""event"":""blur"",""trial"":17,""time"":117199},{""event"":""focus"",""trial"":17,""time"":129822},{""event"":""blur"",""trial"":20,""time"":1010580},{""event"":""focus"",""trial"":20,""time"":1017218},{""event"":""blur"",""trial"":21,""time"":1022177},{""event"":""focus"",""trial"":21,""time"":1027632},{""event"":""blur"",""trial"":21,""time"":1028632},{""event"":""focus"",""trial"":21,""time"":1034947},{""event"":""blur"",""trial"":23,""time"":1059446},{""event"":""focus"",""trial"":23,""time"":1062833},{""event"":""blur"",""trial"":29,""time"":1079471},{""event"":""focus"",""trial"":29,""time"":1079681},{""event"":""blur"",""trial"":29,""time"":1089073},{""event"":""focus"",""trial"":29,""time"":1096747},{""event"":""blur"",""trial"":30,""time"":1099058},{""event"":""focus"",""trial"":30,""time"":1101890},{""event"":""blur"",""trial"":30,""time"":1104419},{""event"":""focus"",""trial"":30,""time"":1104858},{""event"":""blur"",""trial"":44,""time"":1226955},{""event"":""focus"",""trial"":44,""time"":1238193},{""event"":""blur"",""trial"":44,""time"":1239132},{""event"":""focus"",""trial"":44,""time"":1241535}]",NA,62593.89999999106,static/audio/instructions8.wav,NA,0,NA,NA,NA,NA,NA,NA,NA,NA,NA,NA,NA,NA,NA,NA,NA,NA,NA,NA,NA,NA,NA,NA,NA,NA,NA
fcp-comprehension,46,1322487,0.0-5.2-9.2,voc_e2,11838,"[{""event"":""fullscreenenter"",""trial"":1,""time"":1366},{""event"":""fullscreenexit"",""trial"":2,""time"":2416},{""event"":""blur"",""trial"":16,""time"":94616},{""event"":""focus"",""trial"":16,""time"":100908},{""event"":""blur"",""trial"":17,""time"":117199},{""event"":""focus"",""trial"":17,""time"":129822},{""event"":""blur"",""trial"":20,""time"":1010580},{""event"":""focus"",""trial"":20,""time"":1017218},{""event"":""blur"",""trial"":21,""time"":1022177},{""event"":""focus"",""trial"":21,""time"":1027632},{""event"":""blur"",""trial"":21,""time"":1028632},{""event"":""focus"",""trial"":21,""time"":1034947},{""event"":""blur"",""trial"":23,""time"":1059446},{""event"":""focus"",""trial"":23,""time"":1062833},{""event"":""blur"",""trial"":29,""time"":1079471},{""event"":""focus"",""trial"":29,""time"":1079681},{""event"":""blur"",""trial"":29,""time"":1089073},{""event"":""focus"",""trial"":29,""time"":1096747},{""event"":""blur"",""trial"":30,""time"":1099058},{""event"":""focus"",""trial"":30,""time"":1101890},{""event"":""blur"",""trial"":30,""time"":1104419},{""event"":""focus"",""trial"":30,""time"":1104858},{""event"":""blur"",""trial"":44,""time"":1226955},{""event"":""focus"",""trial"":44,""time"":1238193},{""event"":""blur"",""trial"":44,""time"":1239132},{""event"":""focus"",""trial"":44,""time"":1241535}]",NA,5471.79999999702,NA,NA,NA,NA,NA,NA,NA,NA,NA,NA,NA,NA,NA,NA,NA,NA,NA,NA,"true,true",0,NA,NA,NA,NA,NA,NA,NA,NA
audio-instructions,47,1331519,0.0-6.0-0.0,voc_e2,11838,"[{""event"":""fullscreenenter"",""trial"":1,""time"":1366},{""event"":""fullscreenexit"",""trial"":2,""time"":2416},{""event"":""blur"",""trial"":16,""time"":94616},{""event"":""focus"",""trial"":16,""time"":100908},{""event"":""blur"",""trial"":17,""time"":117199},{""event"":""focus"",""trial"":17,""time"":129822},{""event"":""blur"",""trial"":20,""time"":1010580},{""event"":""focus"",""trial"":20,""time"":1017218},{""event"":""blur"",""trial"":21,""time"":1022177},{""event"":""focus"",""trial"":21,""time"":1027632},{""event"":""blur"",""trial"":21,""time"":1028632},{""event"":""focus"",""trial"":21,""time"":1034947},{""event"":""blur"",""trial"":23,""time"":1059446},{""event"":""focus"",""trial"":23,""time"":1062833},{""event"":""blur"",""trial"":29,""time"":1079471},{""event"":""focus"",""trial"":29,""time"":1079681},{""event"":""blur"",""trial"":29,""time"":1089073},{""event"":""focus"",""trial"":29,""time"":1096747},{""event"":""blur"",""trial"":30,""time"":1099058},{""event"":""focus"",""trial"":30,""time"":1101890},{""event"":""blur"",""trial"":30,""time"":1104419},{""event"":""focus"",""trial"":30,""time"":1104858},{""event"":""blur"",""trial"":44,""time"":1226955},{""event"":""focus"",""trial"":44,""time"":1238193},{""event"":""blur"",""trial"":44,""time"":1239132},{""event"":""focus"",""trial"":44,""time"":1241535},{""event"":""blur"",""trial"":47,""time"":1325334},{""event"":""focus"",""trial"":47,""time"":1330379}]",NA,2178.699999988079,static/audio/instructions9.wav,NA,0,NA,NA,NA,NA,NA,NA,NA,NA,NA,NA,NA,NA,NA,NA,NA,NA,NA,NA,NA,NA,NA,NA,NA,NA,NA
audio-instructions,48,1345878,0.0-6.0-1.0,voc_e2,11838,"[{""event"":""fullscreenenter"",""trial"":1,""time"":1366},{""event"":""fullscreenexit"",""trial"":2,""time"":2416},{""event"":""blur"",""trial"":16,""time"":94616},{""event"":""focus"",""trial"":16,""time"":100908},{""event"":""blur"",""trial"":17,""time"":117199},{""event"":""focus"",""trial"":17,""time"":129822},{""event"":""blur"",""trial"":20,""time"":1010580},{""event"":""focus"",""trial"":20,""time"":1017218},{""event"":""blur"",""trial"":21,""time"":1022177},{""event"":""focus"",""trial"":21,""time"":1027632},{""event"":""blur"",""trial"":21,""time"":1028632},{""event"":""focus"",""trial"":21,""time"":1034947},{""event"":""blur"",""trial"":23,""time"":1059446},{""event"":""focus"",""trial"":23,""time"":1062833},{""event"":""blur"",""trial"":29,""time"":1079471},{""event"":""focus"",""trial"":29,""time"":1079681},{""event"":""blur"",""trial"":29,""time"":1089073},{""event"":""focus"",""trial"":29,""time"":1096747},{""event"":""blur"",""trial"":30,""time"":1099058},{""event"":""focus"",""trial"":30,""time"":1101890},{""event"":""blur"",""trial"":30,""time"":1104419},{""event"":""focus"",""trial"":30,""time"":1104858},{""event"":""blur"",""trial"":44,""time"":1226955},{""event"":""focus"",""trial"":44,""time"":1238193},{""event"":""blur"",""trial"":44,""time"":1239132},{""event"":""focus"",""trial"":44,""time"":1241535},{""event"":""blur"",""trial"":47,""time"":1325334},{""event"":""focus"",""trial"":47,""time"":1330379},{""event"":""blur"",""trial"":48,""time"":1344153},{""event"":""focus"",""trial"":48,""time"":1345228}]",NA,2237.79999999702,static/audio/instructions10.wav,NA,0,NA,NA,NA,NA,NA,NA,NA,NA,NA,NA,NA,NA,NA,NA,NA,NA,NA,NA,NA,NA,NA,NA,NA,NA,NA
fcp-trial,49,1355620,0.0-6.0-2.0,voc_e2,11838,"[{""event"":""fullscreenenter"",""trial"":1,""time"":1366},{""event"":""fullscreenexit"",""trial"":2,""time"":2416},{""event"":""blur"",""trial"":16,""time"":94616},{""event"":""focus"",""trial"":16,""time"":100908},{""event"":""blur"",""trial"":17,""time"":117199},{""event"":""focus"",""trial"":17,""time"":129822},{""event"":""blur"",""trial"":20,""time"":1010580},{""event"":""focus"",""trial"":20,""time"":1017218},{""event"":""blur"",""trial"":21,""time"":1022177},{""event"":""focus"",""trial"":21,""time"":1027632},{""event"":""blur"",""trial"":21,""time"":1028632},{""event"":""focus"",""trial"":21,""time"":1034947},{""event"":""blur"",""trial"":23,""time"":1059446},{""event"":""focus"",""trial"":23,""time"":1062833},{""event"":""blur"",""trial"":29,""time"":1079471},{""event"":""focus"",""trial"":29,""time"":1079681},{""event"":""blur"",""trial"":29,""time"":1089073},{""event"":""focus"",""trial"":29,""time"":1096747},{""event"":""blur"",""trial"":30,""time"":1099058},{""event"":""focus"",""trial"":30,""time"":1101890},{""event"":""blur"",""trial"":30,""time"":1104419},{""event"":""focus"",""trial"":30,""time"":1104858},{""event"":""blur"",""trial"":44,""time"":1226955},{""event"":""focus"",""trial"":44,""time"":1238193},{""event"":""blur"",""trial"":44,""time"":1239132},{""event"":""focus"",""trial"":44,""time"":1241535},{""event"":""blur"",""trial"":47,""time"":1325334},{""event"":""focus"",""trial"":47,""time"":1330379},{""event"":""blur"",""trial"":48,""time"":1344153},{""event"":""focus"",""trial"":48,""time"":1345228}]",NA,NA,NA,NA,NA,0,#EDC948,#46d3c8,10,10,1,38,1,6557.5,37,1,1666.3999999910593,10,1,practice,NA,NA,NA,NA,NA,NA,NA,NA,NA,NA
audio-instructions,50,1367487,0.0-6.0-3.0,voc_e2,11838,"[{""event"":""fullscreenenter"",""trial"":1,""time"":1366},{""event"":""fullscreenexit"",""trial"":2,""time"":2416},{""event"":""blur"",""trial"":16,""time"":94616},{""event"":""focus"",""trial"":16,""time"":100908},{""event"":""blur"",""trial"":17,""time"":117199},{""event"":""focus"",""trial"":17,""time"":129822},{""event"":""blur"",""trial"":20,""time"":1010580},{""event"":""focus"",""trial"":20,""time"":1017218},{""event"":""blur"",""trial"":21,""time"":1022177},{""event"":""focus"",""trial"":21,""time"":1027632},{""event"":""blur"",""trial"":21,""time"":1028632},{""event"":""focus"",""trial"":21,""time"":1034947},{""event"":""blur"",""trial"":23,""time"":1059446},{""event"":""focus"",""trial"":23,""time"":1062833},{""event"":""blur"",""trial"":29,""time"":1079471},{""event"":""focus"",""trial"":29,""time"":1079681},{""event"":""blur"",""trial"":29,""time"":1089073},{""event"":""focus"",""trial"":29,""time"":1096747},{""event"":""blur"",""trial"":30,""time"":1099058},{""event"":""focus"",""trial"":30,""time"":1101890},{""event"":""blur"",""trial"":30,""time"":1104419},{""event"":""focus"",""trial"":30,""time"":1104858},{""event"":""blur"",""trial"":44,""time"":1226955},{""event"":""focus"",""trial"":44,""time"":1238193},{""event"":""blur"",""trial"":44,""time"":1239132},{""event"":""focus"",""trial"":44,""time"":1241535},{""event"":""blur"",""trial"":47,""time"":1325334},{""event"":""focus"",""trial"":47,""time"":1330379},{""event"":""blur"",""trial"":48,""time"":1344153},{""event"":""focus"",""trial"":48,""time"":1345228}]",NA,857,static/audio/instructions11.wav,NA,0,NA,NA,NA,NA,NA,NA,NA,NA,NA,NA,NA,NA,NA,NA,NA,NA,NA,NA,NA,NA,NA,NA,NA,NA,NA
fcp-trial,51,1371066,0.0-6.0-4.0,voc_e2,11838,"[{""event"":""fullscreenenter"",""trial"":1,""time"":1366},{""event"":""fullscreenexit"",""trial"":2,""time"":2416},{""event"":""blur"",""trial"":16,""time"":94616},{""event"":""focus"",""trial"":16,""time"":100908},{""event"":""blur"",""trial"":17,""time"":117199},{""event"":""focus"",""trial"":17,""time"":129822},{""event"":""blur"",""trial"":20,""time"":1010580},{""event"":""focus"",""trial"":20,""time"":1017218},{""event"":""blur"",""trial"":21,""time"":1022177},{""event"":""focus"",""trial"":21,""time"":1027632},{""event"":""blur"",""trial"":21,""time"":1028632},{""event"":""focus"",""trial"":21,""time"":1034947},{""event"":""blur"",""trial"":23,""time"":1059446},{""event"":""focus"",""trial"":23,""time"":1062833},{""event"":""blur"",""trial"":29,""time"":1079471},{""event"":""focus"",""trial"":29,""time"":1079681},{""event"":""blur"",""trial"":29,""time"":1089073},{""event"":""focus"",""trial"":29,""time"":1096747},{""event"":""blur"",""trial"":30,""time"":1099058},{""event"":""focus"",""trial"":30,""time"":1101890},{""event"":""blur"",""trial"":30,""time"":1104419},{""event"":""focus"",""trial"":30,""time"":1104858},{""event"":""blur"",""trial"":44,""time"":1226955},{""event"":""focus"",""trial"":44,""time"":1238193},{""event"":""blur"",""trial"":44,""time"":1239132},{""event"":""focus"",""trial"":44,""time"":1241535},{""event"":""blur"",""trial"":47,""time"":1325334},{""event"":""focus"",""trial"":47,""time"":1330379},{""event"":""blur"",""trial"":48,""time"":1344153},{""event"":""focus"",""trial"":48,""time"":1345228}]",NA,NA,NA,NA,NA,6,#EDC948,#46d3c8,10,10,1,40,0,1275,39,0,795.2999999970198,10,0,practice,NA,NA,NA,NA,NA,NA,NA,NA,NA,NA
audio-instructions,52,1394243,0.0-6.0-5.0,voc_e2,11838,"[{""event"":""fullscreenenter"",""trial"":1,""time"":1366},{""event"":""fullscreenexit"",""trial"":2,""time"":2416},{""event"":""blur"",""trial"":16,""time"":94616},{""event"":""focus"",""trial"":16,""time"":100908},{""event"":""blur"",""trial"":17,""time"":117199},{""event"":""focus"",""trial"":17,""time"":129822},{""event"":""blur"",""trial"":20,""time"":1010580},{""event"":""focus"",""trial"":20,""time"":1017218},{""event"":""blur"",""trial"":21,""time"":1022177},{""event"":""focus"",""trial"":21,""time"":1027632},{""event"":""blur"",""trial"":21,""time"":1028632},{""event"":""focus"",""trial"":21,""time"":1034947},{""event"":""blur"",""trial"":23,""time"":1059446},{""event"":""focus"",""trial"":23,""time"":1062833},{""event"":""blur"",""trial"":29,""time"":1079471},{""event"":""focus"",""trial"":29,""time"":1079681},{""event"":""blur"",""trial"":29,""time"":1089073},{""event"":""focus"",""trial"":29,""time"":1096747},{""event"":""blur"",""trial"":30,""time"":1099058},{""event"":""focus"",""trial"":30,""time"":1101890},{""event"":""blur"",""trial"":30,""time"":1104419},{""event"":""focus"",""trial"":30,""time"":1104858},{""event"":""blur"",""trial"":44,""time"":1226955},{""event"":""focus"",""trial"":44,""time"":1238193},{""event"":""blur"",""trial"":44,""time"":1239132},{""event"":""focus"",""trial"":44,""time"":1241535},{""event"":""blur"",""trial"":47,""time"":1325334},{""event"":""focus"",""trial"":47,""time"":1330379},{""event"":""blur"",""trial"":48,""time"":1344153},{""event"":""focus"",""trial"":48,""time"":1345228},{""event"":""blur"",""trial"":52,""time"":1382219},{""event"":""focus"",""trial"":52,""time"":1393516}]",NA,4492.29999999702,static/audio/instructions12.wav,NA,0,NA,NA,NA,NA,NA,NA,NA,NA,NA,NA,NA,NA,NA,NA,NA,NA,NA,NA,NA,NA,NA,NA,NA,NA,NA
audio-instructions,53,1402983,0.0-6.0-6.0,voc_e2,11838,"[{""event"":""fullscreenenter"",""trial"":1,""time"":1366},{""event"":""fullscreenexit"",""trial"":2,""time"":2416},{""event"":""blur"",""trial"":16,""time"":94616},{""event"":""focus"",""trial"":16,""time"":100908},{""event"":""blur"",""trial"":17,""time"":117199},{""event"":""focus"",""trial"":17,""time"":129822},{""event"":""blur"",""trial"":20,""time"":1010580},{""event"":""focus"",""trial"":20,""time"":1017218},{""event"":""blur"",""trial"":21,""time"":1022177},{""event"":""focus"",""trial"":21,""time"":1027632},{""event"":""blur"",""trial"":21,""time"":1028632},{""event"":""focus"",""trial"":21,""time"":1034947},{""event"":""blur"",""trial"":23,""time"":1059446},{""event"":""focus"",""trial"":23,""time"":1062833},{""event"":""blur"",""trial"":29,""time"":1079471},{""event"":""focus"",""trial"":29,""time"":1079681},{""event"":""blur"",""trial"":29,""time"":1089073},{""event"":""focus"",""trial"":29,""time"":1096747},{""event"":""blur"",""trial"":30,""time"":1099058},{""event"":""focus"",""trial"":30,""time"":1101890},{""event"":""blur"",""trial"":30,""time"":1104419},{""event"":""focus"",""trial"":30,""time"":1104858},{""event"":""blur"",""trial"":44,""time"":1226955},{""event"":""focus"",""trial"":44,""time"":1238193},{""event"":""blur"",""trial"":44,""time"":1239132},{""event"":""focus"",""trial"":44,""time"":1241535},{""event"":""blur"",""trial"":47,""time"":1325334},{""event"":""focus"",""trial"":47,""time"":1330379},{""event"":""blur"",""trial"":48,""time"":1344153},{""event"":""focus"",""trial"":48,""time"":1345228},{""event"":""blur"",""trial"":52,""time"":1382219},{""event"":""focus"",""trial"":52,""time"":1393516}]",NA,1142.9000000059605,static/audio/instructions13.wav,NA,0,NA,NA,NA,NA,NA,NA,NA,NA,NA,NA,NA,NA,NA,NA,NA,NA,NA,NA,NA,NA,NA,NA,NA,NA,NA
audio-instructions,54,1413019,0.0-6.0-7.0,voc_e2,11838,"[{""event"":""fullscreenenter"",""trial"":1,""time"":1366},{""event"":""fullscreenexit"",""trial"":2,""time"":2416},{""event"":""blur"",""trial"":16,""time"":94616},{""event"":""focus"",""trial"":16,""time"":100908},{""event"":""blur"",""trial"":17,""time"":117199},{""event"":""focus"",""trial"":17,""time"":129822},{""event"":""blur"",""trial"":20,""time"":1010580},{""event"":""focus"",""trial"":20,""time"":1017218},{""event"":""blur"",""trial"":21,""time"":1022177},{""event"":""focus"",""trial"":21,""time"":1027632},{""event"":""blur"",""trial"":21,""time"":1028632},{""event"":""focus"",""trial"":21,""time"":1034947},{""event"":""blur"",""trial"":23,""time"":1059446},{""event"":""focus"",""trial"":23,""time"":1062833},{""event"":""blur"",""trial"":29,""time"":1079471},{""event"":""focus"",""trial"":29,""time"":1079681},{""event"":""blur"",""trial"":29,""time"":1089073},{""event"":""focus"",""trial"":29,""time"":1096747},{""event"":""blur"",""trial"":30,""time"":1099058},{""event"":""focus"",""trial"":30,""time"":1101890},{""event"":""blur"",""trial"":30,""time"":1104419},{""event"":""focus"",""trial"":30,""time"":1104858},{""event"":""blur"",""trial"":44,""time"":1226955},{""event"":""focus"",""trial"":44,""time"":1238193},{""event"":""blur"",""trial"":44,""time"":1239132},{""event"":""focus"",""trial"":44,""time"":1241535},{""event"":""blur"",""trial"":47,""time"":1325334},{""event"":""focus"",""trial"":47,""time"":1330379},{""event"":""blur"",""trial"":48,""time"":1344153},{""event"":""focus"",""trial"":48,""time"":1345228},{""event"":""blur"",""trial"":52,""time"":1382219},{""event"":""focus"",""trial"":52,""time"":1393516},{""event"":""blur"",""trial"":54,""time"":1404574},{""event"":""focus"",""trial"":54,""time"":1411113}]",NA,1587,static/audio/instructions14.wav,NA,0,NA,NA,NA,NA,NA,NA,NA,NA,NA,NA,NA,NA,NA,NA,NA,NA,NA,NA,NA,NA,NA,NA,NA,NA,NA
audio-instructions,55,1427523,0.0-7.0-0.0,voc_e2,11838,"[{""event"":""fullscreenenter"",""trial"":1,""time"":1366},{""event"":""fullscreenexit"",""trial"":2,""time"":2416},{""event"":""blur"",""trial"":16,""time"":94616},{""event"":""focus"",""trial"":16,""time"":100908},{""event"":""blur"",""trial"":17,""time"":117199},{""event"":""focus"",""trial"":17,""time"":129822},{""event"":""blur"",""trial"":20,""time"":1010580},{""event"":""focus"",""trial"":20,""time"":1017218},{""event"":""blur"",""trial"":21,""time"":1022177},{""event"":""focus"",""trial"":21,""time"":1027632},{""event"":""blur"",""trial"":21,""time"":1028632},{""event"":""focus"",""trial"":21,""time"":1034947},{""event"":""blur"",""trial"":23,""time"":1059446},{""event"":""focus"",""trial"":23,""time"":1062833},{""event"":""blur"",""trial"":29,""time"":1079471},{""event"":""focus"",""trial"":29,""time"":1079681},{""event"":""blur"",""trial"":29,""time"":1089073},{""event"":""focus"",""trial"":29,""time"":1096747},{""event"":""blur"",""trial"":30,""time"":1099058},{""event"":""focus"",""trial"":30,""time"":1101890},{""event"":""blur"",""trial"":30,""time"":1104419},{""event"":""focus"",""trial"":30,""time"":1104858},{""event"":""blur"",""trial"":44,""time"":1226955},{""event"":""focus"",""trial"":44,""time"":1238193},{""event"":""blur"",""trial"":44,""time"":1239132},{""event"":""focus"",""trial"":44,""time"":1241535},{""event"":""blur"",""trial"":47,""time"":1325334},{""event"":""focus"",""trial"":47,""time"":1330379},{""event"":""blur"",""trial"":48,""time"":1344153},{""event"":""focus"",""trial"":48,""time"":1345228},{""event"":""blur"",""trial"":52,""time"":1382219},{""event"":""focus"",""trial"":52,""time"":1393516},{""event"":""blur"",""trial"":54,""time"":1404574},{""event"":""focus"",""trial"":54,""time"":1411113},{""event"":""blur"",""trial"":55,""time"":1416034},{""event"":""focus"",""trial"":55,""time"":1426742}]",NA,7581.5,static/audio/instructions15.wav,NA,0,NA,NA,NA,NA,NA,NA,NA,NA,NA,NA,NA,NA,NA,NA,NA,NA,NA,NA,NA,NA,NA,NA,NA,NA,NA
audio-instructions,56,1435039,0.0-7.0-1.0,voc_e2,11838,"[{""event"":""fullscreenenter"",""trial"":1,""time"":1366},{""event"":""fullscreenexit"",""trial"":2,""time"":2416},{""event"":""blur"",""trial"":16,""time"":94616},{""event"":""focus"",""trial"":16,""time"":100908},{""event"":""blur"",""trial"":17,""time"":117199},{""event"":""focus"",""trial"":17,""time"":129822},{""event"":""blur"",""trial"":20,""time"":1010580},{""event"":""focus"",""trial"":20,""time"":1017218},{""event"":""blur"",""trial"":21,""time"":1022177},{""event"":""focus"",""trial"":21,""time"":1027632},{""event"":""blur"",""trial"":21,""time"":1028632},{""event"":""focus"",""trial"":21,""time"":1034947},{""event"":""blur"",""trial"":23,""time"":1059446},{""event"":""focus"",""trial"":23,""time"":1062833},{""event"":""blur"",""trial"":29,""time"":1079471},{""event"":""focus"",""trial"":29,""time"":1079681},{""event"":""blur"",""trial"":29,""time"":1089073},{""event"":""focus"",""trial"":29,""time"":1096747},{""event"":""blur"",""trial"":30,""time"":1099058},{""event"":""focus"",""trial"":30,""time"":1101890},{""event"":""blur"",""trial"":30,""time"":1104419},{""event"":""focus"",""trial"":30,""time"":1104858},{""event"":""blur"",""trial"":44,""time"":1226955},{""event"":""focus"",""trial"":44,""time"":1238193},{""event"":""blur"",""trial"":44,""time"":1239132},{""event"":""focus"",""trial"":44,""time"":1241535},{""event"":""blur"",""trial"":47,""time"":1325334},{""event"":""focus"",""trial"":47,""time"":1330379},{""event"":""blur"",""trial"":48,""time"":1344153},{""event"":""focus"",""trial"":48,""time"":1345228},{""event"":""blur"",""trial"":52,""time"":1382219},{""event"":""focus"",""trial"":52,""time"":1393516},{""event"":""blur"",""trial"":54,""time"":1404574},{""event"":""focus"",""trial"":54,""time"":1411113},{""event"":""blur"",""trial"":55,""time"":1416034},{""event"":""focus"",""trial"":55,""time"":1426742}]",NA,688.7999999970198,static/audio/instructions16.wav,NA,0,NA,NA,NA,NA,NA,NA,NA,NA,NA,NA,NA,NA,NA,NA,NA,NA,NA,NA,NA,NA,NA,NA,NA,NA,NA
audio-instructions,57,1443207,0.0-7.0-2.0,voc_e2,11838,"[{""event"":""fullscreenenter"",""trial"":1,""time"":1366},{""event"":""fullscreenexit"",""trial"":2,""time"":2416},{""event"":""blur"",""trial"":16,""time"":94616},{""event"":""focus"",""trial"":16,""time"":100908},{""event"":""blur"",""trial"":17,""time"":117199},{""event"":""focus"",""trial"":17,""time"":129822},{""event"":""blur"",""trial"":20,""time"":1010580},{""event"":""focus"",""trial"":20,""time"":1017218},{""event"":""blur"",""trial"":21,""time"":1022177},{""event"":""focus"",""trial"":21,""time"":1027632},{""event"":""blur"",""trial"":21,""time"":1028632},{""event"":""focus"",""trial"":21,""time"":1034947},{""event"":""blur"",""trial"":23,""time"":1059446},{""event"":""focus"",""trial"":23,""time"":1062833},{""event"":""blur"",""trial"":29,""time"":1079471},{""event"":""focus"",""trial"":29,""time"":1079681},{""event"":""blur"",""trial"":29,""time"":1089073},{""event"":""focus"",""trial"":29,""time"":1096747},{""event"":""blur"",""trial"":30,""time"":1099058},{""event"":""focus"",""trial"":30,""time"":1101890},{""event"":""blur"",""trial"":30,""time"":1104419},{""event"":""focus"",""trial"":30,""time"":1104858},{""event"":""blur"",""trial"":44,""time"":1226955},{""event"":""focus"",""trial"":44,""time"":1238193},{""event"":""blur"",""trial"":44,""time"":1239132},{""event"":""focus"",""trial"":44,""time"":1241535},{""event"":""blur"",""trial"":47,""time"":1325334},{""event"":""focus"",""trial"":47,""time"":1330379},{""event"":""blur"",""trial"":48,""time"":1344153},{""event"":""focus"",""trial"":48,""time"":1345228},{""event"":""blur"",""trial"":52,""time"":1382219},{""event"":""focus"",""trial"":52,""time"":1393516},{""event"":""blur"",""trial"":54,""time"":1404574},{""event"":""focus"",""trial"":54,""time"":1411113},{""event"":""blur"",""trial"":55,""time"":1416034},{""event"":""focus"",""trial"":55,""time"":1426742}]",NA,486.6000000089407,static/audio/instructions17.wav,NA,0,NA,NA,NA,NA,NA,NA,NA,NA,NA,NA,NA,NA,NA,NA,NA,NA,NA,NA,NA,NA,NA,NA,NA,NA,NA
audio-instructions,58,1451632,0.0-7.0-3.0,voc_e2,11838,"[{""event"":""fullscreenenter"",""trial"":1,""time"":1366},{""event"":""fullscreenexit"",""trial"":2,""time"":2416},{""event"":""blur"",""trial"":16,""time"":94616},{""event"":""focus"",""trial"":16,""time"":100908},{""event"":""blur"",""trial"":17,""time"":117199},{""event"":""focus"",""trial"":17,""time"":129822},{""event"":""blur"",""trial"":20,""time"":1010580},{""event"":""focus"",""trial"":20,""time"":1017218},{""event"":""blur"",""trial"":21,""time"":1022177},{""event"":""focus"",""trial"":21,""time"":1027632},{""event"":""blur"",""trial"":21,""time"":1028632},{""event"":""focus"",""trial"":21,""time"":1034947},{""event"":""blur"",""trial"":23,""time"":1059446},{""event"":""focus"",""trial"":23,""time"":1062833},{""event"":""blur"",""trial"":29,""time"":1079471},{""event"":""focus"",""trial"":29,""time"":1079681},{""event"":""blur"",""trial"":29,""time"":1089073},{""event"":""focus"",""trial"":29,""time"":1096747},{""event"":""blur"",""trial"":30,""time"":1099058},{""event"":""focus"",""trial"":30,""time"":1101890},{""event"":""blur"",""trial"":30,""time"":1104419},{""event"":""focus"",""trial"":30,""time"":1104858},{""event"":""blur"",""trial"":44,""time"":1226955},{""event"":""focus"",""trial"":44,""time"":1238193},{""event"":""blur"",""trial"":44,""time"":1239132},{""event"":""focus"",""trial"":44,""time"":1241535},{""event"":""blur"",""trial"":47,""time"":1325334},{""event"":""focus"",""trial"":47,""time"":1330379},{""event"":""blur"",""trial"":48,""time"":1344153},{""event"":""focus"",""trial"":48,""time"":1345228},{""event"":""blur"",""trial"":52,""time"":1382219},{""event"":""focus"",""trial"":52,""time"":1393516},{""event"":""blur"",""trial"":54,""time"":1404574},{""event"":""focus"",""trial"":54,""time"":1411113},{""event"":""blur"",""trial"":55,""time"":1416034},{""event"":""focus"",""trial"":55,""time"":1426742}]",NA,660.3999999910593,static/audio/instructions18.wav,NA,0,NA,NA,NA,NA,NA,NA,NA,NA,NA,NA,NA,NA,NA,NA,NA,NA,NA,NA,NA,NA,NA,NA,NA,NA,NA
audio-instructions,59,1459888,0.0-7.0-4.0,voc_e2,11838,"[{""event"":""fullscreenenter"",""trial"":1,""time"":1366},{""event"":""fullscreenexit"",""trial"":2,""time"":2416},{""event"":""blur"",""trial"":16,""time"":94616},{""event"":""focus"",""trial"":16,""time"":100908},{""event"":""blur"",""trial"":17,""time"":117199},{""event"":""focus"",""trial"":17,""time"":129822},{""event"":""blur"",""trial"":20,""time"":1010580},{""event"":""focus"",""trial"":20,""time"":1017218},{""event"":""blur"",""trial"":21,""time"":1022177},{""event"":""focus"",""trial"":21,""time"":1027632},{""event"":""blur"",""trial"":21,""time"":1028632},{""event"":""focus"",""trial"":21,""time"":1034947},{""event"":""blur"",""trial"":23,""time"":1059446},{""event"":""focus"",""trial"":23,""time"":1062833},{""event"":""blur"",""trial"":29,""time"":1079471},{""event"":""focus"",""trial"":29,""time"":1079681},{""event"":""blur"",""trial"":29,""time"":1089073},{""event"":""focus"",""trial"":29,""time"":1096747},{""event"":""blur"",""trial"":30,""time"":1099058},{""event"":""focus"",""trial"":30,""time"":1101890},{""event"":""blur"",""trial"":30,""time"":1104419},{""event"":""focus"",""trial"":30,""time"":1104858},{""event"":""blur"",""trial"":44,""time"":1226955},{""event"":""focus"",""trial"":44,""time"":1238193},{""event"":""blur"",""trial"":44,""time"":1239132},{""event"":""focus"",""trial"":44,""time"":1241535},{""event"":""blur"",""trial"":47,""time"":1325334},{""event"":""focus"",""trial"":47,""time"":1330379},{""event"":""blur"",""trial"":48,""time"":1344153},{""event"":""focus"",""trial"":48,""time"":1345228},{""event"":""blur"",""trial"":52,""time"":1382219},{""event"":""focus"",""trial"":52,""time"":1393516},{""event"":""blur"",""trial"":54,""time"":1404574},{""event"":""focus"",""trial"":54,""time"":1411113},{""event"":""blur"",""trial"":55,""time"":1416034},{""event"":""focus"",""trial"":55,""time"":1426742}]",NA,1508.2000000029802,static/audio/instructions19.wav,NA,0,NA,NA,NA,NA,NA,NA,NA,NA,NA,NA,NA,NA,NA,NA,NA,NA,NA,NA,NA,NA,NA,NA,NA,NA,NA
fcp-comprehension,60,1470713,0.0-7.0-5.0,voc_e2,11838,"[{""event"":""fullscreenenter"",""trial"":1,""time"":1366},{""event"":""fullscreenexit"",""trial"":2,""time"":2416},{""event"":""blur"",""trial"":16,""time"":94616},{""event"":""focus"",""trial"":16,""time"":100908},{""event"":""blur"",""trial"":17,""time"":117199},{""event"":""focus"",""trial"":17,""time"":129822},{""event"":""blur"",""trial"":20,""time"":1010580},{""event"":""focus"",""trial"":20,""time"":1017218},{""event"":""blur"",""trial"":21,""time"":1022177},{""event"":""focus"",""trial"":21,""time"":1027632},{""event"":""blur"",""trial"":21,""time"":1028632},{""event"":""focus"",""trial"":21,""time"":1034947},{""event"":""blur"",""trial"":23,""time"":1059446},{""event"":""focus"",""trial"":23,""time"":1062833},{""event"":""blur"",""trial"":29,""time"":1079471},{""event"":""focus"",""trial"":29,""time"":1079681},{""event"":""blur"",""trial"":29,""time"":1089073},{""event"":""focus"",""trial"":29,""time"":1096747},{""event"":""blur"",""trial"":30,""time"":1099058},{""event"":""focus"",""trial"":30,""time"":1101890},{""event"":""blur"",""trial"":30,""time"":1104419},{""event"":""focus"",""trial"":30,""time"":1104858},{""event"":""blur"",""trial"":44,""time"":1226955},{""event"":""focus"",""trial"":44,""time"":1238193},{""event"":""blur"",""trial"":44,""time"":1239132},{""event"":""focus"",""trial"":44,""time"":1241535},{""event"":""blur"",""trial"":47,""time"":1325334},{""event"":""focus"",""trial"":47,""time"":1330379},{""event"":""blur"",""trial"":48,""time"":1344153},{""event"":""focus"",""trial"":48,""time"":1345228},{""event"":""blur"",""trial"":52,""time"":1382219},{""event"":""focus"",""trial"":52,""time"":1393516},{""event"":""blur"",""trial"":54,""time"":1404574},{""event"":""focus"",""trial"":54,""time"":1411113},{""event"":""blur"",""trial"":55,""time"":1416034},{""event"":""focus"",""trial"":55,""time"":1426742}]",NA,10822.69999998808,NA,NA,NA,NA,NA,NA,NA,NA,NA,NA,NA,NA,NA,NA,NA,NA,NA,NA,"false,false,false,true",0,NA,NA,NA,NA,NA,NA,NA,NA
audio-instructions,61,1481143,0.0-8.0,voc_e2,11838,"[{""event"":""fullscreenenter"",""trial"":1,""time"":1366},{""event"":""fullscreenexit"",""trial"":2,""time"":2416},{""event"":""blur"",""trial"":16,""time"":94616},{""event"":""focus"",""trial"":16,""time"":100908},{""event"":""blur"",""trial"":17,""time"":117199},{""event"":""focus"",""trial"":17,""time"":129822},{""event"":""blur"",""trial"":20,""time"":1010580},{""event"":""focus"",""trial"":20,""time"":1017218},{""event"":""blur"",""trial"":21,""time"":1022177},{""event"":""focus"",""trial"":21,""time"":1027632},{""event"":""blur"",""trial"":21,""time"":1028632},{""event"":""focus"",""trial"":21,""time"":1034947},{""event"":""blur"",""trial"":23,""time"":1059446},{""event"":""focus"",""trial"":23,""time"":1062833},{""event"":""blur"",""trial"":29,""time"":1079471},{""event"":""focus"",""trial"":29,""time"":1079681},{""event"":""blur"",""trial"":29,""time"":1089073},{""event"":""focus"",""trial"":29,""time"":1096747},{""event"":""blur"",""trial"":30,""time"":1099058},{""event"":""focus"",""trial"":30,""time"":1101890},{""event"":""blur"",""trial"":30,""time"":1104419},{""event"":""focus"",""trial"":30,""time"":1104858},{""event"":""blur"",""trial"":44,""time"":1226955},{""event"":""focus"",""trial"":44,""time"":1238193},{""event"":""blur"",""trial"":44,""time"":1239132},{""event"":""focus"",""trial"":44,""time"":1241535},{""event"":""blur"",""trial"":47,""time"":1325334},{""event"":""focus"",""trial"":47,""time"":1330379},{""event"":""blur"",""trial"":48,""time"":1344153},{""event"":""focus"",""trial"":48,""time"":1345228},{""event"":""blur"",""trial"":52,""time"":1382219},{""event"":""focus"",""trial"":52,""time"":1393516},{""event"":""blur"",""trial"":54,""time"":1404574},{""event"":""focus"",""trial"":54,""time"":1411113},{""event"":""blur"",""trial"":55,""time"":1416034},{""event"":""focus"",""trial"":55,""time"":1426742}]",NA,1212.699999988079,static/audio/ready.wav,NA,0,NA,NA,NA,NA,NA,NA,NA,NA,NA,NA,NA,NA,NA,NA,NA,NA,NA,NA,NA,NA,NA,NA,NA,NA,NA
fcp-trial,62,1487438,0.0-9.0-0.0,voc_e2,11838,"[{""event"":""fullscreenenter"",""trial"":1,""time"":1366},{""event"":""fullscreenexit"",""trial"":2,""time"":2416},{""event"":""blur"",""trial"":16,""time"":94616},{""event"":""focus"",""trial"":16,""time"":100908},{""event"":""blur"",""trial"":17,""time"":117199},{""event"":""focus"",""trial"":17,""time"":129822},{""event"":""blur"",""trial"":20,""time"":1010580},{""event"":""focus"",""trial"":20,""time"":1017218},{""event"":""blur"",""trial"":21,""time"":1022177},{""event"":""focus"",""trial"":21,""time"":1027632},{""event"":""blur"",""trial"":21,""time"":1028632},{""event"":""focus"",""trial"":21,""time"":1034947},{""event"":""blur"",""trial"":23,""time"":1059446},{""event"":""focus"",""trial"":23,""time"":1062833},{""event"":""blur"",""trial"":29,""time"":1079471},{""event"":""focus"",""trial"":29,""time"":1079681},{""event"":""blur"",""trial"":29,""time"":1089073},{""event"":""focus"",""trial"":29,""time"":1096747},{""event"":""blur"",""trial"":30,""time"":1099058},{""event"":""focus"",""trial"":30,""time"":1101890},{""event"":""blur"",""trial"":30,""time"":1104419},{""event"":""focus"",""trial"":30,""time"":1104858},{""event"":""blur"",""trial"":44,""time"":1226955},{""event"":""focus"",""trial"":44,""time"":1238193},{""event"":""blur"",""trial"":44,""time"":1239132},{""event"":""focus"",""trial"":44,""time"":1241535},{""event"":""blur"",""trial"":47,""time"":1325334},{""event"":""focus"",""trial"":47,""time"":1330379},{""event"":""blur"",""trial"":48,""time"":1344153},{""event"":""focus"",""trial"":48,""time"":1345228},{""event"":""blur"",""trial"":52,""time"":1382219},{""event"":""focus"",""trial"":52,""time"":1393516},{""event"":""blur"",""trial"":54,""time"":1404574},{""event"":""focus"",""trial"":54,""time"":1411113},{""event"":""blur"",""trial"":55,""time"":1416034},{""event"":""focus"",""trial"":55,""time"":1426742}]",NA,NA,NA,NA,NA,1,#D89F1C,#3386FF,10,0,1,38,1,2946.800000011921,37,1,1840.5999999940395,10,1,experiment,NA,NA,0,0.9,0.1,0,1,1,1,NA
fcp-trial,63,1491887,0.0-10.0-0.0,voc_e2,11838,"[{""event"":""fullscreenenter"",""trial"":1,""time"":1366},{""event"":""fullscreenexit"",""trial"":2,""time"":2416},{""event"":""blur"",""trial"":16,""time"":94616},{""event"":""focus"",""trial"":16,""time"":100908},{""event"":""blur"",""trial"":17,""time"":117199},{""event"":""focus"",""trial"":17,""time"":129822},{""event"":""blur"",""trial"":20,""time"":1010580},{""event"":""focus"",""trial"":20,""time"":1017218},{""event"":""blur"",""trial"":21,""time"":1022177},{""event"":""focus"",""trial"":21,""time"":1027632},{""event"":""blur"",""trial"":21,""time"":1028632},{""event"":""focus"",""trial"":21,""time"":1034947},{""event"":""blur"",""trial"":23,""time"":1059446},{""event"":""focus"",""trial"":23,""time"":1062833},{""event"":""blur"",""trial"":29,""time"":1079471},{""event"":""focus"",""trial"":29,""time"":1079681},{""event"":""blur"",""trial"":29,""time"":1089073},{""event"":""focus"",""trial"":29,""time"":1096747},{""event"":""blur"",""trial"":30,""time"":1099058},{""event"":""focus"",""trial"":30,""time"":1101890},{""event"":""blur"",""trial"":30,""time"":1104419},{""event"":""focus"",""trial"":30,""time"":1104858},{""event"":""blur"",""trial"":44,""time"":1226955},{""event"":""focus"",""trial"":44,""time"":1238193},{""event"":""blur"",""trial"":44,""time"":1239132},{""event"":""focus"",""trial"":44,""time"":1241535},{""event"":""blur"",""trial"":47,""time"":1325334},{""event"":""focus"",""trial"":47,""time"":1330379},{""event"":""blur"",""trial"":48,""time"":1344153},{""event"":""focus"",""trial"":48,""time"":1345228},{""event"":""blur"",""trial"":52,""time"":1382219},{""event"":""focus"",""trial"":52,""time"":1393516},{""event"":""blur"",""trial"":54,""time"":1404574},{""event"":""focus"",""trial"":54,""time"":1411113},{""event"":""blur"",""trial"":55,""time"":1416034},{""event"":""focus"",""trial"":55,""time"":1426742}]",NA,NA,NA,NA,NA,5,#D8271C,#741CD8,10,0,0,38,1,2173.5,37,1,757.2000000029802,10,0,experiment,NA,NA,2,0.5,0.5,5,4,2,1,NA
fcp-trial,64,1498898,0.0-11.0-0.0,voc_e2,11838,"[{""event"":""fullscreenenter"",""trial"":1,""time"":1366},{""event"":""fullscreenexit"",""trial"":2,""time"":2416},{""event"":""blur"",""trial"":16,""time"":94616},{""event"":""focus"",""trial"":16,""time"":100908},{""event"":""blur"",""trial"":17,""time"":117199},{""event"":""focus"",""trial"":17,""time"":129822},{""event"":""blur"",""trial"":20,""time"":1010580},{""event"":""focus"",""trial"":20,""time"":1017218},{""event"":""blur"",""trial"":21,""time"":1022177},{""event"":""focus"",""trial"":21,""time"":1027632},{""event"":""blur"",""trial"":21,""time"":1028632},{""event"":""focus"",""trial"":21,""time"":1034947},{""event"":""blur"",""trial"":23,""time"":1059446},{""event"":""focus"",""trial"":23,""time"":1062833},{""event"":""blur"",""trial"":29,""time"":1079471},{""event"":""focus"",""trial"":29,""time"":1079681},{""event"":""blur"",""trial"":29,""time"":1089073},{""event"":""focus"",""trial"":29,""time"":1096747},{""event"":""blur"",""trial"":30,""time"":1099058},{""event"":""focus"",""trial"":30,""time"":1101890},{""event"":""blur"",""trial"":30,""time"":1104419},{""event"":""focus"",""trial"":30,""time"":1104858},{""event"":""blur"",""trial"":44,""time"":1226955},{""event"":""focus"",""trial"":44,""time"":1238193},{""event"":""blur"",""trial"":44,""time"":1239132},{""event"":""focus"",""trial"":44,""time"":1241535},{""event"":""blur"",""trial"":47,""time"":1325334},{""event"":""focus"",""trial"":47,""time"":1330379},{""event"":""blur"",""trial"":48,""time"":1344153},{""event"":""focus"",""trial"":48,""time"":1345228},{""event"":""blur"",""trial"":52,""time"":1382219},{""event"":""focus"",""trial"":52,""time"":1393516},{""event"":""blur"",""trial"":54,""time"":1404574},{""event"":""focus"",""trial"":54,""time"":1411113},{""event"":""blur"",""trial"":55,""time"":1416034},{""event"":""focus"",""trial"":55,""time"":1426742}]",NA,NA,NA,NA,NA,3,#D8271C,#741CD8,10,0,0,38,1,1410.3999999910593,37,1,4093.0999999940395,10,0,experiment,NA,NA,2,0.5,0.5,5,4,3,1,NA
fcp-trial,65,1504074,0.0-12.0-0.0,voc_e2,11838,"[{""event"":""fullscreenenter"",""trial"":1,""time"":1366},{""event"":""fullscreenexit"",""trial"":2,""time"":2416},{""event"":""blur"",""trial"":16,""time"":94616},{""event"":""focus"",""trial"":16,""time"":100908},{""event"":""blur"",""trial"":17,""time"":117199},{""event"":""focus"",""trial"":17,""time"":129822},{""event"":""blur"",""trial"":20,""time"":1010580},{""event"":""focus"",""trial"":20,""time"":1017218},{""event"":""blur"",""trial"":21,""time"":1022177},{""event"":""focus"",""trial"":21,""time"":1027632},{""event"":""blur"",""trial"":21,""time"":1028632},{""event"":""focus"",""trial"":21,""time"":1034947},{""event"":""blur"",""trial"":23,""time"":1059446},{""event"":""focus"",""trial"":23,""time"":1062833},{""event"":""blur"",""trial"":29,""time"":1079471},{""event"":""focus"",""trial"":29,""time"":1079681},{""event"":""blur"",""trial"":29,""time"":1089073},{""event"":""focus"",""trial"":29,""time"":1096747},{""event"":""blur"",""trial"":30,""time"":1099058},{""event"":""focus"",""trial"":30,""time"":1101890},{""event"":""blur"",""trial"":30,""time"":1104419},{""event"":""focus"",""trial"":30,""time"":1104858},{""event"":""blur"",""trial"":44,""time"":1226955},{""event"":""focus"",""trial"":44,""time"":1238193},{""event"":""blur"",""trial"":44,""time"":1239132},{""event"":""focus"",""trial"":44,""time"":1241535},{""event"":""blur"",""trial"":47,""time"":1325334},{""event"":""focus"",""trial"":47,""time"":1330379},{""event"":""blur"",""trial"":48,""time"":1344153},{""event"":""focus"",""trial"":48,""time"":1345228},{""event"":""blur"",""trial"":52,""time"":1382219},{""event"":""focus"",""trial"":52,""time"":1393516},{""event"":""blur"",""trial"":54,""time"":1404574},{""event"":""focus"",""trial"":54,""time"":1411113},{""event"":""blur"",""trial"":55,""time"":1416034},{""event"":""focus"",""trial"":55,""time"":1426742}]",NA,NA,NA,NA,NA,6,#FA92F8,#1CD855,10,0,1,40,0,3034.2000000029802,39,0,633.1999999880791,0,0,experiment,NA,NA,1,0.7,0.3,2,3,4,1,NA
fcp-trial,66,1509610,0.0-13.0-0.0,voc_e2,11838,"[{""event"":""fullscreenenter"",""trial"":1,""time"":1366},{""event"":""fullscreenexit"",""trial"":2,""time"":2416},{""event"":""blur"",""trial"":16,""time"":94616},{""event"":""focus"",""trial"":16,""time"":100908},{""event"":""blur"",""trial"":17,""time"":117199},{""event"":""focus"",""trial"":17,""time"":129822},{""event"":""blur"",""trial"":20,""time"":1010580},{""event"":""focus"",""trial"":20,""time"":1017218},{""event"":""blur"",""trial"":21,""time"":1022177},{""event"":""focus"",""trial"":21,""time"":1027632},{""event"":""blur"",""trial"":21,""time"":1028632},{""event"":""focus"",""trial"":21,""time"":1034947},{""event"":""blur"",""trial"":23,""time"":1059446},{""event"":""focus"",""trial"":23,""time"":1062833},{""event"":""blur"",""trial"":29,""time"":1079471},{""event"":""focus"",""trial"":29,""time"":1079681},{""event"":""blur"",""trial"":29,""time"":1089073},{""event"":""focus"",""trial"":29,""time"":1096747},{""event"":""blur"",""trial"":30,""time"":1099058},{""event"":""focus"",""trial"":30,""time"":1101890},{""event"":""blur"",""trial"":30,""time"":1104419},{""event"":""focus"",""trial"":30,""time"":1104858},{""event"":""blur"",""trial"":44,""time"":1226955},{""event"":""focus"",""trial"":44,""time"":1238193},{""event"":""blur"",""trial"":44,""time"":1239132},{""event"":""focus"",""trial"":44,""time"":1241535},{""event"":""blur"",""trial"":47,""time"":1325334},{""event"":""focus"",""trial"":47,""time"":1330379},{""event"":""blur"",""trial"":48,""time"":1344153},{""event"":""focus"",""trial"":48,""time"":1345228},{""event"":""blur"",""trial"":52,""time"":1382219},{""event"":""focus"",""trial"":52,""time"":1393516},{""event"":""blur"",""trial"":54,""time"":1404574},{""event"":""focus"",""trial"":54,""time"":1411113},{""event"":""blur"",""trial"":55,""time"":1416034},{""event"":""focus"",""trial"":55,""time"":1426742}]",NA,NA,NA,NA,NA,5,#FA92F8,#1CD855,10,10,1,38,1,3232.2000000029802,37,1,794.6999999880791,10,1,experiment,NA,NA,1,0.7,0.3,2,3,5,1,NA
fcp-trial,67,1512935,0.0-14.0-0.0,voc_e2,11838,"[{""event"":""fullscreenenter"",""trial"":1,""time"":1366},{""event"":""fullscreenexit"",""trial"":2,""time"":2416},{""event"":""blur"",""trial"":16,""time"":94616},{""event"":""focus"",""trial"":16,""time"":100908},{""event"":""blur"",""trial"":17,""time"":117199},{""event"":""focus"",""trial"":17,""time"":129822},{""event"":""blur"",""trial"":20,""time"":1010580},{""event"":""focus"",""trial"":20,""time"":1017218},{""event"":""blur"",""trial"":21,""time"":1022177},{""event"":""focus"",""trial"":21,""time"":1027632},{""event"":""blur"",""trial"":21,""time"":1028632},{""event"":""focus"",""trial"":21,""time"":1034947},{""event"":""blur"",""trial"":23,""time"":1059446},{""event"":""focus"",""trial"":23,""time"":1062833},{""event"":""blur"",""trial"":29,""time"":1079471},{""event"":""focus"",""trial"":29,""time"":1079681},{""event"":""blur"",""trial"":29,""time"":1089073},{""event"":""focus"",""trial"":29,""time"":1096747},{""event"":""blur"",""trial"":30,""time"":1099058},{""event"":""focus"",""trial"":30,""time"":1101890},{""event"":""blur"",""trial"":30,""time"":1104419},{""event"":""focus"",""trial"":30,""time"":1104858},{""event"":""blur"",""trial"":44,""time"":1226955},{""event"":""focus"",""trial"":44,""time"":1238193},{""event"":""blur"",""trial"":44,""time"":1239132},{""event"":""focus"",""trial"":44,""time"":1241535},{""event"":""blur"",""trial"":47,""time"":1325334},{""event"":""focus"",""trial"":47,""time"":1330379},{""event"":""blur"",""trial"":48,""time"":1344153},{""event"":""focus"",""trial"":48,""time"":1345228},{""event"":""blur"",""trial"":52,""time"":1382219},{""event"":""focus"",""trial"":52,""time"":1393516},{""event"":""blur"",""trial"":54,""time"":1404574},{""event"":""focus"",""trial"":54,""time"":1411113},{""event"":""blur"",""trial"":55,""time"":1416034},{""event"":""focus"",""trial"":55,""time"":1426742}]",NA,NA,NA,NA,NA,5,#D89F1C,#3386FF,10,0,1,38,1,827,37,1,992.3999999910593,10,1,experiment,NA,NA,0,0.9,0.1,0,1,6,1,NA
fcp-trial,68,1516779,0.0-15.0-0.0,voc_e2,11838,"[{""event"":""fullscreenenter"",""trial"":1,""time"":1366},{""event"":""fullscreenexit"",""trial"":2,""time"":2416},{""event"":""blur"",""trial"":16,""time"":94616},{""event"":""focus"",""trial"":16,""time"":100908},{""event"":""blur"",""trial"":17,""time"":117199},{""event"":""focus"",""trial"":17,""time"":129822},{""event"":""blur"",""trial"":20,""time"":1010580},{""event"":""focus"",""trial"":20,""time"":1017218},{""event"":""blur"",""trial"":21,""time"":1022177},{""event"":""focus"",""trial"":21,""time"":1027632},{""event"":""blur"",""trial"":21,""time"":1028632},{""event"":""focus"",""trial"":21,""time"":1034947},{""event"":""blur"",""trial"":23,""time"":1059446},{""event"":""focus"",""trial"":23,""time"":1062833},{""event"":""blur"",""trial"":29,""time"":1079471},{""event"":""focus"",""trial"":29,""time"":1079681},{""event"":""blur"",""trial"":29,""time"":1089073},{""event"":""focus"",""trial"":29,""time"":1096747},{""event"":""blur"",""trial"":30,""time"":1099058},{""event"":""focus"",""trial"":30,""time"":1101890},{""event"":""blur"",""trial"":30,""time"":1104419},{""event"":""focus"",""trial"":30,""time"":1104858},{""event"":""blur"",""trial"":44,""time"":1226955},{""event"":""focus"",""trial"":44,""time"":1238193},{""event"":""blur"",""trial"":44,""time"":1239132},{""event"":""focus"",""trial"":44,""time"":1241535},{""event"":""blur"",""trial"":47,""time"":1325334},{""event"":""focus"",""trial"":47,""time"":1330379},{""event"":""blur"",""trial"":48,""time"":1344153},{""event"":""focus"",""trial"":48,""time"":1345228},{""event"":""blur"",""trial"":52,""time"":1382219},{""event"":""focus"",""trial"":52,""time"":1393516},{""event"":""blur"",""trial"":54,""time"":1404574},{""event"":""focus"",""trial"":54,""time"":1411113},{""event"":""blur"",""trial"":55,""time"":1416034},{""event"":""focus"",""trial"":55,""time"":1426742}]",NA,NA,NA,NA,NA,2,#D8271C,#741CD8,10,10,0,38,1,1776.300000011921,37,1,558.7999999970198,10,0,experiment,NA,NA,2,0.5,0.5,5,4,7,1,NA
fcp-trial,69,1522109,0.0-16.0-0.0,voc_e2,11838,"[{""event"":""fullscreenenter"",""trial"":1,""time"":1366},{""event"":""fullscreenexit"",""trial"":2,""time"":2416},{""event"":""blur"",""trial"":16,""time"":94616},{""event"":""focus"",""trial"":16,""time"":100908},{""event"":""blur"",""trial"":17,""time"":117199},{""event"":""focus"",""trial"":17,""time"":129822},{""event"":""blur"",""trial"":20,""time"":1010580},{""event"":""focus"",""trial"":20,""time"":1017218},{""event"":""blur"",""trial"":21,""time"":1022177},{""event"":""focus"",""trial"":21,""time"":1027632},{""event"":""blur"",""trial"":21,""time"":1028632},{""event"":""focus"",""trial"":21,""time"":1034947},{""event"":""blur"",""trial"":23,""time"":1059446},{""event"":""focus"",""trial"":23,""time"":1062833},{""event"":""blur"",""trial"":29,""time"":1079471},{""event"":""focus"",""trial"":29,""time"":1079681},{""event"":""blur"",""trial"":29,""time"":1089073},{""event"":""focus"",""trial"":29,""time"":1096747},{""event"":""blur"",""trial"":30,""time"":1099058},{""event"":""focus"",""trial"":30,""time"":1101890},{""event"":""blur"",""trial"":30,""time"":1104419},{""event"":""focus"",""trial"":30,""time"":1104858},{""event"":""blur"",""trial"":44,""time"":1226955},{""event"":""focus"",""trial"":44,""time"":1238193},{""event"":""blur"",""trial"":44,""time"":1239132},{""event"":""focus"",""trial"":44,""time"":1241535},{""event"":""blur"",""trial"":47,""time"":1325334},{""event"":""focus"",""trial"":47,""time"":1330379},{""event"":""blur"",""trial"":48,""time"":1344153},{""event"":""focus"",""trial"":48,""time"":1345228},{""event"":""blur"",""trial"":52,""time"":1382219},{""event"":""focus"",""trial"":52,""time"":1393516},{""event"":""blur"",""trial"":54,""time"":1404574},{""event"":""focus"",""trial"":54,""time"":1411113},{""event"":""blur"",""trial"":55,""time"":1416034},{""event"":""focus"",""trial"":55,""time"":1426742}]",NA,NA,NA,NA,NA,6,#741CD8,#D8271C,10,0,1,40,0,3308,39,0,513.7000000029802,0,0,experiment,NA,NA,2,0.5,0.5,4,5,8,1,NA
fcp-trial,70,1528026,0.0-17.0-0.0,voc_e2,11838,"[{""event"":""fullscreenenter"",""trial"":1,""time"":1366},{""event"":""fullscreenexit"",""trial"":2,""time"":2416},{""event"":""blur"",""trial"":16,""time"":94616},{""event"":""focus"",""trial"":16,""time"":100908},{""event"":""blur"",""trial"":17,""time"":117199},{""event"":""focus"",""trial"":17,""time"":129822},{""event"":""blur"",""trial"":20,""time"":1010580},{""event"":""focus"",""trial"":20,""time"":1017218},{""event"":""blur"",""trial"":21,""time"":1022177},{""event"":""focus"",""trial"":21,""time"":1027632},{""event"":""blur"",""trial"":21,""time"":1028632},{""event"":""focus"",""trial"":21,""time"":1034947},{""event"":""blur"",""trial"":23,""time"":1059446},{""event"":""focus"",""trial"":23,""time"":1062833},{""event"":""blur"",""trial"":29,""time"":1079471},{""event"":""focus"",""trial"":29,""time"":1079681},{""event"":""blur"",""trial"":29,""time"":1089073},{""event"":""focus"",""trial"":29,""time"":1096747},{""event"":""blur"",""trial"":30,""time"":1099058},{""event"":""focus"",""trial"":30,""time"":1101890},{""event"":""blur"",""trial"":30,""time"":1104419},{""event"":""focus"",""trial"":30,""time"":1104858},{""event"":""blur"",""trial"":44,""time"":1226955},{""event"":""focus"",""trial"":44,""time"":1238193},{""event"":""blur"",""trial"":44,""time"":1239132},{""event"":""focus"",""trial"":44,""time"":1241535},{""event"":""blur"",""trial"":47,""time"":1325334},{""event"":""focus"",""trial"":47,""time"":1330379},{""event"":""blur"",""trial"":48,""time"":1344153},{""event"":""focus"",""trial"":48,""time"":1345228},{""event"":""blur"",""trial"":52,""time"":1382219},{""event"":""focus"",""trial"":52,""time"":1393516},{""event"":""blur"",""trial"":54,""time"":1404574},{""event"":""focus"",""trial"":54,""time"":1411113},{""event"":""blur"",""trial"":55,""time"":1416034},{""event"":""focus"",""trial"":55,""time"":1426742}]",NA,NA,NA,NA,NA,6,#3386FF,#D89F1C,0,10,0,38,1,3909.5999999940395,37,1,495.30000001192093,0,0,experiment,NA,NA,0,0.1,0.9,1,0,9,1,NA
fcp-trial,71,1532332,0.0-18.0-0.0,voc_e2,11838,"[{""event"":""fullscreenenter"",""trial"":1,""time"":1366},{""event"":""fullscreenexit"",""trial"":2,""time"":2416},{""event"":""blur"",""trial"":16,""time"":94616},{""event"":""focus"",""trial"":16,""time"":100908},{""event"":""blur"",""trial"":17,""time"":117199},{""event"":""focus"",""trial"":17,""time"":129822},{""event"":""blur"",""trial"":20,""time"":1010580},{""event"":""focus"",""trial"":20,""time"":1017218},{""event"":""blur"",""trial"":21,""time"":1022177},{""event"":""focus"",""trial"":21,""time"":1027632},{""event"":""blur"",""trial"":21,""time"":1028632},{""event"":""focus"",""trial"":21,""time"":1034947},{""event"":""blur"",""trial"":23,""time"":1059446},{""event"":""focus"",""trial"":23,""time"":1062833},{""event"":""blur"",""trial"":29,""time"":1079471},{""event"":""focus"",""trial"":29,""time"":1079681},{""event"":""blur"",""trial"":29,""time"":1089073},{""event"":""focus"",""trial"":29,""time"":1096747},{""event"":""blur"",""trial"":30,""time"":1099058},{""event"":""focus"",""trial"":30,""time"":1101890},{""event"":""blur"",""trial"":30,""time"":1104419},{""event"":""focus"",""trial"":30,""time"":1104858},{""event"":""blur"",""trial"":44,""time"":1226955},{""event"":""focus"",""trial"":44,""time"":1238193},{""event"":""blur"",""trial"":44,""time"":1239132},{""event"":""focus"",""trial"":44,""time"":1241535},{""event"":""blur"",""trial"":47,""time"":1325334},{""event"":""focus"",""trial"":47,""time"":1330379},{""event"":""blur"",""trial"":48,""time"":1344153},{""event"":""focus"",""trial"":48,""time"":1345228},{""event"":""blur"",""trial"":52,""time"":1382219},{""event"":""focus"",""trial"":52,""time"":1393516},{""event"":""blur"",""trial"":54,""time"":1404574},{""event"":""focus"",""trial"":54,""time"":1411113},{""event"":""blur"",""trial"":55,""time"":1416034},{""event"":""focus"",""trial"":55,""time"":1426742}]",NA,NA,NA,NA,NA,2,#FA92F8,#1CD855,10,0,1,38,1,2328,37,1,473.6000000089407,10,1,experiment,NA,NA,1,0.7,0.3,2,3,10,1,NA
fcp-trial,72,1547336,0.0-19.0-0.0,voc_e2,11838,"[{""event"":""fullscreenenter"",""trial"":1,""time"":1366},{""event"":""fullscreenexit"",""trial"":2,""time"":2416},{""event"":""blur"",""trial"":16,""time"":94616},{""event"":""focus"",""trial"":16,""time"":100908},{""event"":""blur"",""trial"":17,""time"":117199},{""event"":""focus"",""trial"":17,""time"":129822},{""event"":""blur"",""trial"":20,""time"":1010580},{""event"":""focus"",""trial"":20,""time"":1017218},{""event"":""blur"",""trial"":21,""time"":1022177},{""event"":""focus"",""trial"":21,""time"":1027632},{""event"":""blur"",""trial"":21,""time"":1028632},{""event"":""focus"",""trial"":21,""time"":1034947},{""event"":""blur"",""trial"":23,""time"":1059446},{""event"":""focus"",""trial"":23,""time"":1062833},{""event"":""blur"",""trial"":29,""time"":1079471},{""event"":""focus"",""trial"":29,""time"":1079681},{""event"":""blur"",""trial"":29,""time"":1089073},{""event"":""focus"",""trial"":29,""time"":1096747},{""event"":""blur"",""trial"":30,""time"":1099058},{""event"":""focus"",""trial"":30,""time"":1101890},{""event"":""blur"",""trial"":30,""time"":1104419},{""event"":""focus"",""trial"":30,""time"":1104858},{""event"":""blur"",""trial"":44,""time"":1226955},{""event"":""focus"",""trial"":44,""time"":1238193},{""event"":""blur"",""trial"":44,""time"":1239132},{""event"":""focus"",""trial"":44,""time"":1241535},{""event"":""blur"",""trial"":47,""time"":1325334},{""event"":""focus"",""trial"":47,""time"":1330379},{""event"":""blur"",""trial"":48,""time"":1344153},{""event"":""focus"",""trial"":48,""time"":1345228},{""event"":""blur"",""trial"":52,""time"":1382219},{""event"":""focus"",""trial"":52,""time"":1393516},{""event"":""blur"",""trial"":54,""time"":1404574},{""event"":""focus"",""trial"":54,""time"":1411113},{""event"":""blur"",""trial"":55,""time"":1416034},{""event"":""focus"",""trial"":55,""time"":1426742},{""event"":""blur"",""trial"":72,""time"":1536367},{""event"":""focus"",""trial"":72,""time"":1540116}]",NA,NA,NA,NA,NA,3,#D89F1C,#3386FF,10,0,1,null,null,null,null,null,null,NA,0,experiment,NA,NA,0,0.9,0.1,0,1,11,1,NA
fcp-trial,73,1551662,0.0-20.0-0.0,voc_e2,11838,"[{""event"":""fullscreenenter"",""trial"":1,""time"":1366},{""event"":""fullscreenexit"",""trial"":2,""time"":2416},{""event"":""blur"",""trial"":16,""time"":94616},{""event"":""focus"",""trial"":16,""time"":100908},{""event"":""blur"",""trial"":17,""time"":117199},{""event"":""focus"",""trial"":17,""time"":129822},{""event"":""blur"",""trial"":20,""time"":1010580},{""event"":""focus"",""trial"":20,""time"":1017218},{""event"":""blur"",""trial"":21,""time"":1022177},{""event"":""focus"",""trial"":21,""time"":1027632},{""event"":""blur"",""trial"":21,""time"":1028632},{""event"":""focus"",""trial"":21,""time"":1034947},{""event"":""blur"",""trial"":23,""time"":1059446},{""event"":""focus"",""trial"":23,""time"":1062833},{""event"":""blur"",""trial"":29,""time"":1079471},{""event"":""focus"",""trial"":29,""time"":1079681},{""event"":""blur"",""trial"":29,""time"":1089073},{""event"":""focus"",""trial"":29,""time"":1096747},{""event"":""blur"",""trial"":30,""time"":1099058},{""event"":""focus"",""trial"":30,""time"":1101890},{""event"":""blur"",""trial"":30,""time"":1104419},{""event"":""focus"",""trial"":30,""time"":1104858},{""event"":""blur"",""trial"":44,""time"":1226955},{""event"":""focus"",""trial"":44,""time"":1238193},{""event"":""blur"",""trial"":44,""time"":1239132},{""event"":""focus"",""trial"":44,""time"":1241535},{""event"":""blur"",""trial"":47,""time"":1325334},{""event"":""focus"",""trial"":47,""time"":1330379},{""event"":""blur"",""trial"":48,""time"":1344153},{""event"":""focus"",""trial"":48,""time"":1345228},{""event"":""blur"",""trial"":52,""time"":1382219},{""event"":""focus"",""trial"":52,""time"":1393516},{""event"":""blur"",""trial"":54,""time"":1404574},{""event"":""focus"",""trial"":54,""time"":1411113},{""event"":""blur"",""trial"":55,""time"":1416034},{""event"":""focus"",""trial"":55,""time"":1426742},{""event"":""blur"",""trial"":72,""time"":1536367},{""event"":""focus"",""trial"":72,""time"":1540116}]",NA,NA,NA,NA,NA,0,#1CD855,#FA92F8,0,10,0,40,0,1991.2000000029802,37,1,831.3000000119209,0,0,experiment,NA,NA,1,0.3,0.7,3,2,12,1,NA
fcp-trial,74,1556333,0.0-21.0-0.0,voc_e2,11838,"[{""event"":""fullscreenenter"",""trial"":1,""time"":1366},{""event"":""fullscreenexit"",""trial"":2,""time"":2416},{""event"":""blur"",""trial"":16,""time"":94616},{""event"":""focus"",""trial"":16,""time"":100908},{""event"":""blur"",""trial"":17,""time"":117199},{""event"":""focus"",""trial"":17,""time"":129822},{""event"":""blur"",""trial"":20,""time"":1010580},{""event"":""focus"",""trial"":20,""time"":1017218},{""event"":""blur"",""trial"":21,""time"":1022177},{""event"":""focus"",""trial"":21,""time"":1027632},{""event"":""blur"",""trial"":21,""time"":1028632},{""event"":""focus"",""trial"":21,""time"":1034947},{""event"":""blur"",""trial"":23,""time"":1059446},{""event"":""focus"",""trial"":23,""time"":1062833},{""event"":""blur"",""trial"":29,""time"":1079471},{""event"":""focus"",""trial"":29,""time"":1079681},{""event"":""blur"",""trial"":29,""time"":1089073},{""event"":""focus"",""trial"":29,""time"":1096747},{""event"":""blur"",""trial"":30,""time"":1099058},{""event"":""focus"",""trial"":30,""time"":1101890},{""event"":""blur"",""trial"":30,""time"":1104419},{""event"":""focus"",""trial"":30,""time"":1104858},{""event"":""blur"",""trial"":44,""time"":1226955},{""event"":""focus"",""trial"":44,""time"":1238193},{""event"":""blur"",""trial"":44,""time"":1239132},{""event"":""focus"",""trial"":44,""time"":1241535},{""event"":""blur"",""trial"":47,""time"":1325334},{""event"":""focus"",""trial"":47,""time"":1330379},{""event"":""blur"",""trial"":48,""time"":1344153},{""event"":""focus"",""trial"":48,""time"":1345228},{""event"":""blur"",""trial"":52,""time"":1382219},{""event"":""focus"",""trial"":52,""time"":1393516},{""event"":""blur"",""trial"":54,""time"":1404574},{""event"":""focus"",""trial"":54,""time"":1411113},{""event"":""blur"",""trial"":55,""time"":1416034},{""event"":""focus"",""trial"":55,""time"":1426742},{""event"":""blur"",""trial"":72,""time"":1536367},{""event"":""focus"",""trial"":72,""time"":1540116}]",NA,NA,NA,NA,NA,4,#D8271C,#741CD8,10,10,0,38,1,2311.2000000029802,39,0,850.9000000059605,10,1,experiment,NA,NA,2,0.5,0.5,5,4,13,1,NA
fcp-trial,75,1560415,0.0-22.0-0.0,voc_e2,11838,"[{""event"":""fullscreenenter"",""trial"":1,""time"":1366},{""event"":""fullscreenexit"",""trial"":2,""time"":2416},{""event"":""blur"",""trial"":16,""time"":94616},{""event"":""focus"",""trial"":16,""time"":100908},{""event"":""blur"",""trial"":17,""time"":117199},{""event"":""focus"",""trial"":17,""time"":129822},{""event"":""blur"",""trial"":20,""time"":1010580},{""event"":""focus"",""trial"":20,""time"":1017218},{""event"":""blur"",""trial"":21,""time"":1022177},{""event"":""focus"",""trial"":21,""time"":1027632},{""event"":""blur"",""trial"":21,""time"":1028632},{""event"":""focus"",""trial"":21,""time"":1034947},{""event"":""blur"",""trial"":23,""time"":1059446},{""event"":""focus"",""trial"":23,""time"":1062833},{""event"":""blur"",""trial"":29,""time"":1079471},{""event"":""focus"",""trial"":29,""time"":1079681},{""event"":""blur"",""trial"":29,""time"":1089073},{""event"":""focus"",""trial"":29,""time"":1096747},{""event"":""blur"",""trial"":30,""time"":1099058},{""event"":""focus"",""trial"":30,""time"":1101890},{""event"":""blur"",""trial"":30,""time"":1104419},{""event"":""focus"",""trial"":30,""time"":1104858},{""event"":""blur"",""trial"":44,""time"":1226955},{""event"":""focus"",""trial"":44,""time"":1238193},{""event"":""blur"",""trial"":44,""time"":1239132},{""event"":""focus"",""trial"":44,""time"":1241535},{""event"":""blur"",""trial"":47,""time"":1325334},{""event"":""focus"",""trial"":47,""time"":1330379},{""event"":""blur"",""trial"":48,""time"":1344153},{""event"":""focus"",""trial"":48,""time"":1345228},{""event"":""blur"",""trial"":52,""time"":1382219},{""event"":""focus"",""trial"":52,""time"":1393516},{""event"":""blur"",""trial"":54,""time"":1404574},{""event"":""focus"",""trial"":54,""time"":1411113},{""event"":""blur"",""trial"":55,""time"":1416034},{""event"":""focus"",""trial"":55,""time"":1426742},{""event"":""blur"",""trial"":72,""time"":1536367},{""event"":""focus"",""trial"":72,""time"":1540116}]",NA,NA,NA,NA,NA,1,#1CD855,#FA92F8,0,10,0,38,1,2096.7999999970198,39,0,478.8999999910593,10,1,experiment,NA,NA,1,0.3,0.7,3,2,14,1,NA
fcp-trial,76,1565761,0.0-23.0-0.0,voc_e2,11838,"[{""event"":""fullscreenenter"",""trial"":1,""time"":1366},{""event"":""fullscreenexit"",""trial"":2,""time"":2416},{""event"":""blur"",""trial"":16,""time"":94616},{""event"":""focus"",""trial"":16,""time"":100908},{""event"":""blur"",""trial"":17,""time"":117199},{""event"":""focus"",""trial"":17,""time"":129822},{""event"":""blur"",""trial"":20,""time"":1010580},{""event"":""focus"",""trial"":20,""time"":1017218},{""event"":""blur"",""trial"":21,""time"":1022177},{""event"":""focus"",""trial"":21,""time"":1027632},{""event"":""blur"",""trial"":21,""time"":1028632},{""event"":""focus"",""trial"":21,""time"":1034947},{""event"":""blur"",""trial"":23,""time"":1059446},{""event"":""focus"",""trial"":23,""time"":1062833},{""event"":""blur"",""trial"":29,""time"":1079471},{""event"":""focus"",""trial"":29,""time"":1079681},{""event"":""blur"",""trial"":29,""time"":1089073},{""event"":""focus"",""trial"":29,""time"":1096747},{""event"":""blur"",""trial"":30,""time"":1099058},{""event"":""focus"",""trial"":30,""time"":1101890},{""event"":""blur"",""trial"":30,""time"":1104419},{""event"":""focus"",""trial"":30,""time"":1104858},{""event"":""blur"",""trial"":44,""time"":1226955},{""event"":""focus"",""trial"":44,""time"":1238193},{""event"":""blur"",""trial"":44,""time"":1239132},{""event"":""focus"",""trial"":44,""time"":1241535},{""event"":""blur"",""trial"":47,""time"":1325334},{""event"":""focus"",""trial"":47,""time"":1330379},{""event"":""blur"",""trial"":48,""time"":1344153},{""event"":""focus"",""trial"":48,""time"":1345228},{""event"":""blur"",""trial"":52,""time"":1382219},{""event"":""focus"",""trial"":52,""time"":1393516},{""event"":""blur"",""trial"":54,""time"":1404574},{""event"":""focus"",""trial"":54,""time"":1411113},{""event"":""blur"",""trial"":55,""time"":1416034},{""event"":""focus"",""trial"":55,""time"":1426742},{""event"":""blur"",""trial"":72,""time"":1536367},{""event"":""focus"",""trial"":72,""time"":1540116}]",NA,NA,NA,NA,NA,0,#741CD8,#D8271C,0,0,1,38,1,2978.2999999970198,37,1,861.2999999970198,0,1,experiment,NA,NA,2,0.5,0.5,4,5,15,1,NA
