trial_type,trial_index,time_elapsed,internal_node_id,task_version,subject_id,interactions,success,rt,stimulus,key_press,button_pressed,offer,arcade_color_L,arcade_color_R,arcade_outcome_L,arcade_outcome_R,correct,stage_1_key,stage_1_choice,stage_1_rt,stage_2_key,stage_2_choice,stage_2_rt,stage_3_outcome,accuracy,phase,responses,num_errors,context,reward_prob_L,reward_prob_R,arcade_id_L,arcade_id_R,trial,block,response
pavlovia,0,8,0.0-0.0,voc_e2,12274,[],NA,NA,NA,NA,NA,NA,NA,NA,NA,NA,NA,NA,NA,NA,NA,NA,NA,NA,NA,NA,NA,NA,NA,NA,NA,NA,NA,NA,NA,NA
fullscreen,1,3076,0.0-1.0,voc_e2,12274,"[{""event"":""fullscreenenter"",""trial"":1,""time"":2076}]",TRUE,NA,NA,NA,NA,NA,NA,NA,NA,NA,NA,NA,NA,NA,NA,NA,NA,NA,NA,NA,NA,NA,NA,NA,NA,NA,NA,NA,NA,NA
audio-keyboard-response,2,5363,0.0-2.0,voc_e2,12274,"[{""event"":""fullscreenenter"",""trial"":1,""time"":2076}]",NA,2240,static/audio/beep_loop.wav,32,NA,NA,NA,NA,NA,NA,NA,NA,NA,NA,NA,NA,NA,NA,NA,NA,NA,NA,NA,NA,NA,NA,NA,NA,NA,NA
audio-test,3,7034,0.0-3.0,voc_e2,12274,"[{""event"":""fullscreenenter"",""trial"":1,""time"":2076}]",NA,NA,static/audio/turtle.wav,NA,3,NA,NA,NA,NA,NA,NA,NA,NA,NA,NA,NA,NA,NA,NA,NA,NA,NA,NA,NA,NA,NA,NA,NA,NA,NA
audio-test,4,9111,0.0-4.0,voc_e2,12274,"[{""event"":""fullscreenenter"",""trial"":1,""time"":2076}]",NA,NA,static/audio/shark.wav,NA,2,NA,NA,NA,NA,NA,NA,NA,NA,NA,NA,NA,NA,NA,NA,NA,NA,NA,NA,NA,NA,NA,NA,NA,NA,NA
audio-instructions,5,15647,0.0-5.0-0.0,voc_e2,12274,"[{""event"":""fullscreenenter"",""trial"":1,""time"":2076}]",NA,742.5,static/audio/instructions1.wav,NA,0,NA,NA,NA,NA,NA,NA,NA,NA,NA,NA,NA,NA,NA,NA,NA,NA,NA,NA,NA,NA,NA,NA,NA,NA,NA
audio-instructions,6,24257,0.0-5.0-1.0,voc_e2,12274,"[{""event"":""fullscreenenter"",""trial"":1,""time"":2076}]",NA,1861.6000000089407,static/audio/instructions2.wav,NA,0,NA,NA,NA,NA,NA,NA,NA,NA,NA,NA,NA,NA,NA,NA,NA,NA,NA,NA,NA,NA,NA,NA,NA,NA,NA
audio-instructions,7,31536,0.0-5.0-2.0,voc_e2,12274,"[{""event"":""fullscreenenter"",""trial"":1,""time"":2076}]",NA,1471.0999999940395,static/audio/instructions3.wav,NA,0,NA,NA,NA,NA,NA,NA,NA,NA,NA,NA,NA,NA,NA,NA,NA,NA,NA,NA,NA,NA,NA,NA,NA,NA,NA
audio-instructions,8,47827,0.0-5.0-3.0,voc_e2,12274,"[{""event"":""fullscreenenter"",""trial"":1,""time"":2076}]",NA,3061.9000000059605,static/audio/instructions4.wav,NA,0,NA,NA,NA,NA,NA,NA,NA,NA,NA,NA,NA,NA,NA,NA,NA,NA,NA,NA,NA,NA,NA,NA,NA,NA,NA
audio-instructions,9,58556,0.0-5.0-4.0,voc_e2,12274,"[{""event"":""fullscreenenter"",""trial"":1,""time"":2076}]",NA,1341,static/audio/instructions5.wav,NA,0,NA,NA,NA,NA,NA,NA,NA,NA,NA,NA,NA,NA,NA,NA,NA,NA,NA,NA,NA,NA,NA,NA,NA,NA,NA
fcp-practice,10,61340,0.0-5.0-5.0-0.0,voc_e2,12274,"[{""event"":""fullscreenenter"",""trial"":1,""time"":2076}]",NA,NA,NA,NA,NA,NA,#EDC948,#46d3c8,10,0,1,null,null,null,37,1,1274.0999999940395,10,1,practice,NA,NA,NA,NA,NA,NA,NA,NA,NA,NA
fcp-practice,11,63375,0.0-5.0-5.0-1.0,voc_e2,12274,"[{""event"":""fullscreenenter"",""trial"":1,""time"":2076}]",NA,NA,NA,NA,NA,NA,#EDC948,#46d3c8,10,0,1,null,null,null,37,1,531.8000000119209,10,1,practice,NA,NA,NA,NA,NA,NA,NA,NA,NA,NA
fcp-practice,12,65041,0.0-5.0-5.0-2.0,voc_e2,12274,"[{""event"":""fullscreenenter"",""trial"":1,""time"":2076}]",NA,NA,NA,NA,NA,NA,#EDC948,#46d3c8,0,10,1,null,null,null,37,1,162.1000000089407,0,1,practice,NA,NA,NA,NA,NA,NA,NA,NA,NA,NA
fcp-practice,13,66987,0.0-5.0-5.0-3.0,voc_e2,12274,"[{""event"":""fullscreenenter"",""trial"":1,""time"":2076}]",NA,NA,NA,NA,NA,NA,#EDC948,#46d3c8,10,0,1,null,null,null,37,1,432.09999999403954,10,1,practice,NA,NA,NA,NA,NA,NA,NA,NA,NA,NA
fcp-practice,14,69025,0.0-5.0-5.0-4.0,voc_e2,12274,"[{""event"":""fullscreenenter"",""trial"":1,""time"":2076}]",NA,NA,NA,NA,NA,NA,#EDC948,#46d3c8,10,0,1,null,null,null,37,1,535.5999999940395,10,1,practice,NA,NA,NA,NA,NA,NA,NA,NA,NA,NA
audio-instructions,15,90482,0.0-5.0-6.0,voc_e2,12274,"[{""event"":""fullscreenenter"",""trial"":1,""time"":2076}]",NA,3446.29999999702,static/audio/instructions6.wav,NA,0,NA,NA,NA,NA,NA,NA,NA,NA,NA,NA,NA,NA,NA,NA,NA,NA,NA,NA,NA,NA,NA,NA,NA,NA,NA
audio-instructions,16,110772,0.0-5.0-7.0,voc_e2,12274,"[{""event"":""fullscreenenter"",""trial"":1,""time"":2076}]",NA,1096.6000000089407,static/audio/instructions7.wav,NA,0,NA,NA,NA,NA,NA,NA,NA,NA,NA,NA,NA,NA,NA,NA,NA,NA,NA,NA,NA,NA,NA,NA,NA,NA,NA
audio-instructions,17,121403,0.0-5.0-8.0,voc_e2,12274,"[{""event"":""fullscreenenter"",""trial"":1,""time"":2076}]",NA,1158.5999999940395,static/audio/instructions8.wav,NA,0,NA,NA,NA,NA,NA,NA,NA,NA,NA,NA,NA,NA,NA,NA,NA,NA,NA,NA,NA,NA,NA,NA,NA,NA,NA
fcp-comprehension,18,128975,0.0-5.0-9.0,voc_e2,12274,"[{""event"":""fullscreenenter"",""trial"":1,""time"":2076}]",NA,7570.59999999404,NA,NA,NA,NA,NA,NA,NA,NA,NA,NA,NA,NA,NA,NA,NA,NA,NA,NA,"true,true",0,NA,NA,NA,NA,NA,NA,NA,NA
audio-instructions,19,136474,0.0-6.0-0.0,voc_e2,12274,"[{""event"":""fullscreenenter"",""trial"":1,""time"":2076}]",NA,1949.79999999702,static/audio/instructions9.wav,NA,0,NA,NA,NA,NA,NA,NA,NA,NA,NA,NA,NA,NA,NA,NA,NA,NA,NA,NA,NA,NA,NA,NA,NA,NA,NA
audio-instructions,20,149301,0.0-6.0-1.0,voc_e2,12274,"[{""event"":""fullscreenenter"",""trial"":1,""time"":2076}]",NA,706.5,static/audio/instructions10.wav,NA,0,NA,NA,NA,NA,NA,NA,NA,NA,NA,NA,NA,NA,NA,NA,NA,NA,NA,NA,NA,NA,NA,NA,NA,NA,NA
fcp-trial,21,157773,0.0-6.0-2.0,voc_e2,12274,"[{""event"":""fullscreenenter"",""trial"":1,""time"":2076}]",NA,NA,NA,NA,NA,0,#EDC948,#46d3c8,10,10,1,38,1,5139.70000000298,37,1,1812,10,1,practice,NA,NA,NA,NA,NA,NA,NA,NA,NA,NA
audio-instructions,22,171403,0.0-6.0-3.0,voc_e2,12274,"[{""event"":""fullscreenenter"",""trial"":1,""time"":2076}]",NA,2617.79999999702,static/audio/instructions11.wav,NA,0,NA,NA,NA,NA,NA,NA,NA,NA,NA,NA,NA,NA,NA,NA,NA,NA,NA,NA,NA,NA,NA,NA,NA,NA,NA
fcp-trial,23,175485,0.0-6.0-4.0,voc_e2,12274,"[{""event"":""fullscreenenter"",""trial"":1,""time"":2076}]",NA,NA,NA,NA,NA,6,#EDC948,#46d3c8,10,10,1,40,0,1420.2000000029802,39,0,1140.800000011921,10,0,practice,NA,NA,NA,NA,NA,NA,NA,NA,NA,NA
audio-instructions,24,196717,0.0-6.0-5.0,voc_e2,12274,"[{""event"":""fullscreenenter"",""trial"":1,""time"":2076}]",NA,2542.4000000059605,static/audio/instructions12.wav,NA,0,NA,NA,NA,NA,NA,NA,NA,NA,NA,NA,NA,NA,NA,NA,NA,NA,NA,NA,NA,NA,NA,NA,NA,NA,NA
audio-instructions,25,204907,0.0-6.0-6.0,voc_e2,12274,"[{""event"":""fullscreenenter"",""trial"":1,""time"":2076}]",NA,591.7000000029802,static/audio/instructions13.wav,NA,0,NA,NA,NA,NA,NA,NA,NA,NA,NA,NA,NA,NA,NA,NA,NA,NA,NA,NA,NA,NA,NA,NA,NA,NA,NA
audio-instructions,26,214769,0.0-6.0-7.0,voc_e2,12274,"[{""event"":""fullscreenenter"",""trial"":1,""time"":2076}]",NA,1414.2999999970198,static/audio/instructions14.wav,NA,0,NA,NA,NA,NA,NA,NA,NA,NA,NA,NA,NA,NA,NA,NA,NA,NA,NA,NA,NA,NA,NA,NA,NA,NA,NA
audio-instructions,27,222253,0.0-7.0-0.0,voc_e2,12274,"[{""event"":""fullscreenenter"",""trial"":1,""time"":2076}]",NA,568,static/audio/instructions15.wav,NA,0,NA,NA,NA,NA,NA,NA,NA,NA,NA,NA,NA,NA,NA,NA,NA,NA,NA,NA,NA,NA,NA,NA,NA,NA,NA
audio-instructions,28,229531,0.0-7.0-1.0,voc_e2,12274,"[{""event"":""fullscreenenter"",""trial"":1,""time"":2076}]",NA,446.29999999701977,static/audio/instructions16.wav,NA,0,NA,NA,NA,NA,NA,NA,NA,NA,NA,NA,NA,NA,NA,NA,NA,NA,NA,NA,NA,NA,NA,NA,NA,NA,NA
audio-instructions,29,237727,0.0-7.0-2.0,voc_e2,12274,"[{""event"":""fullscreenenter"",""trial"":1,""time"":2076}]",NA,522.2000000029802,static/audio/instructions17.wav,NA,0,NA,NA,NA,NA,NA,NA,NA,NA,NA,NA,NA,NA,NA,NA,NA,NA,NA,NA,NA,NA,NA,NA,NA,NA,NA
audio-instructions,30,246288,0.0-7.0-3.0,voc_e2,12274,"[{""event"":""fullscreenenter"",""trial"":1,""time"":2076}]",NA,792.7000000029802,static/audio/instructions18.wav,NA,0,NA,NA,NA,NA,NA,NA,NA,NA,NA,NA,NA,NA,NA,NA,NA,NA,NA,NA,NA,NA,NA,NA,NA,NA,NA
audio-instructions,31,253556,0.0-7.0-4.0,voc_e2,12274,"[{""event"":""fullscreenenter"",""trial"":1,""time"":2076}]",NA,520.2999999970198,static/audio/instructions19.wav,NA,0,NA,NA,NA,NA,NA,NA,NA,NA,NA,NA,NA,NA,NA,NA,NA,NA,NA,NA,NA,NA,NA,NA,NA,NA,NA
fcp-comprehension,32,263802,0.0-7.0-5.0,voc_e2,12274,"[{""event"":""fullscreenenter"",""trial"":1,""time"":2076}]",NA,10245.29999999702,NA,NA,NA,NA,NA,NA,NA,NA,NA,NA,NA,NA,NA,NA,NA,NA,NA,NA,"false,false,false,true",0,NA,NA,NA,NA,NA,NA,NA,NA
audio-instructions,33,274393,0.0-8.0,voc_e2,12274,"[{""event"":""fullscreenenter"",""trial"":1,""time"":2076}]",NA,1378,static/audio/ready.wav,NA,0,NA,NA,NA,NA,NA,NA,NA,NA,NA,NA,NA,NA,NA,NA,NA,NA,NA,NA,NA,NA,NA,NA,NA,NA,NA
fcp-trial,34,279807,0.0-9.0-0.0,voc_e2,12274,"[{""event"":""fullscreenenter"",""trial"":1,""time"":2076}]",NA,NA,NA,NA,NA,3,#D89F1C,#3386FF,0,10,0,38,1,3198.2999999970198,37,1,694.5,0,0,experiment,NA,NA,1,0.3,0.7,3,2,1,1,NA
fcp-trial,35,284424,0.0-10.0-0.0,voc_e2,12274,"[{""event"":""fullscreenenter"",""trial"":1,""time"":2076}]",NA,NA,NA,NA,NA,1,#741CD8,#D8271C,0,10,0,38,1,1952.7999999970198,39,0,1141.5,10,1,experiment,NA,NA,0,0.1,0.9,1,0,2,1,NA
fcp-trial,36,287971,0.0-11.0-0.0,voc_e2,12274,"[{""event"":""fullscreenenter"",""trial"":1,""time"":2076}]",NA,NA,NA,NA,NA,0,#741CD8,#D8271C,0,10,0,38,1,1080.0999999940395,37,1,950.7999999970198,0,0,experiment,NA,NA,0,0.1,0.9,1,0,3,1,NA
fcp-trial,37,291658,0.0-12.0-0.0,voc_e2,12274,"[{""event"":""fullscreenenter"",""trial"":1,""time"":2076}]",NA,NA,NA,NA,NA,3,#741CD8,#D8271C,0,10,0,38,1,1669.0999999940395,37,1,492.90000000596046,0,0,experiment,NA,NA,0,0.1,0.9,1,0,4,1,NA
fcp-trial,38,294873,0.0-13.0-0.0,voc_e2,12274,"[{""event"":""fullscreenenter"",""trial"":1,""time"":2076}]",NA,NA,NA,NA,NA,2,#FA92F8,#1CD855,10,10,0,38,1,1110.7999999970198,39,0,598.2999999970198,10,1,experiment,NA,NA,2,0.5,0.5,5,4,5,1,NA
fcp-trial,39,298139,0.0-14.0-0.0,voc_e2,12274,"[{""event"":""fullscreenenter"",""trial"":1,""time"":2076}]",NA,NA,NA,NA,NA,5,#D89F1C,#3386FF,0,10,0,38,1,1198.4000000059605,39,0,544.6999999880791,10,1,experiment,NA,NA,1,0.3,0.7,3,2,6,1,NA
fcp-trial,40,301019,0.0-15.0-0.0,voc_e2,12274,"[{""event"":""fullscreenenter"",""trial"":1,""time"":2076}]",NA,NA,NA,NA,NA,4,#D8271C,#741CD8,10,0,1,38,1,843.3999999910593,37,1,518.2000000029802,10,1,experiment,NA,NA,0,0.9,0.1,0,1,7,1,NA
fcp-trial,41,303846,0.0-16.0-0.0,voc_e2,12274,"[{""event"":""fullscreenenter"",""trial"":1,""time"":2076}]",NA,NA,NA,NA,NA,2,#D8271C,#741CD8,10,0,1,38,1,763.7000000029802,37,1,556,10,1,experiment,NA,NA,0,0.9,0.1,0,1,8,1,NA
fcp-trial,42,307191,0.0-17.0-0.0,voc_e2,12274,"[{""event"":""fullscreenenter"",""trial"":1,""time"":2076}]",NA,NA,NA,NA,NA,3,#1CD855,#FA92F8,0,0,1,38,1,849.5,37,1,990.8999999910593,0,1,experiment,NA,NA,2,0.5,0.5,4,5,9,1,NA
fcp-trial,43,309920,0.0-18.0-0.0,voc_e2,12274,"[{""event"":""fullscreenenter"",""trial"":1,""time"":2076}]",NA,NA,NA,NA,NA,6,#3386FF,#D89F1C,0,0,1,38,1,760.9000000059605,37,1,463.20000000298023,0,1,experiment,NA,NA,1,0.7,0.3,2,3,10,1,NA
fcp-trial,44,312679,0.0-19.0-0.0,voc_e2,12274,"[{""event"":""fullscreenenter"",""trial"":1,""time"":2076}]",NA,NA,NA,NA,NA,1,#D89F1C,#3386FF,0,10,0,38,1,782.7000000029802,39,0,469.90000000596046,10,1,experiment,NA,NA,1,0.3,0.7,3,2,11,1,NA
fcp-trial,45,316752,0.0-20.0-0.0,voc_e2,12274,"[{""event"":""fullscreenenter"",""trial"":1,""time"":2076}]",NA,NA,NA,NA,NA,6,#1CD855,#FA92F8,10,0,1,38,1,1649.2000000029802,37,1,911.7000000029802,10,1,experiment,NA,NA,2,0.5,0.5,4,5,12,1,NA
fcp-trial,46,319352,0.0-21.0-0.0,voc_e2,12274,"[{""event"":""fullscreenenter"",""trial"":1,""time"":2076}]",NA,NA,NA,NA,NA,6,#D8271C,#741CD8,10,0,1,38,1,727.4000000059605,37,1,368.1000000089407,10,1,experiment,NA,NA,0,0.9,0.1,0,1,13,1,NA
fcp-trial,47,322823,0.0-22.0-0.0,voc_e2,12274,"[{""event"":""fullscreenenter"",""trial"":1,""time"":2076}]",NA,NA,NA,NA,NA,4,#FA92F8,#1CD855,10,0,0,38,1,1558.7999999970198,39,0,408.1000000089407,0,1,experiment,NA,NA,2,0.5,0.5,5,4,14,1,NA
fcp-trial,48,325520,0.0-23.0-0.0,voc_e2,12274,"[{""event"":""fullscreenenter"",""trial"":1,""time"":2076}]",NA,NA,NA,NA,NA,2,#D89F1C,#3386FF,0,10,0,38,1,719.7000000029802,39,0,471,10,1,experiment,NA,NA,1,0.3,0.7,3,2,15,1,NA
fcp-trial,49,328105,0.0-24.0-0.0,voc_e2,12274,"[{""event"":""fullscreenenter"",""trial"":1,""time"":2076}]",NA,NA,NA,NA,NA,5,#1CD855,#FA92F8,10,10,1,38,1,568.8000000119209,39,0,511.3999999910593,10,0,experiment,NA,NA,2,0.5,0.5,4,5,16,1,NA
fcp-trial,50,330616,0.0-25.0-0.0,voc_e2,12274,"[{""event"":""fullscreenenter"",""trial"":1,""time"":2076}]",NA,NA,NA,NA,NA,0,#D89F1C,#3386FF,10,10,0,38,1,606.2000000029802,39,0,399.19999998807907,10,1,experiment,NA,NA,1,0.3,0.7,3,2,17,1,NA
fcp-trial,51,333136,0.0-26.0-0.0,voc_e2,12274,"[{""event"":""fullscreenenter"",""trial"":1,""time"":2076}]",NA,NA,NA,NA,NA,5,#D8271C,#741CD8,10,0,1,38,1,656.1000000089407,37,1,360,10,1,experiment,NA,NA,0,0.9,0.1,0,1,18,1,NA
fcp-trial,52,335655,0.0-27.0-0.0,voc_e2,12274,"[{""event"":""fullscreenenter"",""trial"":1,""time"":2076}]",NA,NA,NA,NA,NA,4,#D89F1C,#3386FF,0,0,0,38,1,535.6000000089407,39,0,479.79999999701977,0,1,experiment,NA,NA,1,0.3,0.7,3,2,19,1,NA
fcp-trial,53,338263,0.0-28.0-0.0,voc_e2,12274,"[{""event"":""fullscreenenter"",""trial"":1,""time"":2076}]",NA,NA,NA,NA,NA,0,#1CD855,#FA92F8,0,10,1,38,1,632.2999999970198,39,0,470.40000000596046,10,0,experiment,NA,NA,2,0.5,0.5,4,5,20,1,NA
fcp-trial,54,340688,0.0-29.0-0.0,voc_e2,12274,"[{""event"":""fullscreenenter"",""trial"":1,""time"":2076}]",NA,NA,NA,NA,NA,1,#1CD855,#FA92F8,0,0,1,38,1,591.3000000119209,39,0,328,0,0,experiment,NA,NA,2,0.5,0.5,4,5,21,1,NA
fcp-trial,55,343188,0.0-30.0-0.0,voc_e2,12274,"[{""event"":""fullscreenenter"",""trial"":1,""time"":2076}]",NA,NA,NA,NA,NA,2,#3386FF,#D89F1C,10,0,1,38,1,534.2000000029802,37,1,459.29999999701977,10,1,experiment,NA,NA,1,0.7,0.3,2,3,22,1,NA
fcp-trial,56,345574,0.0-31.0-0.0,voc_e2,12274,"[{""event"":""fullscreenenter"",""trial"":1,""time"":2076}]",NA,NA,NA,NA,NA,6,#1CD855,#FA92F8,0,0,1,38,1,483.1000000089407,39,0,399.09999999403954,0,0,experiment,NA,NA,2,0.5,0.5,4,5,23,1,NA
fcp-trial,57,347959,0.0-32.0-0.0,voc_e2,12274,"[{""event"":""fullscreenenter"",""trial"":1,""time"":2076}]",NA,NA,NA,NA,NA,1,#D8271C,#741CD8,10,0,1,38,1,506.5,37,1,374.5,10,1,experiment,NA,NA,0,0.9,0.1,0,1,24,1,NA
fcp-trial,58,350375,0.0-33.0-0.0,voc_e2,12274,"[{""event"":""fullscreenenter"",""trial"":1,""time"":2076}]",NA,NA,NA,NA,NA,3,#D89F1C,#3386FF,10,10,0,38,1,530.5,39,0,382.90000000596046,10,1,experiment,NA,NA,1,0.3,0.7,3,2,25,1,NA
fcp-trial,59,352726,0.0-34.0-0.0,voc_e2,12274,"[{""event"":""fullscreenenter"",""trial"":1,""time"":2076}]",NA,NA,NA,NA,NA,4,#D8271C,#741CD8,10,0,1,38,1,384.6000000089407,37,1,463.09999999403954,10,1,experiment,NA,NA,0,0.9,0.1,0,1,26,1,NA
fcp-trial,60,355295,0.0-35.0-0.0,voc_e2,12274,"[{""event"":""fullscreenenter"",""trial"":1,""time"":2076}]",NA,NA,NA,NA,NA,5,#D8271C,#741CD8,10,0,1,38,1,690.2999999970198,37,1,374.59999999403954,10,1,experiment,NA,NA,0,0.9,0.1,0,1,27,1,NA
fcp-trial,61,357807,0.0-36.0-0.0,voc_e2,12274,"[{""event"":""fullscreenenter"",""trial"":1,""time"":2076}]",NA,NA,NA,NA,NA,3,#FA92F8,#1CD855,10,10,0,38,1,704.8999999910593,37,1,302.70000000298023,10,0,experiment,NA,NA,2,0.5,0.5,5,4,28,1,NA
fcp-trial,62,360079,0.0-37.0-0.0,voc_e2,12274,"[{""event"":""fullscreenenter"",""trial"":1,""time"":2076}]",NA,NA,NA,NA,NA,5,#FA92F8,#1CD855,10,10,0,38,1,416.3999999910593,37,1,349.90000000596046,10,0,experiment,NA,NA,2,0.5,0.5,5,4,29,1,NA
fcp-trial,63,362719,0.0-38.0-0.0,voc_e2,12274,"[{""event"":""fullscreenenter"",""trial"":1,""time"":2076}]",NA,NA,NA,NA,NA,0,#3386FF,#D89F1C,10,0,1,38,1,769.3000000119209,37,1,367,10,1,experiment,NA,NA,1,0.7,0.3,2,3,30,1,NA
fcp-trial,64,365128,0.0-39.0-0.0,voc_e2,12274,"[{""event"":""fullscreenenter"",""trial"":1,""time"":2076}]",NA,NA,NA,NA,NA,0,#D8271C,#741CD8,10,0,1,38,1,578,37,1,327.1000000089407,10,1,experiment,NA,NA,0,0.9,0.1,0,1,31,1,NA
fcp-trial,65,367711,0.0-40.0-0.0,voc_e2,12274,"[{""event"":""fullscreenenter"",""trial"":1,""time"":2076}]",NA,NA,NA,NA,NA,1,#1CD855,#FA92F8,10,10,1,38,1,456.79999999701977,39,0,622.2999999970198,10,0,experiment,NA,NA,2,0.5,0.5,4,5,32,1,NA
fcp-trial,66,370209,0.0-41.0-0.0,voc_e2,12274,"[{""event"":""fullscreenenter"",""trial"":1,""time"":2076}]",NA,NA,NA,NA,NA,6,#D89F1C,#3386FF,0,10,0,38,1,624,39,0,368.5,10,1,experiment,NA,NA,1,0.3,0.7,3,2,33,1,NA
fcp-trial,67,372911,0.0-42.0-0.0,voc_e2,12274,"[{""event"":""fullscreenenter"",""trial"":1,""time"":2076}]",NA,NA,NA,NA,NA,2,#1CD855,#FA92F8,0,10,1,38,1,711.7000000029802,39,0,485,10,0,experiment,NA,NA,2,0.5,0.5,4,5,34,1,NA
fcp-trial,68,375264,0.0-43.0-0.0,voc_e2,12274,"[{""event"":""fullscreenenter"",""trial"":1,""time"":2076}]",NA,NA,NA,NA,NA,6,#D8271C,#741CD8,10,0,1,38,1,504.29999999701977,37,1,342.59999999403954,10,1,experiment,NA,NA,0,0.9,0.1,0,1,35,1,NA
fcp-trial,69,378088,0.0-44.0-0.0,voc_e2,12274,"[{""event"":""fullscreenenter"",""trial"":1,""time"":2076}]",NA,NA,NA,NA,NA,5,#3386FF,#D89F1C,10,0,1,38,1,888.6000000089407,37,1,431.20000000298023,10,1,experiment,NA,NA,1,0.7,0.3,2,3,36,1,NA
fcp-trial,70,381527,0.0-45.0-0.0,voc_e2,12274,"[{""event"":""fullscreenenter"",""trial"":1,""time"":2076}]",NA,NA,NA,NA,NA,1,#3386FF,#D89F1C,10,10,1,38,1,1471.4000000059605,37,1,462.79999999701977,10,1,experiment,NA,NA,1,0.7,0.3,2,3,37,1,NA
fcp-trial,71,385047,0.0-46.0-0.0,voc_e2,12274,"[{""event"":""fullscreenenter"",""trial"":1,""time"":2076}]",NA,NA,NA,NA,NA,4,#FA92F8,#1CD855,0,0,0,38,1,1601.9000000059605,37,1,414.5,0,0,experiment,NA,NA,2,0.5,0.5,5,4,38,1,NA
fcp-trial,72,388279,0.0-47.0-0.0,voc_e2,12274,"[{""event"":""fullscreenenter"",""trial"":1,""time"":2076}]",NA,NA,NA,NA,NA,2,#741CD8,#D8271C,0,10,0,38,1,1312.7000000029802,39,0,414.20000000298023,10,1,experiment,NA,NA,0,0.1,0.9,1,0,39,1,NA
fcp-trial,73,391120,0.0-48.0-0.0,voc_e2,12274,"[{""event"":""fullscreenenter"",""trial"":1,""time"":2076}]",NA,NA,NA,NA,NA,0,#FA92F8,#1CD855,0,0,0,38,1,649.5,37,1,686.5999999940395,0,0,experiment,NA,NA,2,0.5,0.5,5,4,40,1,NA
fcp-trial,74,393984,0.0-49.0-0.0,voc_e2,12274,"[{""event"":""fullscreenenter"",""trial"":1,""time"":2076}]",NA,NA,NA,NA,NA,4,#D89F1C,#3386FF,0,0,0,38,1,751.6999999880791,39,0,608.2000000029802,0,1,experiment,NA,NA,1,0.3,0.7,3,2,41,1,NA
fcp-trial,75,396225,0.0-50.0-0.0,voc_e2,12274,"[{""event"":""fullscreenenter"",""trial"":1,""time"":2076}]",NA,NA,NA,NA,NA,3,#D8271C,#741CD8,10,0,1,38,1,423.40000000596046,37,1,312,10,1,experiment,NA,NA,0,0.9,0.1,0,1,42,1,NA
fcp-trial,76,398863,0.0-51.0-0.0,voc_e2,12274,"[{""event"":""fullscreenenter"",""trial"":1,""time"":2076}]",NA,NA,NA,NA,NA,2,#3386FF,#D89F1C,10,0,1,38,1,718.7000000029802,37,1,415.30000001192093,10,1,experiment,NA,NA,1,0.7,0.3,2,3,43,1,NA
fcp-trial,77,401711,0.0-52.0-0.0,voc_e2,12274,"[{""event"":""fullscreenenter"",""trial"":1,""time"":2076}]",NA,NA,NA,NA,NA,0,#3386FF,#D89F1C,10,0,1,38,1,896.9000000059605,37,1,447.1000000089407,10,1,experiment,NA,NA,1,0.7,0.3,2,3,44,1,NA
fcp-trial,78,405727,0.0-53.0-0.0,voc_e2,12274,"[{""event"":""fullscreenenter"",""trial"":1,""time"":2076}]",NA,NA,NA,NA,NA,6,#741CD8,#D8271C,0,10,0,38,1,992,37,1,1519,0,0,experiment,NA,NA,0,0.1,0.9,1,0,45,1,NA
fcp-trial,79,408400,0.0-54.0-0.0,voc_e2,12274,"[{""event"":""fullscreenenter"",""trial"":1,""time"":2076}]",NA,NA,NA,NA,NA,1,#1CD855,#FA92F8,0,10,1,38,1,728.1000000089407,39,0,440,10,0,experiment,NA,NA,2,0.5,0.5,4,5,46,2,NA
fcp-trial,80,412808,0.0-55.0-0.0,voc_e2,12274,"[{""event"":""fullscreenenter"",""trial"":1,""time"":2076}]",NA,NA,NA,NA,NA,6,#D89F1C,#3386FF,10,0,0,40,0,1935.5999999940395,37,1,967.2999999970198,10,0,experiment,NA,NA,1,0.3,0.7,3,2,47,2,NA
fcp-trial,81,416192,0.0-56.0-0.0,voc_e2,12274,"[{""event"":""fullscreenenter"",""trial"":1,""time"":2076}]",NA,NA,NA,NA,NA,1,#D8271C,#741CD8,10,0,1,38,1,864.4000000059605,37,1,1016.1000000089407,10,1,experiment,NA,NA,0,0.9,0.1,0,1,48,2,NA
fcp-trial,82,420495,0.0-57.0-0.0,voc_e2,12274,"[{""event"":""fullscreenenter"",""trial"":1,""time"":2076}]",NA,NA,NA,NA,NA,5,#1CD855,#FA92F8,10,10,1,40,0,1921.7000000029802,37,1,877.9000000059605,10,1,experiment,NA,NA,2,0.5,0.5,4,5,49,2,NA
fcp-trial,83,423887,0.0-58.0-0.0,voc_e2,12274,"[{""event"":""fullscreenenter"",""trial"":1,""time"":2076}]",NA,NA,NA,NA,NA,4,#3386FF,#D89F1C,0,0,1,38,1,1432.2999999970198,37,1,454.90000000596046,0,1,experiment,NA,NA,1,0.7,0.3,2,3,50,2,NA
fcp-trial,84,427822,0.0-59.0-0.0,voc_e2,12274,"[{""event"":""fullscreenenter"",""trial"":1,""time"":2076}]",NA,NA,NA,NA,NA,2,#1CD855,#FA92F8,0,0,1,38,1,1696.699999988079,39,0,734.5,0,0,experiment,NA,NA,2,0.5,0.5,4,5,51,2,NA
fcp-trial,85,433351,0.0-60.0-0.0,voc_e2,12274,"[{""event"":""fullscreenenter"",""trial"":1,""time"":2076}]",NA,NA,NA,NA,NA,4,#1CD855,#FA92F8,10,0,1,38,1,3504.5,39,0,519.3000000119209,0,0,experiment,NA,NA,2,0.5,0.5,4,5,52,2,NA
fcp-trial,86,436238,0.0-61.0-0.0,voc_e2,12274,"[{""event"":""fullscreenenter"",""trial"":1,""time"":2076}]",NA,NA,NA,NA,NA,2,#D8271C,#741CD8,10,0,1,38,1,816.5,37,1,566.6000000089407,10,1,experiment,NA,NA,0,0.9,0.1,0,1,53,2,NA
fcp-trial,87,439910,0.0-62.0-0.0,voc_e2,12274,"[{""event"":""fullscreenenter"",""trial"":1,""time"":2076}]",NA,NA,NA,NA,NA,3,#1CD855,#FA92F8,10,10,1,38,1,1457,39,0,709.7000000029802,10,0,experiment,NA,NA,2,0.5,0.5,4,5,54,2,NA
fcp-trial,88,443384,0.0-63.0-0.0,voc_e2,12274,"[{""event"":""fullscreenenter"",""trial"":1,""time"":2076}]",NA,NA,NA,NA,NA,5,#D89F1C,#3386FF,0,10,0,38,1,889.7999999970198,39,0,1079.1000000089407,10,1,experiment,NA,NA,1,0.3,0.7,3,2,55,2,NA
fcp-trial,89,446767,0.0-64.0-0.0,voc_e2,12274,"[{""event"":""fullscreenenter"",""trial"":1,""time"":2076}]",NA,NA,NA,NA,NA,1,#D89F1C,#3386FF,0,0,0,38,1,1552,39,0,326.20000000298023,0,1,experiment,NA,NA,1,0.3,0.7,3,2,56,2,NA
fcp-trial,90,451191,0.0-65.0-0.0,voc_e2,12274,"[{""event"":""fullscreenenter"",""trial"":1,""time"":2076}]",NA,NA,NA,NA,NA,6,#1CD855,#FA92F8,0,10,1,40,0,1280.2000000029802,39,0,1639.1000000089407,10,0,experiment,NA,NA,2,0.5,0.5,4,5,57,2,NA
fcp-trial,91,454374,0.0-66.0-0.0,voc_e2,12274,"[{""event"":""fullscreenenter"",""trial"":1,""time"":2076}]",NA,NA,NA,NA,NA,3,#D8271C,#741CD8,10,0,1,38,1,1321.3999999910593,37,1,358.09999999403954,10,1,experiment,NA,NA,0,0.9,0.1,0,1,58,2,NA
fcp-trial,92,458286,0.0-67.0-0.0,voc_e2,12274,"[{""event"":""fullscreenenter"",""trial"":1,""time"":2076}]",NA,NA,NA,NA,NA,0,#D8271C,#741CD8,10,0,1,38,1,1953.5999999940395,37,1,454.3999999910593,10,1,experiment,NA,NA,0,0.9,0.1,0,1,59,2,NA
fcp-trial,93,461558,0.0-68.0-0.0,voc_e2,12274,"[{""event"":""fullscreenenter"",""trial"":1,""time"":2076}]",NA,NA,NA,NA,NA,3,#D89F1C,#3386FF,10,10,0,38,1,1448.6000000089407,39,0,318.70000000298023,10,1,experiment,NA,NA,1,0.3,0.7,3,2,60,2,NA
fcp-trial,94,464926,0.0-69.0-0.0,voc_e2,12274,"[{""event"":""fullscreenenter"",""trial"":1,""time"":2076}]",NA,NA,NA,NA,NA,0,#FA92F8,#1CD855,10,10,0,38,1,1369.9000000059605,37,1,494.20000000298023,10,0,experiment,NA,NA,2,0.5,0.5,5,4,61,2,NA
fcp-trial,95,468455,0.0-70.0-0.0,voc_e2,12274,"[{""event"":""fullscreenenter"",""trial"":1,""time"":2076}]",NA,NA,NA,NA,NA,5,#741CD8,#D8271C,0,10,0,40,0,1258.800000011921,37,1,766.7000000029802,0,0,experiment,NA,NA,0,0.1,0.9,1,0,62,2,NA
fcp-trial,96,472584,0.0-71.0-0.0,voc_e2,12274,"[{""event"":""fullscreenenter"",""trial"":1,""time"":2076}]",NA,NA,NA,NA,NA,4,#D8271C,#741CD8,10,10,1,38,1,1919.5999999940395,37,1,704.0999999940395,10,1,experiment,NA,NA,0,0.9,0.1,0,1,63,2,NA
fcp-trial,97,475703,0.0-72.0-0.0,voc_e2,12274,"[{""event"":""fullscreenenter"",""trial"":1,""time"":2076}]",NA,NA,NA,NA,NA,4,#D8271C,#741CD8,10,0,1,38,1,1190.2999999970198,37,1,423.79999999701977,10,1,experiment,NA,NA,0,0.9,0.1,0,1,64,2,NA
fcp-trial,98,478632,0.0-73.0-0.0,voc_e2,12274,"[{""event"":""fullscreenenter"",""trial"":1,""time"":2076}]",NA,NA,NA,NA,NA,2,#D89F1C,#3386FF,0,10,0,38,1,744.5999999940395,39,0,679.5,10,1,experiment,NA,NA,1,0.3,0.7,3,2,65,2,NA
fcp-trial,99,481888,0.0-74.0-0.0,voc_e2,12274,"[{""event"":""fullscreenenter"",""trial"":1,""time"":2076}]",NA,NA,NA,NA,NA,3,#3386FF,#D89F1C,10,0,1,38,1,1423.5,37,1,327.70000000298023,10,1,experiment,NA,NA,1,0.7,0.3,2,3,66,2,NA
fcp-trial,100,484720,0.0-75.0-0.0,voc_e2,12274,"[{""event"":""fullscreenenter"",""trial"":1,""time"":2076}]",NA,NA,NA,NA,NA,0,#741CD8,#D8271C,0,10,0,38,1,680.5,39,0,647,10,1,experiment,NA,NA,0,0.1,0.9,1,0,67,2,NA
fcp-trial,101,488287,0.0-76.0-0.0,voc_e2,12274,"[{""event"":""fullscreenenter"",""trial"":1,""time"":2076}]",NA,NA,NA,NA,NA,5,#1CD855,#FA92F8,0,10,1,38,1,1119,39,0,944.3999999910593,10,0,experiment,NA,NA,2,0.5,0.5,4,5,68,2,NA
fcp-trial,102,491919,0.0-77.0-0.0,voc_e2,12274,"[{""event"":""fullscreenenter"",""trial"":1,""time"":2076}]",NA,NA,NA,NA,NA,6,#FA92F8,#1CD855,0,10,0,40,0,1078.8999999910593,39,0,1046.7999999970198,10,1,experiment,NA,NA,2,0.5,0.5,5,4,69,2,NA
fcp-trial,103,495616,0.0-78.0-0.0,voc_e2,12274,"[{""event"":""fullscreenenter"",""trial"":1,""time"":2076}]",NA,NA,NA,NA,NA,5,#3386FF,#D89F1C,10,0,1,40,0,1191.7000000029802,39,0,999.4000000059605,0,0,experiment,NA,NA,1,0.7,0.3,2,3,70,2,NA
fcp-trial,104,499383,0.0-79.0-0.0,voc_e2,12274,"[{""event"":""fullscreenenter"",""trial"":1,""time"":2076}]",NA,NA,NA,NA,NA,2,#741CD8,#D8271C,0,10,0,38,1,1407.2000000029802,37,1,856.1000000089407,0,0,experiment,NA,NA,0,0.1,0.9,1,0,71,2,NA
fcp-trial,105,502999,0.0-80.0-0.0,voc_e2,12274,"[{""event"":""fullscreenenter"",""trial"":1,""time"":2076}]",NA,NA,NA,NA,NA,5,#D8271C,#741CD8,10,10,1,40,0,1552.5999999940395,37,1,559.5,10,1,experiment,NA,NA,0,0.9,0.1,0,1,72,2,NA
fcp-trial,106,507038,0.0-81.0-0.0,voc_e2,12274,"[{""event"":""fullscreenenter"",""trial"":1,""time"":2076}]",NA,NA,NA,NA,NA,0,#1CD855,#FA92F8,0,0,1,38,1,1767.3999999910593,37,1,766.8999999910593,0,1,experiment,NA,NA,2,0.5,0.5,4,5,73,2,NA
fcp-trial,107,510768,0.0-82.0-0.0,voc_e2,12274,"[{""event"":""fullscreenenter"",""trial"":1,""time"":2076}]",NA,NA,NA,NA,NA,1,#3386FF,#D89F1C,0,0,1,38,1,1751.2999999970198,37,1,472.19999998807907,0,1,experiment,NA,NA,1,0.7,0.3,2,3,74,2,NA
fcp-trial,108,513743,0.0-83.0-0.0,voc_e2,12274,"[{""event"":""fullscreenenter"",""trial"":1,""time"":2076}]",NA,NA,NA,NA,NA,0,#D89F1C,#3386FF,10,0,0,38,1,1128.0999999940395,39,0,342.30000001192093,0,1,experiment,NA,NA,1,0.3,0.7,3,2,75,2,NA
fcp-trial,109,518455,0.0-84.0-0.0,voc_e2,12274,"[{""event"":""fullscreenenter"",""trial"":1,""time"":2076}]",NA,NA,NA,NA,NA,6,#741CD8,#D8271C,0,10,0,40,0,2137.9000000059605,37,1,1071.2999999970198,0,0,experiment,NA,NA,0,0.1,0.9,1,0,76,2,NA
fcp-trial,110,522271,0.0-85.0-0.0,voc_e2,12274,"[{""event"":""fullscreenenter"",""trial"":1,""time"":2076}]",NA,NA,NA,NA,NA,3,#FA92F8,#1CD855,0,10,0,38,1,1903.7000000029802,37,1,406.70000000298023,0,0,experiment,NA,NA,2,0.5,0.5,5,4,77,2,NA
fcp-trial,111,525967,0.0-86.0-0.0,voc_e2,12274,"[{""event"":""fullscreenenter"",""trial"":1,""time"":2076}]",NA,NA,NA,NA,NA,6,#3386FF,#D89F1C,10,0,1,40,0,1455.5,39,0,735.2000000029802,0,0,experiment,NA,NA,1,0.7,0.3,2,3,78,2,NA
fcp-trial,112,529167,0.0-87.0-0.0,voc_e2,12274,"[{""event"":""fullscreenenter"",""trial"":1,""time"":2076}]",NA,NA,NA,NA,NA,4,#1CD855,#FA92F8,0,10,1,38,1,1206.7000000029802,39,0,487.90000000596046,10,0,experiment,NA,NA,2,0.5,0.5,4,5,79,2,NA
fcp-trial,113,532392,0.0-88.0-0.0,voc_e2,12274,"[{""event"":""fullscreenenter"",""trial"":1,""time"":2076}]",NA,NA,NA,NA,NA,1,#D8271C,#741CD8,10,0,1,38,1,1295.3999999910593,39,0,424,0,0,experiment,NA,NA,0,0.9,0.1,0,1,80,2,NA
fcp-trial,114,535510,0.0-89.0-0.0,voc_e2,12274,"[{""event"":""fullscreenenter"",""trial"":1,""time"":2076}]",NA,NA,NA,NA,NA,2,#FA92F8,#1CD855,0,0,0,38,1,807.2999999970198,39,0,806.0999999940395,0,1,experiment,NA,NA,2,0.5,0.5,5,4,81,2,NA
fcp-trial,115,538239,0.0-90.0-0.0,voc_e2,12274,"[{""event"":""fullscreenenter"",""trial"":1,""time"":2076}]",NA,NA,NA,NA,NA,1,#FA92F8,#1CD855,10,0,0,38,1,873.5,37,1,350.79999999701977,10,0,experiment,NA,NA,2,0.5,0.5,5,4,82,2,NA
fcp-trial,116,540672,0.0-91.0-0.0,voc_e2,12274,"[{""event"":""fullscreenenter"",""trial"":1,""time"":2076}]",NA,NA,NA,NA,NA,4,#3386FF,#D89F1C,10,0,1,38,1,576.4000000059605,37,1,351.59999999403954,10,1,experiment,NA,NA,1,0.7,0.3,2,3,83,2,NA
fcp-trial,117,543207,0.0-92.0-0.0,voc_e2,12274,"[{""event"":""fullscreenenter"",""trial"":1,""time"":2076}]",NA,NA,NA,NA,NA,3,#741CD8,#D8271C,0,10,0,38,1,678.8000000119209,39,0,350.5,10,1,experiment,NA,NA,0,0.1,0.9,1,0,84,2,NA
fcp-trial,118,545647,0.0-93.0-0.0,voc_e2,12274,"[{""event"":""fullscreenenter"",""trial"":1,""time"":2076}]",NA,NA,NA,NA,NA,6,#D8271C,#741CD8,10,0,1,38,1,608.7999999970198,37,1,327.29999999701977,10,1,experiment,NA,NA,0,0.9,0.1,0,1,85,2,NA
fcp-trial,119,548336,0.0-94.0-0.0,voc_e2,12274,"[{""event"":""fullscreenenter"",""trial"":1,""time"":2076}]",NA,NA,NA,NA,NA,2,#D8271C,#741CD8,10,10,1,38,1,776.2000000029802,37,1,408.5,10,1,experiment,NA,NA,0,0.9,0.1,0,1,86,2,NA
fcp-trial,120,551025,0.0-95.0-0.0,voc_e2,12274,"[{""event"":""fullscreenenter"",""trial"":1,""time"":2076}]",NA,NA,NA,NA,NA,1,#D89F1C,#3386FF,0,10,0,38,1,848.5,39,0,335.1000000089407,10,1,experiment,NA,NA,1,0.3,0.7,3,2,87,2,NA
fcp-trial,121,554104,0.0-96.0-0.0,voc_e2,12274,"[{""event"":""fullscreenenter"",""trial"":1,""time"":2076}]",NA,NA,NA,NA,NA,3,#741CD8,#D8271C,0,10,0,38,1,1240.0999999940395,39,0,335.20000000298023,10,1,experiment,NA,NA,0,0.1,0.9,1,0,88,2,NA
fcp-trial,122,556938,0.0-97.0-0.0,voc_e2,12274,"[{""event"":""fullscreenenter"",""trial"":1,""time"":2076}]",NA,NA,NA,NA,NA,3,#FA92F8,#1CD855,10,0,0,38,1,1029.2000000029802,37,1,287.20000000298023,10,0,experiment,NA,NA,2,0.5,0.5,5,4,89,2,NA
fcp-trial,123,559848,0.0-98.0-0.0,voc_e2,12274,"[{""event"":""fullscreenenter"",""trial"":1,""time"":2076}]",NA,NA,NA,NA,NA,2,#FA92F8,#1CD855,10,0,0,38,1,1044.7999999970198,37,1,359.5,10,0,experiment,NA,NA,2,0.5,0.5,5,4,90,2,NA
fcp-trial,124,562823,0.0-99.0-0.0,voc_e2,12274,"[{""event"":""fullscreenenter"",""trial"":1,""time"":2076}]",NA,NA,NA,NA,NA,0,#3386FF,#D89F1C,10,0,1,38,1,1144.5,37,1,326.70000000298023,10,1,experiment,NA,NA,1,0.7,0.3,2,3,91,3,NA
fcp-trial,125,565958,0.0-100.0-0.0,voc_e2,12274,"[{""event"":""fullscreenenter"",""trial"":1,""time"":2076}]",NA,NA,NA,NA,NA,5,#741CD8,#D8271C,0,10,0,38,1,1056.2000000029802,39,0,575,10,1,experiment,NA,NA,0,0.1,0.9,1,0,92,3,NA
fcp-trial,126,568639,0.0-101.0-0.0,voc_e2,12274,"[{""event"":""fullscreenenter"",""trial"":1,""time"":2076}]",NA,NA,NA,NA,NA,0,#D8271C,#741CD8,10,0,1,38,1,858.9000000059605,37,1,317.90000000596046,10,1,experiment,NA,NA,0,0.9,0.1,0,1,93,3,NA
fcp-trial,127,571310,0.0-102.0-0.0,voc_e2,12274,"[{""event"":""fullscreenenter"",""trial"":1,""time"":2076}]",NA,NA,NA,NA,NA,0,#FA92F8,#1CD855,0,0,0,38,1,879.7999999970198,37,1,287.20000000298023,0,0,experiment,NA,NA,2,0.5,0.5,5,4,94,3,NA
fcp-trial,128,574975,0.0-103.0-0.0,voc_e2,12274,"[{""event"":""fullscreenenter"",""trial"":1,""time"":2076}]",NA,NA,NA,NA,NA,6,#D89F1C,#3386FF,0,0,0,40,0,1448.9000000059605,37,1,711.2999999970198,0,0,experiment,NA,NA,1,0.3,0.7,3,2,95,3,NA
fcp-trial,129,578393,0.0-104.0-0.0,voc_e2,12274,"[{""event"":""fullscreenenter"",""trial"":1,""time"":2076}]",NA,NA,NA,NA,NA,2,#3386FF,#D89F1C,10,0,1,38,1,1481.5,37,1,432.5,10,1,experiment,NA,NA,1,0.7,0.3,2,3,96,3,NA
fcp-trial,130,581167,0.0-105.0-0.0,voc_e2,12274,"[{""event"":""fullscreenenter"",""trial"":1,""time"":2076}]",NA,NA,NA,NA,NA,1,#741CD8,#D8271C,0,10,0,38,1,911.2999999970198,39,0,359,10,1,experiment,NA,NA,0,0.1,0.9,1,0,97,3,NA
fcp-trial,131,584056,0.0-106.0-0.0,voc_e2,12274,"[{""event"":""fullscreenenter"",""trial"":1,""time"":2076}]",NA,NA,NA,NA,NA,4,#1CD855,#FA92F8,10,10,1,38,1,975.2000000029802,39,0,406.79999999701977,10,0,experiment,NA,NA,2,0.5,0.5,4,5,98,3,NA
fcp-trial,132,586832,0.0-107.0-0.0,voc_e2,12274,"[{""event"":""fullscreenenter"",""trial"":1,""time"":2076}]",NA,NA,NA,NA,NA,4,#3386FF,#D89F1C,10,0,1,38,1,887.0999999940395,37,1,383.5,10,1,experiment,NA,NA,1,0.7,0.3,2,3,99,3,NA
fcp-trial,133,592336,0.0-108.0-0.0,voc_e2,12274,"[{""event"":""fullscreenenter"",""trial"":1,""time"":2076}]",NA,NA,NA,NA,NA,5,#3386FF,#D89F1C,0,10,1,40,0,3248.300000011921,37,1,750.9000000059605,0,1,experiment,NA,NA,1,0.7,0.3,2,3,100,3,NA
fcp-trial,134,595263,0.0-109.0-0.0,voc_e2,12274,"[{""event"":""fullscreenenter"",""trial"":1,""time"":2076}]",NA,NA,NA,NA,NA,4,#741CD8,#D8271C,0,10,0,38,1,1047.6000000089407,39,0,374.5,10,1,experiment,NA,NA,0,0.1,0.9,1,0,101,3,NA
fcp-trial,135,598640,0.0-110.0-0.0,voc_e2,12274,"[{""event"":""fullscreenenter"",""trial"":1,""time"":2076}]",NA,NA,NA,NA,NA,5,#1CD855,#FA92F8,0,0,1,40,0,1255.7000000029802,37,1,614.2999999970198,0,1,experiment,NA,NA,2,0.5,0.5,4,5,102,3,NA
fcp-trial,136,602040,0.0-111.0-0.0,voc_e2,12274,"[{""event"":""fullscreenenter"",""trial"":1,""time"":2076}]",NA,NA,NA,NA,NA,6,#FA92F8,#1CD855,10,0,0,40,0,1127.5,39,0,767.3999999910593,0,1,experiment,NA,NA,2,0.5,0.5,5,4,103,3,NA
fcp-trial,137,605247,0.0-112.0-0.0,voc_e2,12274,"[{""event"":""fullscreenenter"",""trial"":1,""time"":2076}]",NA,NA,NA,NA,NA,3,#D89F1C,#3386FF,0,0,0,38,1,1191.2999999970198,39,0,510.20000000298023,0,1,experiment,NA,NA,1,0.3,0.7,3,2,104,3,NA
fcp-trial,138,608199,0.0-113.0-0.0,voc_e2,12274,"[{""event"":""fullscreenenter"",""trial"":1,""time"":2076}]",NA,NA,NA,NA,NA,1,#1CD855,#FA92F8,10,10,1,38,1,1040.6000000089407,39,0,407.5,10,0,experiment,NA,NA,2,0.5,0.5,4,5,105,3,NA
audio-instructions,139,647805,0.0-114.0,voc_e2,12274,"[{""event"":""fullscreenenter"",""trial"":1,""time"":2076}]",NA,35135.20000000298,static/audio/pause.wav,NA,0,NA,NA,NA,NA,NA,NA,NA,NA,NA,NA,NA,NA,NA,NA,NA,NA,NA,NA,NA,NA,NA,NA,NA,NA,NA
fcp-trial,140,651895,0.0-115.0-0.0,voc_e2,12274,"[{""event"":""fullscreenenter"",""trial"":1,""time"":2076}]",NA,NA,NA,NA,NA,3,#3386FF,#D89F1C,10,0,1,38,1,2122.4000000059605,37,1,462.70000000298023,10,1,experiment,NA,NA,1,0.7,0.3,2,3,106,3,NA
fcp-trial,141,654520,0.0-116.0-0.0,voc_e2,12274,"[{""event"":""fullscreenenter"",""trial"":1,""time"":2076}]",NA,NA,NA,NA,NA,2,#3386FF,#D89F1C,0,10,1,38,1,824.5,37,1,294.29999999701977,0,1,experiment,NA,NA,1,0.7,0.3,2,3,107,3,NA
fcp-trial,142,657422,0.0-117.0-0.0,voc_e2,12274,"[{""event"":""fullscreenenter"",""trial"":1,""time"":2076}]",NA,NA,NA,NA,NA,6,#D8271C,#741CD8,10,0,1,38,1,695.2999999970198,37,1,702.6000000089407,10,1,experiment,NA,NA,0,0.9,0.1,0,1,108,3,NA
fcp-trial,143,661224,0.0-118.0-0.0,voc_e2,12274,"[{""event"":""fullscreenenter"",""trial"":1,""time"":2076}]",NA,NA,NA,NA,NA,5,#1CD855,#FA92F8,0,10,1,40,0,1182.4000000059605,39,0,1111.3999999910593,10,0,experiment,NA,NA,2,0.5,0.5,4,5,109,3,NA
fcp-trial,144,664720,0.0-119.0-0.0,voc_e2,12274,"[{""event"":""fullscreenenter"",""trial"":1,""time"":2076}]",NA,NA,NA,NA,NA,6,#D89F1C,#3386FF,10,0,0,40,0,934,37,1,1054.7999999970198,10,0,experiment,NA,NA,1,0.3,0.7,3,2,110,3,NA
fcp-trial,145,667822,0.0-120.0-0.0,voc_e2,12274,"[{""event"":""fullscreenenter"",""trial"":1,""time"":2076}]",NA,NA,NA,NA,NA,2,#1CD855,#FA92F8,10,10,1,38,1,1190.3999999910593,39,0,405.79999999701977,10,0,experiment,NA,NA,2,0.5,0.5,4,5,111,3,NA
fcp-trial,146,671343,0.0-121.0-0.0,voc_e2,12274,"[{""event"":""fullscreenenter"",""trial"":1,""time"":2076}]",NA,NA,NA,NA,NA,4,#1CD855,#FA92F8,0,0,1,38,1,1559.2999999970198,39,0,453.79999999701977,0,0,experiment,NA,NA,2,0.5,0.5,4,5,112,3,NA
fcp-trial,147,674207,0.0-122.0-0.0,voc_e2,12274,"[{""event"":""fullscreenenter"",""trial"":1,""time"":2076}]",NA,NA,NA,NA,NA,1,#741CD8,#D8271C,0,10,0,38,1,847.3999999910593,39,0,511.40000000596046,10,1,experiment,NA,NA,0,0.1,0.9,1,0,113,3,NA
fcp-trial,148,677199,0.0-123.0-0.0,voc_e2,12274,"[{""event"":""fullscreenenter"",""trial"":1,""time"":2076}]",NA,NA,NA,NA,NA,3,#1CD855,#FA92F8,0,10,1,38,1,1007.2000000029802,39,0,479,10,0,experiment,NA,NA,2,0.5,0.5,4,5,114,3,NA
fcp-trial,149,680103,0.0-124.0-0.0,voc_e2,12274,"[{""event"":""fullscreenenter"",""trial"":1,""time"":2076}]",NA,NA,NA,NA,NA,0,#3386FF,#D89F1C,10,0,1,38,1,1032.1000000089407,37,1,367,10,1,experiment,NA,NA,1,0.7,0.3,2,3,115,3,NA
fcp-trial,150,683526,0.0-125.0-0.0,voc_e2,12274,"[{""event"":""fullscreenenter"",""trial"":1,""time"":2076}]",NA,NA,NA,NA,NA,5,#D8271C,#741CD8,10,0,1,40,0,1326.800000011921,39,0,590.1000000089407,0,0,experiment,NA,NA,0,0.9,0.1,0,1,116,3,NA
fcp-trial,151,686792,0.0-126.0-0.0,voc_e2,12274,"[{""event"":""fullscreenenter"",""trial"":1,""time"":2076}]",NA,NA,NA,NA,NA,0,#741CD8,#D8271C,10,10,0,38,1,1080.2999999970198,39,0,680.4000000059605,10,1,experiment,NA,NA,0,0.1,0.9,1,0,117,3,NA
fcp-trial,152,690535,0.0-127.0-0.0,voc_e2,12274,"[{""event"":""fullscreenenter"",""trial"":1,""time"":2076}]",NA,NA,NA,NA,NA,6,#1CD855,#FA92F8,0,0,1,40,0,1567.5,37,1,670.4000000059605,0,1,experiment,NA,NA,2,0.5,0.5,4,5,118,3,NA
fcp-trial,153,693680,0.0-128.0-0.0,voc_e2,12274,"[{""event"":""fullscreenenter"",""trial"":1,""time"":2076}]",NA,NA,NA,NA,NA,4,#D89F1C,#3386FF,0,10,0,38,1,1055.2000000029802,39,0,583.9000000059605,10,1,experiment,NA,NA,1,0.3,0.7,3,2,119,3,NA
fcp-trial,154,697455,0.0-129.0-0.0,voc_e2,12274,"[{""event"":""fullscreenenter"",""trial"":1,""time"":2076}]",NA,NA,NA,NA,NA,5,#3386FF,#D89F1C,0,0,1,40,0,1545.2000000029802,39,0,724.4000000059605,0,0,experiment,NA,NA,1,0.7,0.3,2,3,120,3,NA
fcp-trial,155,700494,0.0-130.0-0.0,voc_e2,12274,"[{""event"":""fullscreenenter"",""trial"":1,""time"":2076}]",NA,NA,NA,NA,NA,0,#1CD855,#FA92F8,0,10,1,38,1,1062.7999999970198,39,0,470.8999999910593,10,0,experiment,NA,NA,2,0.5,0.5,4,5,121,3,NA
fcp-trial,156,704142,0.0-131.0-0.0,voc_e2,12274,"[{""event"":""fullscreenenter"",""trial"":1,""time"":2076}]",NA,NA,NA,NA,NA,3,#741CD8,#D8271C,0,10,0,38,1,1545.300000011921,39,0,598.3999999910593,10,1,experiment,NA,NA,0,0.1,0.9,1,0,122,3,NA
fcp-trial,157,707320,0.0-132.0-0.0,voc_e2,12274,"[{""event"":""fullscreenenter"",""trial"":1,""time"":2076}]",NA,NA,NA,NA,NA,4,#D8271C,#741CD8,10,0,1,38,1,1233.4000000059605,37,1,439.6000000089407,10,1,experiment,NA,NA,0,0.9,0.1,0,1,123,3,NA
fcp-trial,158,710039,0.0-133.0-0.0,voc_e2,12274,"[{""event"":""fullscreenenter"",""trial"":1,""time"":2076}]",NA,NA,NA,NA,NA,1,#FA92F8,#1CD855,10,0,0,38,1,845.3999999910593,37,1,366.6000000089407,10,0,experiment,NA,NA,2,0.5,0.5,5,4,124,3,NA
fcp-trial,159,713294,0.0-134.0-0.0,voc_e2,12274,"[{""event"":""fullscreenenter"",""trial"":1,""time"":2076}]",NA,NA,NA,NA,NA,1,#D89F1C,#3386FF,0,10,0,38,1,1148.2999999970198,39,0,599.0999999940395,10,1,experiment,NA,NA,1,0.3,0.7,3,2,125,3,NA
fcp-trial,160,718495,0.0-135.0-0.0,voc_e2,12274,"[{""event"":""fullscreenenter"",""trial"":1,""time"":2076}]",NA,NA,NA,NA,NA,2,#741CD8,#D8271C,10,10,0,38,1,3127.7000000029802,39,0,567.6000000089407,10,1,experiment,NA,NA,0,0.1,0.9,1,0,126,3,NA
fcp-trial,161,733499,0.0-136.0-0.0,voc_e2,12274,"[{""event"":""fullscreenenter"",""trial"":1,""time"":2076}]",NA,NA,NA,NA,NA,1,#3386FF,#D89F1C,10,0,1,null,null,null,null,null,null,NA,0,experiment,NA,NA,1,0.7,0.3,2,3,127,3,NA
fcp-trial,162,736559,0.0-137.0-0.0,voc_e2,12274,"[{""event"":""fullscreenenter"",""trial"":1,""time"":2076}]",NA,NA,NA,NA,NA,0,#3386FF,#D89F1C,10,0,1,38,1,1132.2999999970198,37,1,422,10,1,experiment,NA,NA,1,0.7,0.3,2,3,128,3,NA
fcp-trial,163,739183,0.0-138.0-0.0,voc_e2,12274,"[{""event"":""fullscreenenter"",""trial"":1,""time"":2076}]",NA,NA,NA,NA,NA,1,#1CD855,#FA92F8,10,0,1,38,1,760.8999999910593,39,0,358.19999998807907,0,0,experiment,NA,NA,2,0.5,0.5,4,5,129,3,NA
fcp-trial,164,741895,0.0-139.0-0.0,voc_e2,12274,"[{""event"":""fullscreenenter"",""trial"":1,""time"":2076}]",NA,NA,NA,NA,NA,3,#D89F1C,#3386FF,0,10,0,38,1,768.6000000089407,39,0,438.79999999701977,10,1,experiment,NA,NA,1,0.3,0.7,3,2,130,3,NA
fcp-trial,165,744391,0.0-140.0-0.0,voc_e2,12274,"[{""event"":""fullscreenenter"",""trial"":1,""time"":2076}]",NA,NA,NA,NA,NA,2,#741CD8,#D8271C,0,0,0,38,1,591.5,39,0,399.19999998807907,0,1,experiment,NA,NA,0,0.1,0.9,1,0,131,3,NA
fcp-trial,166,747040,0.0-141.0-0.0,voc_e2,12274,"[{""event"":""fullscreenenter"",""trial"":1,""time"":2076}]",NA,NA,NA,NA,NA,5,#FA92F8,#1CD855,10,0,0,38,1,664.7999999970198,37,1,479.29999999701977,10,0,experiment,NA,NA,2,0.5,0.5,5,4,132,3,NA
fcp-trial,167,750111,0.0-142.0-0.0,voc_e2,12274,"[{""event"":""fullscreenenter"",""trial"":1,""time"":2076}]",NA,NA,NA,NA,NA,2,#3386FF,#D89F1C,10,0,1,38,1,1183,37,1,383.3999999910593,10,1,experiment,NA,NA,1,0.7,0.3,2,3,133,3,NA
fcp-trial,168,753278,0.0-143.0-0.0,voc_e2,12274,"[{""event"":""fullscreenenter"",""trial"":1,""time"":2076}]",NA,NA,NA,NA,NA,4,#3386FF,#D89F1C,10,10,1,38,1,1343.2999999970198,37,1,319.29999999701977,10,1,experiment,NA,NA,1,0.7,0.3,2,3,134,3,NA
fcp-trial,169,755792,0.0-144.0-0.0,voc_e2,12274,"[{""event"":""fullscreenenter"",""trial"":1,""time"":2076}]",NA,NA,NA,NA,NA,3,#D8271C,#741CD8,10,0,1,38,1,721.7999999970198,37,1,286.70000000298023,10,1,experiment,NA,NA,0,0.9,0.1,0,1,135,3,NA
fcp-trial,170,758384,0.0-145.0-0.0,voc_e2,12274,"[{""event"":""fullscreenenter"",""trial"":1,""time"":2076}]",NA,NA,NA,NA,NA,1,#D8271C,#741CD8,10,0,1,38,1,761.2000000029802,37,1,327.20000000298023,10,1,experiment,NA,NA,0,0.9,0.1,0,1,136,4,NA
fcp-trial,171,760775,0.0-146.0-0.0,voc_e2,12274,"[{""event"":""fullscreenenter"",""trial"":1,""time"":2076}]",NA,NA,NA,NA,NA,0,#FA92F8,#1CD855,10,0,0,38,1,544,37,1,343,10,0,experiment,NA,NA,2,0.5,0.5,5,4,137,4,NA
fcp-trial,172,763743,0.0-147.0-0.0,voc_e2,12274,"[{""event"":""fullscreenenter"",""trial"":1,""time"":2076}]",NA,NA,NA,NA,NA,6,#D8271C,#741CD8,10,0,1,38,1,735.0999999940395,37,1,727.5,10,1,experiment,NA,NA,0,0.9,0.1,0,1,138,4,NA
fcp-trial,173,767552,0.0-148.0-0.0,voc_e2,12274,"[{""event"":""fullscreenenter"",""trial"":1,""time"":2076}]",NA,NA,NA,NA,NA,6,#D89F1C,#3386FF,0,0,0,40,0,1737.199999988079,39,0,566.7000000029802,0,1,experiment,NA,NA,1,0.3,0.7,3,2,139,4,NA
fcp-trial,174,770976,0.0-149.0-0.0,voc_e2,12274,"[{""event"":""fullscreenenter"",""trial"":1,""time"":2076}]",NA,NA,NA,NA,NA,4,#D8271C,#741CD8,10,0,1,38,1,1512.5,37,1,407.5,10,1,experiment,NA,NA,0,0.9,0.1,0,1,140,4,NA
fcp-trial,175,773991,0.0-150.0-0.0,voc_e2,12274,"[{""event"":""fullscreenenter"",""trial"":1,""time"":2076}]",NA,NA,NA,NA,NA,2,#1CD855,#FA92F8,10,10,1,38,1,776.5999999940395,39,0,734.8999999910593,10,0,experiment,NA,NA,2,0.5,0.5,4,5,141,4,NA
fcp-trial,176,777288,0.0-151.0-0.0,voc_e2,12274,"[{""event"":""fullscreenenter"",""trial"":1,""time"":2076}]",NA,NA,NA,NA,NA,0,#741CD8,#D8271C,0,10,0,38,1,1209.1000000089407,39,0,583.6000000089407,10,1,experiment,NA,NA,0,0.1,0.9,1,0,142,4,NA
fcp-trial,177,781775,0.0-152.0-0.0,voc_e2,12274,"[{""event"":""fullscreenenter"",""trial"":1,""time"":2076}]",NA,NA,NA,NA,NA,5,#3386FF,#D89F1C,10,10,1,40,0,2270.800000011921,37,1,711.5999999940395,10,1,experiment,NA,NA,1,0.7,0.3,2,3,143,4,NA
fcp-trial,178,784687,0.0-153.0-0.0,voc_e2,12274,"[{""event"":""fullscreenenter"",""trial"":1,""time"":2076}]",NA,NA,NA,NA,NA,5,#741CD8,#D8271C,0,10,0,38,1,842,39,0,566.1000000089407,10,1,experiment,NA,NA,0,0.1,0.9,1,0,144,4,NA
fcp-trial,179,788536,0.0-154.0-0.0,voc_e2,12274,"[{""event"":""fullscreenenter"",""trial"":1,""time"":2076}]",NA,NA,NA,NA,NA,6,#FA92F8,#1CD855,0,10,0,40,0,1599.5,39,0,743.2999999970198,10,1,experiment,NA,NA,2,0.5,0.5,5,4,145,4,NA
fcp-trial,180,791358,0.0-155.0-0.0,voc_e2,12274,"[{""event"":""fullscreenenter"",""trial"":1,""time"":2076}]",NA,NA,NA,NA,NA,3,#FA92F8,#1CD855,10,0,0,38,1,992,37,1,326.59999999403954,10,0,experiment,NA,NA,2,0.5,0.5,5,4,146,4,NA
fcp-trial,181,793975,0.0-156.0-0.0,voc_e2,12274,"[{""event"":""fullscreenenter"",""trial"":1,""time"":2076}]",NA,NA,NA,NA,NA,4,#FA92F8,#1CD855,10,10,0,38,1,759.8999999910593,37,1,351.69999998807907,10,0,experiment,NA,NA,2,0.5,0.5,5,4,147,4,NA
fcp-trial,182,797167,0.0-157.0-0.0,voc_e2,12274,"[{""event"":""fullscreenenter"",""trial"":1,""time"":2076}]",NA,NA,NA,NA,NA,1,#3386FF,#D89F1C,10,0,1,38,1,1329.5,37,1,358.70000000298023,10,1,experiment,NA,NA,1,0.7,0.3,2,3,148,4,NA
fcp-trial,183,799999,0.0-158.0-0.0,voc_e2,12274,"[{""event"":""fullscreenenter"",""trial"":1,""time"":2076}]",NA,NA,NA,NA,NA,4,#3386FF,#D89F1C,10,0,1,38,1,953.6000000089407,37,1,373.79999999701977,10,1,experiment,NA,NA,1,0.7,0.3,2,3,149,4,NA
fcp-trial,184,804736,0.0-159.0-0.0,voc_e2,12274,"[{""event"":""fullscreenenter"",""trial"":1,""time"":2076}]",NA,NA,NA,NA,NA,1,#1CD855,#FA92F8,0,10,1,40,0,2616.7000000029802,39,0,615.0999999940395,10,0,experiment,NA,NA,2,0.5,0.5,4,5,150,4,NA
fcp-trial,185,809343,0.0-160.0-0.0,voc_e2,12274,"[{""event"":""fullscreenenter"",""trial"":1,""time"":2076}]",NA,NA,NA,NA,NA,0,#D8271C,#741CD8,10,0,1,38,1,2685.2999999970198,37,1,415.79999999701977,10,1,experiment,NA,NA,0,0.9,0.1,0,1,151,4,NA
fcp-trial,186,813353,0.0-161.0-0.0,voc_e2,12274,"[{""event"":""fullscreenenter"",""trial"":1,""time"":2076}]",NA,NA,NA,NA,NA,4,#FA92F8,#1CD855,10,0,0,40,0,1809.2999999970198,37,1,694.7999999970198,10,0,experiment,NA,NA,2,0.5,0.5,5,4,152,4,NA
fcp-trial,187,816440,0.0-162.0-0.0,voc_e2,12274,"[{""event"":""fullscreenenter"",""trial"":1,""time"":2076}]",NA,NA,NA,NA,NA,6,#D89F1C,#3386FF,10,10,0,40,0,975.4000000059605,39,0,606.7000000029802,10,1,experiment,NA,NA,1,0.3,0.7,3,2,153,4,NA
fcp-trial,188,819511,0.0-163.0-0.0,voc_e2,12274,"[{""event"":""fullscreenenter"",""trial"":1,""time"":2076}]",NA,NA,NA,NA,NA,3,#D8271C,#741CD8,10,0,1,40,0,999.2000000029802,39,0,566.5,0,0,experiment,NA,NA,0,0.9,0.1,0,1,154,4,NA
fcp-trial,189,823024,0.0-164.0-0.0,voc_e2,12274,"[{""event"":""fullscreenenter"",""trial"":1,""time"":2076}]",NA,NA,NA,NA,NA,5,#741CD8,#D8271C,0,10,0,40,0,1312.7999999970198,37,1,697,0,0,experiment,NA,NA,0,0.1,0.9,1,0,155,4,NA
fcp-trial,190,826520,0.0-165.0-0.0,voc_e2,12274,"[{""event"":""fullscreenenter"",""trial"":1,""time"":2076}]",NA,NA,NA,NA,NA,3,#1CD855,#FA92F8,10,10,1,38,1,1144.4000000059605,37,1,846,10,1,experiment,NA,NA,2,0.5,0.5,4,5,156,4,NA
fcp-trial,191,829326,0.0-166.0-0.0,voc_e2,12274,"[{""event"":""fullscreenenter"",""trial"":1,""time"":2076}]",NA,NA,NA,NA,NA,2,#3386FF,#D89F1C,0,10,1,38,1,928.2999999970198,37,1,374.20000000298023,0,1,experiment,NA,NA,1,0.7,0.3,2,3,157,4,NA
fcp-trial,192,832223,0.0-167.0-0.0,voc_e2,12274,"[{""event"":""fullscreenenter"",""trial"":1,""time"":2076}]",NA,NA,NA,NA,NA,2,#1CD855,#FA92F8,0,0,1,38,1,881.2000000029802,39,0,511.40000000596046,0,0,experiment,NA,NA,2,0.5,0.5,4,5,158,4,NA
fcp-trial,193,835558,0.0-168.0-0.0,voc_e2,12274,"[{""event"":""fullscreenenter"",""trial"":1,""time"":2076}]",NA,NA,NA,NA,NA,6,#FA92F8,#1CD855,0,10,0,38,1,992.7999999970198,37,1,837.5999999940395,0,0,experiment,NA,NA,2,0.5,0.5,5,4,159,4,NA
fcp-trial,194,838879,0.0-169.0-0.0,voc_e2,12274,"[{""event"":""fullscreenenter"",""trial"":1,""time"":2076}]",NA,NA,NA,NA,NA,2,#741CD8,#D8271C,0,10,0,38,1,1442.2999999970198,39,0,373,10,1,experiment,NA,NA,0,0.1,0.9,1,0,160,4,NA
fcp-trial,195,842336,0.0-170.0-0.0,voc_e2,12274,"[{""event"":""fullscreenenter"",""trial"":1,""time"":2076}]",NA,NA,NA,NA,NA,5,#D89F1C,#3386FF,0,0,0,40,0,1017.1999999880791,37,1,935.0999999940395,0,0,experiment,NA,NA,1,0.3,0.7,3,2,161,4,NA
fcp-trial,196,845319,0.0-171.0-0.0,voc_e2,12274,"[{""event"":""fullscreenenter"",""trial"":1,""time"":2076}]",NA,NA,NA,NA,NA,1,#D8271C,#741CD8,10,0,1,38,1,1112.9000000059605,39,0,366.5,0,0,experiment,NA,NA,0,0.9,0.1,0,1,162,4,NA
fcp-trial,197,848400,0.0-172.0-0.0,voc_e2,12274,"[{""event"":""fullscreenenter"",""trial"":1,""time"":2076}]",NA,NA,NA,NA,NA,0,#3386FF,#D89F1C,10,0,1,38,1,1255.3999999910593,37,1,319.09999999403954,10,1,experiment,NA,NA,1,0.7,0.3,2,3,163,4,NA
fcp-trial,198,852016,0.0-173.0-0.0,voc_e2,12274,"[{""event"":""fullscreenenter"",""trial"":1,""time"":2076}]",NA,NA,NA,NA,NA,0,#1CD855,#FA92F8,0,0,1,38,1,1312.2999999970198,39,0,798.7999999970198,0,0,experiment,NA,NA,2,0.5,0.5,4,5,164,4,NA
fcp-trial,199,855601,0.0-174.0-0.0,voc_e2,12274,"[{""event"":""fullscreenenter"",""trial"":1,""time"":2076}]",NA,NA,NA,NA,NA,5,#1CD855,#FA92F8,0,0,1,40,0,1415.699999988079,37,1,662.6000000089407,0,1,experiment,NA,NA,2,0.5,0.5,4,5,165,4,NA
fcp-trial,200,859494,0.0-175.0-0.0,voc_e2,12274,"[{""event"":""fullscreenenter"",""trial"":1,""time"":2076}]",NA,NA,NA,NA,NA,6,#D8271C,#741CD8,10,0,1,40,0,1583.9000000059605,39,0,805.7000000029802,0,0,experiment,NA,NA,0,0.9,0.1,0,1,166,4,NA
fcp-trial,201,863423,0.0-176.0-0.0,voc_e2,12274,"[{""event"":""fullscreenenter"",""trial"":1,""time"":2076}]",NA,NA,NA,NA,NA,3,#3386FF,#D89F1C,0,0,1,38,1,1313.5,37,1,1110.0999999940395,0,1,experiment,NA,NA,1,0.7,0.3,2,3,167,4,NA
fcp-trial,202,866615,0.0-177.0-0.0,voc_e2,12274,"[{""event"":""fullscreenenter"",""trial"":1,""time"":2076}]",NA,NA,NA,NA,NA,4,#741CD8,#D8271C,0,0,0,38,1,984,39,0,703,0,1,experiment,NA,NA,0,0.1,0.9,1,0,168,4,NA
fcp-trial,203,869591,0.0-178.0-0.0,voc_e2,12274,"[{""event"":""fullscreenenter"",""trial"":1,""time"":2076}]",NA,NA,NA,NA,NA,2,#1CD855,#FA92F8,10,0,1,38,1,1024.2000000029802,39,0,448,0,0,experiment,NA,NA,2,0.5,0.5,4,5,169,4,NA
fcp-trial,204,872479,0.0-179.0-0.0,voc_e2,12274,"[{""event"":""fullscreenenter"",""trial"":1,""time"":2076}]",NA,NA,NA,NA,NA,3,#FA92F8,#1CD855,0,0,0,38,1,993.5999999940395,37,1,390.6000000089407,0,0,experiment,NA,NA,2,0.5,0.5,5,4,170,4,NA
fcp-trial,205,875583,0.0-180.0-0.0,voc_e2,12274,"[{""event"":""fullscreenenter"",""trial"":1,""time"":2076}]",NA,NA,NA,NA,NA,4,#FA92F8,#1CD855,10,10,0,38,1,1200.7000000029802,37,1,398.29999999701977,10,0,experiment,NA,NA,2,0.5,0.5,5,4,171,4,NA
fcp-trial,206,878559,0.0-181.0-0.0,voc_e2,12274,"[{""event"":""fullscreenenter"",""trial"":1,""time"":2076}]",NA,NA,NA,NA,NA,0,#D8271C,#741CD8,10,0,1,38,1,1006.3999999910593,37,1,462.6000000089407,10,1,experiment,NA,NA,0,0.9,0.1,0,1,172,4,NA
fcp-trial,207,881544,0.0-182.0-0.0,voc_e2,12274,"[{""event"":""fullscreenenter"",""trial"":1,""time"":2076}]",NA,NA,NA,NA,NA,1,#3386FF,#D89F1C,10,0,1,38,1,1049.1000000089407,37,1,431.19999998807907,10,1,experiment,NA,NA,1,0.7,0.3,2,3,173,4,NA
fcp-trial,208,884399,0.0-183.0-0.0,voc_e2,12274,"[{""event"":""fullscreenenter"",""trial"":1,""time"":2076}]",NA,NA,NA,NA,NA,3,#D8271C,#741CD8,0,0,1,38,1,945.2999999970198,37,1,406.29999999701977,0,1,experiment,NA,NA,0,0.9,0.1,0,1,174,4,NA
fcp-trial,209,887168,0.0-184.0-0.0,voc_e2,12274,"[{""event"":""fullscreenenter"",""trial"":1,""time"":2076}]",NA,NA,NA,NA,NA,1,#1CD855,#FA92F8,0,0,1,38,1,936.9000000059605,39,0,327.09999999403954,0,0,experiment,NA,NA,2,0.5,0.5,4,5,175,4,NA
fcp-trial,210,890025,0.0-185.0-0.0,voc_e2,12274,"[{""event"":""fullscreenenter"",""trial"":1,""time"":2076}]",NA,NA,NA,NA,NA,4,#741CD8,#D8271C,0,10,0,38,1,681,39,0,669.5,10,1,experiment,NA,NA,0,0.1,0.9,1,0,176,4,NA
fcp-trial,211,893064,0.0-186.0-0.0,voc_e2,12274,"[{""event"":""fullscreenenter"",""trial"":1,""time"":2076}]",NA,NA,NA,NA,NA,5,#3386FF,#D89F1C,10,10,1,38,1,1103.8999999910593,37,1,431.70000000298023,10,1,experiment,NA,NA,1,0.7,0.3,2,3,177,4,NA
fcp-trial,212,895663,0.0-187.0-0.0,voc_e2,12274,"[{""event"":""fullscreenenter"",""trial"":1,""time"":2076}]",NA,NA,NA,NA,NA,0,#3386FF,#D89F1C,10,10,1,38,1,767.3999999910593,37,1,326,10,1,experiment,NA,NA,1,0.7,0.3,2,3,178,4,NA
fcp-trial,213,898509,0.0-188.0-0.0,voc_e2,12274,"[{""event"":""fullscreenenter"",""trial"":1,""time"":2076}]",NA,NA,NA,NA,NA,6,#3386FF,#D89F1C,10,0,1,38,1,872.5,37,1,470.5,10,1,experiment,NA,NA,1,0.7,0.3,2,3,179,4,NA
fcp-trial,214,902976,0.0-189.0-0.0,voc_e2,12274,"[{""event"":""fullscreenenter"",""trial"":1,""time"":2076}]",NA,NA,NA,NA,NA,5,#FA92F8,#1CD855,10,0,0,40,0,2274.2999999970198,39,0,687.0999999940395,0,1,experiment,NA,NA,2,0.5,0.5,5,4,180,4,NA
fcp-trial,215,906103,0.0-190.0-0.0,voc_e2,12274,"[{""event"":""fullscreenenter"",""trial"":1,""time"":2076}]",NA,NA,NA,NA,NA,5,#D8271C,#741CD8,0,0,1,38,1,1079.1000000089407,37,1,544.0999999940395,0,1,experiment,NA,NA,0,0.9,0.1,0,1,181,5,NA
fcp-trial,216,909110,0.0-191.0-0.0,voc_e2,12274,"[{""event"":""fullscreenenter"",""trial"":1,""time"":2076}]",NA,NA,NA,NA,NA,2,#D89F1C,#3386FF,0,10,0,38,1,974.0999999940395,39,0,527.2999999970198,10,1,experiment,NA,NA,1,0.3,0.7,3,2,182,5,NA
fcp-trial,217,911959,0.0-192.0-0.0,voc_e2,12274,"[{""event"":""fullscreenenter"",""trial"":1,""time"":2076}]",NA,NA,NA,NA,NA,1,#741CD8,#D8271C,0,10,0,38,1,920.7000000029802,39,0,423.20000000298023,10,1,experiment,NA,NA,0,0.1,0.9,1,0,183,5,NA
fcp-trial,218,914510,0.0-193.0-0.0,voc_e2,12274,"[{""event"":""fullscreenenter"",""trial"":1,""time"":2076}]",NA,NA,NA,NA,NA,3,#D89F1C,#3386FF,0,0,0,38,1,776.7000000029802,39,0,268.69999998807907,0,1,experiment,NA,NA,1,0.3,0.7,3,2,184,5,NA
fcp-trial,219,916830,0.0-194.0-0.0,voc_e2,12274,"[{""event"":""fullscreenenter"",""trial"":1,""time"":2076}]",NA,NA,NA,NA,NA,0,#FA92F8,#1CD855,0,0,0,38,1,393.09999999403954,37,1,422.79999999701977,0,0,experiment,NA,NA,2,0.5,0.5,5,4,185,5,NA
fcp-trial,220,919462,0.0-195.0-0.0,voc_e2,12274,"[{""event"":""fullscreenenter"",""trial"":1,""time"":2076}]",NA,NA,NA,NA,NA,2,#D8271C,#741CD8,10,0,1,38,1,537.2999999970198,37,1,590.1999999880791,10,1,experiment,NA,NA,0,0.9,0.1,0,1,186,5,NA
fcp-trial,221,922319,0.0-196.0-0.0,voc_e2,12274,"[{""event"":""fullscreenenter"",""trial"":1,""time"":2076}]",NA,NA,NA,NA,NA,6,#1CD855,#FA92F8,0,0,1,38,1,616.2999999970198,39,0,735.7999999970198,0,0,experiment,NA,NA,2,0.5,0.5,4,5,187,5,NA
fcp-trial,222,925142,0.0-197.0-0.0,voc_e2,12274,"[{""event"":""fullscreenenter"",""trial"":1,""time"":2076}]",NA,NA,NA,NA,NA,4,#D89F1C,#3386FF,0,10,0,38,1,680.1000000089407,39,0,638,10,1,experiment,NA,NA,1,0.3,0.7,3,2,188,5,NA
fcp-trial,223,927725,0.0-198.0-0.0,voc_e2,12274,"[{""event"":""fullscreenenter"",""trial"":1,""time"":2076}]",NA,NA,NA,NA,NA,6,#741CD8,#D8271C,0,10,0,38,1,689.8000000119209,39,0,390.5,10,1,experiment,NA,NA,0,0.1,0.9,1,0,189,5,NA
fcp-trial,224,930726,0.0-199.0-0.0,voc_e2,12274,"[{""event"":""fullscreenenter"",""trial"":1,""time"":2076}]",NA,NA,NA,NA,NA,6,#FA92F8,#1CD855,0,0,0,38,1,962.2999999970198,39,0,534.5,0,1,experiment,NA,NA,2,0.5,0.5,5,4,190,5,NA
fcp-trial,225,934359,0.0-200.0-0.0,voc_e2,12274,"[{""event"":""fullscreenenter"",""trial"":1,""time"":2076}]",NA,NA,NA,NA,NA,5,#D89F1C,#3386FF,0,0,0,40,0,1473.5,39,0,653.4000000059605,0,1,experiment,NA,NA,1,0.3,0.7,3,2,191,5,NA
fcp-trial,226,937919,0.0-201.0-0.0,voc_e2,12274,"[{""event"":""fullscreenenter"",""trial"":1,""time"":2076}]",NA,NA,NA,NA,NA,1,#741CD8,#D8271C,0,10,0,38,1,1496.2999999970198,39,0,559.7000000029802,10,1,experiment,NA,NA,0,0.1,0.9,1,0,192,5,NA
fcp-trial,227,940894,0.0-202.0-0.0,voc_e2,12274,"[{""event"":""fullscreenenter"",""trial"":1,""time"":2076}]",NA,NA,NA,NA,NA,2,#1CD855,#FA92F8,10,0,1,38,1,1167.7000000029802,39,0,302.90000000596046,0,0,experiment,NA,NA,2,0.5,0.5,4,5,193,5,NA
fcp-trial,228,944014,0.0-203.0-0.0,voc_e2,12274,"[{""event"":""fullscreenenter"",""trial"":1,""time"":2076}]",NA,NA,NA,NA,NA,4,#741CD8,#D8271C,0,10,0,38,1,1265.2000000029802,39,0,350.19999998807907,10,1,experiment,NA,NA,0,0.1,0.9,1,0,194,5,NA
fcp-trial,229,946910,0.0-204.0-0.0,voc_e2,12274,"[{""event"":""fullscreenenter"",""trial"":1,""time"":2076}]",NA,NA,NA,NA,NA,2,#3386FF,#D89F1C,10,0,1,38,1,1057,39,0,334.6000000089407,0,0,experiment,NA,NA,1,0.7,0.3,2,3,195,5,NA
fcp-trial,230,949871,0.0-205.0-0.0,voc_e2,12274,"[{""event"":""fullscreenenter"",""trial"":1,""time"":2076}]",NA,NA,NA,NA,NA,3,#FA92F8,#1CD855,10,10,0,38,1,1088.6000000089407,37,1,367,10,0,experiment,NA,NA,2,0.5,0.5,5,4,196,5,NA
fcp-trial,231,952494,0.0-206.0-0.0,voc_e2,12274,"[{""event"":""fullscreenenter"",""trial"":1,""time"":2076}]",NA,NA,NA,NA,NA,0,#FA92F8,#1CD855,10,10,0,38,1,839.5,37,1,277.80000001192093,10,0,experiment,NA,NA,2,0.5,0.5,5,4,197,5,NA
fcp-trial,232,955271,0.0-207.0-0.0,voc_e2,12274,"[{""event"":""fullscreenenter"",""trial"":1,""time"":2076}]",NA,NA,NA,NA,NA,1,#1CD855,#FA92F8,0,10,1,38,1,921.2000000029802,39,0,351.70000000298023,10,0,experiment,NA,NA,2,0.5,0.5,4,5,198,5,NA
fcp-trial,233,958200,0.0-208.0-0.0,voc_e2,12274,"[{""event"":""fullscreenenter"",""trial"":1,""time"":2076}]",NA,NA,NA,NA,NA,0,#741CD8,#D8271C,0,10,0,38,1,1054.2000000029802,39,0,368,10,1,experiment,NA,NA,0,0.1,0.9,1,0,199,5,NA
fcp-trial,234,961126,0.0-209.0-0.0,voc_e2,12274,"[{""event"":""fullscreenenter"",""trial"":1,""time"":2076}]",NA,NA,NA,NA,NA,0,#3386FF,#D89F1C,0,0,1,38,1,1072.5,37,1,348.5,0,1,experiment,NA,NA,1,0.7,0.3,2,3,200,5,NA
fcp-trial,235,963737,0.0-210.0-0.0,voc_e2,12274,"[{""event"":""fullscreenenter"",""trial"":1,""time"":2076}]",NA,NA,NA,NA,NA,3,#D89F1C,#3386FF,0,10,0,38,1,616.5,39,0,487.59999999403954,10,1,experiment,NA,NA,1,0.3,0.7,3,2,201,5,NA
fcp-trial,236,966439,0.0-211.0-0.0,voc_e2,12274,"[{""event"":""fullscreenenter"",""trial"":1,""time"":2076}]",NA,NA,NA,NA,NA,6,#3386FF,#D89F1C,10,10,1,38,1,686.2000000029802,37,1,510.70000000298023,10,1,experiment,NA,NA,1,0.7,0.3,2,3,202,5,NA
fcp-trial,237,969142,0.0-212.0-0.0,voc_e2,12274,"[{""event"":""fullscreenenter"",""trial"":1,""time"":2076}]",NA,NA,NA,NA,NA,4,#1CD855,#FA92F8,10,10,1,38,1,806.6000000089407,39,0,390.90000000596046,10,0,experiment,NA,NA,2,0.5,0.5,4,5,203,5,NA
fcp-trial,238,972039,0.0-213.0-0.0,voc_e2,12274,"[{""event"":""fullscreenenter"",""trial"":1,""time"":2076}]",NA,NA,NA,NA,NA,2,#D8271C,#741CD8,10,0,1,38,1,1050,37,1,343.30000001192093,10,1,experiment,NA,NA,0,0.9,0.1,0,1,204,5,NA
fcp-trial,239,974743,0.0-214.0-0.0,voc_e2,12274,"[{""event"":""fullscreenenter"",""trial"":1,""time"":2076}]",NA,NA,NA,NA,NA,3,#741CD8,#D8271C,0,10,0,38,1,672.4000000059605,39,0,526.0999999940395,10,1,experiment,NA,NA,0,0.1,0.9,1,0,205,5,NA
fcp-trial,240,977456,0.0-215.0-0.0,voc_e2,12274,"[{""event"":""fullscreenenter"",""trial"":1,""time"":2076}]",NA,NA,NA,NA,NA,5,#FA92F8,#1CD855,0,0,0,38,1,592.7999999970198,37,1,615.7999999970198,0,0,experiment,NA,NA,2,0.5,0.5,5,4,206,5,NA
fcp-trial,241,980239,0.0-216.0-0.0,voc_e2,12274,"[{""event"":""fullscreenenter"",""trial"":1,""time"":2076}]",NA,NA,NA,NA,NA,4,#3386FF,#D89F1C,10,0,1,38,1,887.5,37,1,391.20000000298023,10,1,experiment,NA,NA,1,0.7,0.3,2,3,207,5,NA
fcp-trial,242,982942,0.0-217.0-0.0,voc_e2,12274,"[{""event"":""fullscreenenter"",""trial"":1,""time"":2076}]",NA,NA,NA,NA,NA,6,#741CD8,#D8271C,0,10,0,38,1,487.8999999910593,39,0,710.5999999940395,10,1,experiment,NA,NA,0,0.1,0.9,1,0,208,5,NA
fcp-trial,243,986223,0.0-218.0-0.0,voc_e2,12274,"[{""event"":""fullscreenenter"",""trial"":1,""time"":2076}]",NA,NA,NA,NA,NA,5,#741CD8,#D8271C,0,10,0,38,1,1449.5,39,0,326.70000000298023,10,1,experiment,NA,NA,0,0.1,0.9,1,0,209,5,NA
fcp-trial,244,988664,0.0-219.0-0.0,voc_e2,12274,"[{""event"":""fullscreenenter"",""trial"":1,""time"":2076}]",NA,NA,NA,NA,NA,1,#3386FF,#D89F1C,10,0,1,38,1,510.5,37,1,423.5,10,1,experiment,NA,NA,1,0.7,0.3,2,3,210,5,NA
audio-instructions,245,1060249,0.0-220.0,voc_e2,12274,"[{""event"":""fullscreenenter"",""trial"":1,""time"":2076}]",NA,67065.79999999702,static/audio/pause.wav,NA,0,NA,NA,NA,NA,NA,NA,NA,NA,NA,NA,NA,NA,NA,NA,NA,NA,NA,NA,NA,NA,NA,NA,NA,NA,NA
fcp-trial,246,1063854,0.0-221.0-0.0,voc_e2,12274,"[{""event"":""fullscreenenter"",""trial"":1,""time"":2076}]",NA,NA,NA,NA,NA,1,#D89F1C,#3386FF,10,10,0,38,1,1718.7000000029802,39,0,382.59999999403954,10,1,experiment,NA,NA,1,0.3,0.7,3,2,211,5,NA
fcp-trial,247,1066326,0.0-222.0-0.0,voc_e2,12274,"[{""event"":""fullscreenenter"",""trial"":1,""time"":2076}]",NA,NA,NA,NA,NA,5,#1CD855,#FA92F8,0,10,1,38,1,606.9000000059605,39,0,358.1000000089407,10,0,experiment,NA,NA,2,0.5,0.5,4,5,212,5,NA
fcp-trial,248,1068799,0.0-223.0-0.0,voc_e2,12274,"[{""event"":""fullscreenenter"",""trial"":1,""time"":2076}]",NA,NA,NA,NA,NA,4,#D8271C,#741CD8,10,0,1,38,1,592.7000000029802,37,1,374.3999999910593,10,1,experiment,NA,NA,0,0.9,0.1,0,1,213,5,NA
fcp-trial,249,1071470,0.0-224.0-0.0,voc_e2,12274,"[{""event"":""fullscreenenter"",""trial"":1,""time"":2076}]",NA,NA,NA,NA,NA,1,#741CD8,#D8271C,0,10,0,38,1,790.7999999970198,39,0,375.90000000596046,10,1,experiment,NA,NA,0,0.1,0.9,1,0,214,5,NA
fcp-trial,250,1073799,0.0-225.0-0.0,voc_e2,12274,"[{""event"":""fullscreenenter"",""trial"":1,""time"":2076}]",NA,NA,NA,NA,NA,3,#D8271C,#741CD8,10,0,1,38,1,535.3999999910593,37,1,287.3999999910593,10,1,experiment,NA,NA,0,0.9,0.1,0,1,215,5,NA
fcp-trial,251,1076591,0.0-226.0-0.0,voc_e2,12274,"[{""event"":""fullscreenenter"",""trial"":1,""time"":2076}]",NA,NA,NA,NA,NA,2,#3386FF,#D89F1C,10,0,1,38,1,991.2999999970198,37,1,296.29999999701977,10,1,experiment,NA,NA,1,0.7,0.3,2,3,216,5,NA
fcp-trial,252,1079270,0.0-227.0-0.0,voc_e2,12274,"[{""event"":""fullscreenenter"",""trial"":1,""time"":2076}]",NA,NA,NA,NA,NA,3,#1CD855,#FA92F8,10,10,1,38,1,847.3000000119209,39,0,327.09999999403954,10,0,experiment,NA,NA,2,0.5,0.5,4,5,217,5,NA
fcp-trial,253,1081606,0.0-228.0-0.0,voc_e2,12274,"[{""event"":""fullscreenenter"",""trial"":1,""time"":2076}]",NA,NA,NA,NA,NA,5,#D8271C,#741CD8,10,0,1,38,1,495.09999999403954,37,1,333.40000000596046,10,1,experiment,NA,NA,0,0.9,0.1,0,1,218,5,NA
fcp-trial,254,1084383,0.0-229.0-0.0,voc_e2,12274,"[{""event"":""fullscreenenter"",""trial"":1,""time"":2076}]",NA,NA,NA,NA,NA,0,#741CD8,#D8271C,0,10,0,38,1,905.1999999880791,39,0,368,10,1,experiment,NA,NA,0,0.1,0.9,1,0,219,5,NA
fcp-trial,255,1087647,0.0-230.0-0.0,voc_e2,12274,"[{""event"":""fullscreenenter"",""trial"":1,""time"":2076}]",NA,NA,NA,NA,NA,6,#3386FF,#D89F1C,0,0,1,38,1,1479.2000000029802,37,1,279,0,1,experiment,NA,NA,1,0.7,0.3,2,3,220,5,NA
fcp-trial,256,1090271,0.0-231.0-0.0,voc_e2,12274,"[{""event"":""fullscreenenter"",""trial"":1,""time"":2076}]",NA,NA,NA,NA,NA,4,#FA92F8,#1CD855,0,0,0,38,1,727.9000000059605,37,1,392.5,0,0,experiment,NA,NA,2,0.5,0.5,5,4,221,5,NA
fcp-trial,257,1093007,0.0-232.0-0.0,voc_e2,12274,"[{""event"":""fullscreenenter"",""trial"":1,""time"":2076}]",NA,NA,NA,NA,NA,0,#3386FF,#D89F1C,10,0,1,38,1,934.5,37,1,296.90000000596046,10,1,experiment,NA,NA,1,0.7,0.3,2,3,222,5,NA
fcp-trial,258,1095638,0.0-233.0-0.0,voc_e2,12274,"[{""event"":""fullscreenenter"",""trial"":1,""time"":2076}]",NA,NA,NA,NA,NA,1,#1CD855,#FA92F8,0,10,1,38,1,721.2000000029802,39,0,406,10,0,experiment,NA,NA,2,0.5,0.5,4,5,223,5,NA
fcp-trial,259,1098199,0.0-234.0-0.0,voc_e2,12274,"[{""event"":""fullscreenenter"",""trial"":1,""time"":2076}]",NA,NA,NA,NA,NA,2,#741CD8,#D8271C,0,10,0,38,1,728.5,37,1,326.40000000596046,0,0,experiment,NA,NA,0,0.1,0.9,1,0,224,5,NA
fcp-trial,260,1100543,0.0-235.0-0.0,voc_e2,12274,"[{""event"":""fullscreenenter"",""trial"":1,""time"":2076}]",NA,NA,NA,NA,NA,4,#D89F1C,#3386FF,0,0,0,38,1,479.79999999701977,39,0,358.40000000596046,0,1,experiment,NA,NA,1,0.3,0.7,3,2,225,5,NA
fcp-trial,261,1102919,0.0-236.0-0.0,voc_e2,12274,"[{""event"":""fullscreenenter"",""trial"":1,""time"":2076}]",NA,NA,NA,NA,NA,6,#1CD855,#FA92F8,10,10,1,38,1,543.5999999940395,39,0,327.20000000298023,10,0,experiment,NA,NA,2,0.5,0.5,4,5,226,6,NA
fcp-trial,262,1105262,0.0-237.0-0.0,voc_e2,12274,"[{""event"":""fullscreenenter"",""trial"":1,""time"":2076}]",NA,NA,NA,NA,NA,2,#FA92F8,#1CD855,10,0,0,38,1,568.4000000059605,37,1,270.70000000298023,10,0,experiment,NA,NA,2,0.5,0.5,5,4,227,6,NA
fcp-trial,263,1107710,0.0-238.0-0.0,voc_e2,12274,"[{""event"":""fullscreenenter"",""trial"":1,""time"":2076}]",NA,NA,NA,NA,NA,0,#FA92F8,#1CD855,10,0,0,38,1,487.70000000298023,37,1,453.80000001192093,10,0,experiment,NA,NA,2,0.5,0.5,5,4,228,6,NA
fcp-trial,264,1110383,0.0-239.0-0.0,voc_e2,12274,"[{""event"":""fullscreenenter"",""trial"":1,""time"":2076}]",NA,NA,NA,NA,NA,6,#741CD8,#D8271C,10,10,0,38,1,840.6999999880791,39,0,327.40000000596046,10,1,experiment,NA,NA,0,0.1,0.9,1,0,229,6,NA
fcp-trial,265,1113151,0.0-240.0-0.0,voc_e2,12274,"[{""event"":""fullscreenenter"",""trial"":1,""time"":2076}]",NA,NA,NA,NA,NA,3,#3386FF,#D89F1C,10,0,1,38,1,912,37,1,351.70000000298023,10,1,experiment,NA,NA,1,0.7,0.3,2,3,230,6,NA
fcp-trial,266,1115663,0.0-241.0-0.0,voc_e2,12274,"[{""event"":""fullscreenenter"",""trial"":1,""time"":2076}]",NA,NA,NA,NA,NA,5,#D89F1C,#3386FF,10,0,0,38,1,591.5,39,0,415.6000000089407,0,1,experiment,NA,NA,1,0.3,0.7,3,2,231,6,NA
fcp-trial,267,1118478,0.0-242.0-0.0,voc_e2,12274,"[{""event"":""fullscreenenter"",""trial"":1,""time"":2076}]",NA,NA,NA,NA,NA,2,#741CD8,#D8271C,0,10,0,38,1,920,39,0,388.90000000596046,10,1,experiment,NA,NA,0,0.1,0.9,1,0,232,6,NA
fcp-trial,268,1121055,0.0-243.0-0.0,voc_e2,12274,"[{""event"":""fullscreenenter"",""trial"":1,""time"":2076}]",NA,NA,NA,NA,NA,5,#D89F1C,#3386FF,0,10,0,38,1,760.0999999940395,39,0,311.90000000596046,10,1,experiment,NA,NA,1,0.3,0.7,3,2,233,6,NA
fcp-trial,269,1123725,0.0-244.0-0.0,voc_e2,12274,"[{""event"":""fullscreenenter"",""trial"":1,""time"":2076}]",NA,NA,NA,NA,NA,6,#FA92F8,#1CD855,0,10,0,38,1,678.7999999970198,37,1,486.6000000089407,0,0,experiment,NA,NA,2,0.5,0.5,5,4,234,6,NA
fcp-trial,270,1126574,0.0-245.0-0.0,voc_e2,12274,"[{""event"":""fullscreenenter"",""trial"":1,""time"":2076}]",NA,NA,NA,NA,NA,6,#741CD8,#D8271C,0,10,0,38,1,674.5,39,0,670.1999999880791,10,1,experiment,NA,NA,0,0.1,0.9,1,0,235,6,NA
fcp-trial,271,1128983,0.0-246.0-0.0,voc_e2,12274,"[{""event"":""fullscreenenter"",""trial"":1,""time"":2076}]",NA,NA,NA,NA,NA,3,#FA92F8,#1CD855,0,0,0,38,1,553.5999999940395,37,1,351.59999999403954,0,0,experiment,NA,NA,2,0.5,0.5,5,4,236,6,NA
fcp-trial,272,1131719,0.0-247.0-0.0,voc_e2,12274,"[{""event"":""fullscreenenter"",""trial"":1,""time"":2076}]",NA,NA,NA,NA,NA,0,#FA92F8,#1CD855,0,0,0,38,1,943.9000000059605,37,1,287.40000000596046,0,0,experiment,NA,NA,2,0.5,0.5,5,4,237,6,NA
fcp-trial,273,1134568,0.0-248.0-0.0,voc_e2,12274,"[{""event"":""fullscreenenter"",""trial"":1,""time"":2076}]",NA,NA,NA,NA,NA,3,#D89F1C,#3386FF,10,10,0,38,1,854.2999999970198,39,0,488.6000000089407,10,1,experiment,NA,NA,1,0.3,0.7,3,2,238,6,NA
fcp-trial,274,1137238,0.0-249.0-0.0,voc_e2,12274,"[{""event"":""fullscreenenter"",""trial"":1,""time"":2076}]",NA,NA,NA,NA,NA,5,#1CD855,#FA92F8,0,0,1,38,1,751.4000000059605,39,0,415,0,0,experiment,NA,NA,2,0.5,0.5,4,5,239,6,NA
fcp-trial,275,1139614,0.0-250.0-0.0,voc_e2,12274,"[{""event"":""fullscreenenter"",""trial"":1,""time"":2076}]",NA,NA,NA,NA,NA,0,#741CD8,#D8271C,0,10,0,38,1,534.0999999940395,39,0,335.59999999403954,10,1,experiment,NA,NA,0,0.1,0.9,1,0,240,6,NA
fcp-trial,276,1142392,0.0-251.0-0.0,voc_e2,12274,"[{""event"":""fullscreenenter"",""trial"":1,""time"":2076}]",NA,NA,NA,NA,NA,0,#D89F1C,#3386FF,0,10,0,38,1,855.9000000059605,39,0,416.5,10,1,experiment,NA,NA,1,0.3,0.7,3,2,241,6,NA
fcp-trial,277,1144719,0.0-252.0-0.0,voc_e2,12274,"[{""event"":""fullscreenenter"",""trial"":1,""time"":2076}]",NA,NA,NA,NA,NA,4,#FA92F8,#1CD855,10,10,0,38,1,502.90000000596046,37,1,319.79999999701977,10,0,experiment,NA,NA,2,0.5,0.5,5,4,242,6,NA
fcp-trial,278,1147494,0.0-253.0-0.0,voc_e2,12274,"[{""event"":""fullscreenenter"",""trial"":1,""time"":2076}]",NA,NA,NA,NA,NA,4,#741CD8,#D8271C,0,10,0,38,1,848.5,39,0,421.29999999701977,10,1,experiment,NA,NA,0,0.1,0.9,1,0,243,6,NA
fcp-trial,279,1150151,0.0-254.0-0.0,voc_e2,12274,"[{""event"":""fullscreenenter"",""trial"":1,""time"":2076}]",NA,NA,NA,NA,NA,1,#D8271C,#741CD8,10,0,1,38,1,833.9000000059605,37,1,319.20000000298023,10,1,experiment,NA,NA,0,0.9,0.1,0,1,244,6,NA
fcp-trial,280,1152615,0.0-255.0-0.0,voc_e2,12274,"[{""event"":""fullscreenenter"",""trial"":1,""time"":2076}]",NA,NA,NA,NA,NA,6,#D89F1C,#3386FF,0,10,0,38,1,622.7999999970198,39,0,335.6000000089407,10,1,experiment,NA,NA,1,0.3,0.7,3,2,245,6,NA
fcp-trial,281,1155110,0.0-256.0-0.0,voc_e2,12274,"[{""event"":""fullscreenenter"",""trial"":1,""time"":2076}]",NA,NA,NA,NA,NA,1,#FA92F8,#1CD855,0,0,0,38,1,663.8999999910593,37,1,320.29999999701977,0,0,experiment,NA,NA,2,0.5,0.5,5,4,246,6,NA
fcp-trial,282,1157478,0.0-257.0-0.0,voc_e2,12274,"[{""event"":""fullscreenenter"",""trial"":1,""time"":2076}]",NA,NA,NA,NA,NA,4,#D89F1C,#3386FF,0,10,0,38,1,489.5,39,0,374.09999999403954,10,1,experiment,NA,NA,1,0.3,0.7,3,2,247,6,NA
fcp-trial,283,1159677,0.0-258.0-0.0,voc_e2,12274,"[{""event"":""fullscreenenter"",""trial"":1,""time"":2076}]",NA,NA,NA,NA,NA,2,#3386FF,#D89F1C,10,0,1,38,1,425.90000000596046,37,1,269.6000000089407,10,1,experiment,NA,NA,1,0.7,0.3,2,3,248,6,NA
fcp-trial,284,1162167,0.0-259.0-0.0,voc_e2,12274,"[{""event"":""fullscreenenter"",""trial"":1,""time"":2076}]",NA,NA,NA,NA,NA,3,#D8271C,#741CD8,0,10,1,38,1,689,37,1,294.70000000298023,0,1,experiment,NA,NA,0,0.9,0.1,0,1,249,6,NA
fcp-trial,285,1165510,0.0-260.0-0.0,voc_e2,12274,"[{""event"":""fullscreenenter"",""trial"":1,""time"":2076}]",NA,NA,NA,NA,NA,2,#FA92F8,#1CD855,0,0,0,38,1,702.9000000059605,37,1,1135.8999999910593,0,0,experiment,NA,NA,2,0.5,0.5,5,4,250,6,NA
fcp-trial,286,1167958,0.0-261.0-0.0,voc_e2,12274,"[{""event"":""fullscreenenter"",""trial"":1,""time"":2076}]",NA,NA,NA,NA,NA,5,#D8271C,#741CD8,10,0,1,38,1,680.3999999910593,37,1,263.09999999403954,10,1,experiment,NA,NA,0,0.9,0.1,0,1,251,6,NA
fcp-trial,287,1170645,0.0-262.0-0.0,voc_e2,12274,"[{""event"":""fullscreenenter"",""trial"":1,""time"":2076}]",NA,NA,NA,NA,NA,1,#3386FF,#D89F1C,10,0,1,38,1,897.2000000029802,37,1,287.1000000089407,10,1,experiment,NA,NA,1,0.7,0.3,2,3,252,6,NA
fcp-trial,288,1173024,0.0-263.0-0.0,voc_e2,12274,"[{""event"":""fullscreenenter"",""trial"":1,""time"":2076}]",NA,NA,NA,NA,NA,5,#D89F1C,#3386FF,0,0,0,38,1,560.2999999970198,39,0,312.5,0,1,experiment,NA,NA,1,0.3,0.7,3,2,253,6,NA
fcp-trial,289,1176671,0.0-264.0-0.0,voc_e2,12274,"[{""event"":""fullscreenenter"",""trial"":1,""time"":2076}]",NA,NA,NA,NA,NA,4,#741CD8,#D8271C,0,10,0,38,1,1655.7000000029802,39,0,487.8999999910593,10,1,experiment,NA,NA,0,0.1,0.9,1,0,254,6,NA
fcp-trial,290,1179824,0.0-265.0-0.0,voc_e2,12274,"[{""event"":""fullscreenenter"",""trial"":1,""time"":2076}]",NA,NA,NA,NA,NA,5,#1CD855,#FA92F8,10,10,1,38,1,623.1000000089407,39,0,1022.9000000059605,10,0,experiment,NA,NA,2,0.5,0.5,4,5,255,6,NA
fcp-trial,291,1183023,0.0-266.0-0.0,voc_e2,12274,"[{""event"":""fullscreenenter"",""trial"":1,""time"":2076}]",NA,NA,NA,NA,NA,3,#1CD855,#FA92F8,10,0,1,38,1,503.6000000089407,39,0,1191.300000011921,0,0,experiment,NA,NA,2,0.5,0.5,4,5,256,6,NA
fcp-trial,292,1185439,0.0-267.0-0.0,voc_e2,12274,"[{""event"":""fullscreenenter"",""trial"":1,""time"":2076}]",NA,NA,NA,NA,NA,4,#FA92F8,#1CD855,0,0,0,38,1,576.7000000029802,37,1,334.70000000298023,0,0,experiment,NA,NA,2,0.5,0.5,5,4,257,6,NA
fcp-trial,293,1187935,0.0-268.0-0.0,voc_e2,12274,"[{""event"":""fullscreenenter"",""trial"":1,""time"":2076}]",NA,NA,NA,NA,NA,0,#D89F1C,#3386FF,0,10,0,38,1,679.6000000089407,39,0,312,10,1,experiment,NA,NA,1,0.3,0.7,3,2,258,6,NA
fcp-trial,294,1191103,0.0-269.0-0.0,voc_e2,12274,"[{""event"":""fullscreenenter"",""trial"":1,""time"":2076}]",NA,NA,NA,NA,NA,0,#D8271C,#741CD8,10,0,1,38,1,624.5,37,1,1035.7000000029802,10,1,experiment,NA,NA,0,0.9,0.1,0,1,259,6,NA
fcp-trial,295,1193646,0.0-270.0-0.0,voc_e2,12274,"[{""event"":""fullscreenenter"",""trial"":1,""time"":2076}]",NA,NA,NA,NA,NA,6,#FA92F8,#1CD855,0,10,0,38,1,717.7000000029802,37,1,319.79999999701977,0,0,experiment,NA,NA,2,0.5,0.5,5,4,260,6,NA
fcp-trial,296,1196095,0.0-271.0-0.0,voc_e2,12274,"[{""event"":""fullscreenenter"",""trial"":1,""time"":2076}]",NA,NA,NA,NA,NA,3,#D89F1C,#3386FF,0,10,0,38,1,592.5,39,0,351.6000000089407,10,1,experiment,NA,NA,1,0.3,0.7,3,2,261,6,NA
fcp-trial,297,1198735,0.0-272.0-0.0,voc_e2,12274,"[{""event"":""fullscreenenter"",""trial"":1,""time"":2076}]",NA,NA,NA,NA,NA,0,#FA92F8,#1CD855,10,10,0,38,1,856.6999999880791,37,1,279,10,0,experiment,NA,NA,2,0.5,0.5,5,4,262,6,NA
fcp-trial,298,1201232,0.0-273.0-0.0,voc_e2,12274,"[{""event"":""fullscreenenter"",""trial"":1,""time"":2076}]",NA,NA,NA,NA,NA,1,#741CD8,#D8271C,0,10,0,38,1,647.2999999970198,39,0,342.5,10,1,experiment,NA,NA,0,0.1,0.9,1,0,263,6,NA
fcp-trial,299,1203647,0.0-274.0-0.0,voc_e2,12274,"[{""event"":""fullscreenenter"",""trial"":1,""time"":2076}]",NA,NA,NA,NA,NA,2,#3386FF,#D89F1C,10,0,1,38,1,647.3999999910593,37,1,262.90000000596046,10,1,experiment,NA,NA,1,0.7,0.3,2,3,264,6,NA
fcp-trial,300,1206048,0.0-275.0-0.0,voc_e2,12274,"[{""event"":""fullscreenenter"",""trial"":1,""time"":2076}]",NA,NA,NA,NA,NA,5,#D8271C,#741CD8,10,0,1,38,1,527.7999999970198,37,1,367.70000000298023,10,1,experiment,NA,NA,0,0.9,0.1,0,1,265,6,NA
fcp-trial,301,1208383,0.0-276.0-0.0,voc_e2,12274,"[{""event"":""fullscreenenter"",""trial"":1,""time"":2076}]",NA,NA,NA,NA,NA,1,#FA92F8,#1CD855,10,10,0,38,1,527.2999999970198,37,1,303.5,10,0,experiment,NA,NA,2,0.5,0.5,5,4,266,6,NA
fcp-trial,302,1210783,0.0-277.0-0.0,voc_e2,12274,"[{""event"":""fullscreenenter"",""trial"":1,""time"":2076}]",NA,NA,NA,NA,NA,2,#D8271C,#741CD8,10,0,1,38,1,568.7999999970198,37,1,327.40000000596046,10,1,experiment,NA,NA,0,0.9,0.1,0,1,267,6,NA
fcp-trial,303,1213246,0.0-278.0-0.0,voc_e2,12274,"[{""event"":""fullscreenenter"",""trial"":1,""time"":2076}]",NA,NA,NA,NA,NA,4,#D89F1C,#3386FF,0,10,0,38,1,623.2000000029802,39,0,334.5,10,1,experiment,NA,NA,1,0.3,0.7,3,2,268,6,NA
fcp-trial,304,1215559,0.0-279.0-0.0,voc_e2,12274,"[{""event"":""fullscreenenter"",""trial"":1,""time"":2076}]",NA,NA,NA,NA,NA,6,#3386FF,#D89F1C,10,0,1,38,1,536.0999999940395,37,1,271,10,1,experiment,NA,NA,1,0.7,0.3,2,3,269,6,NA
fcp-trial,305,1217910,0.0-280.0-0.0,voc_e2,12274,"[{""event"":""fullscreenenter"",""trial"":1,""time"":2076}]",NA,NA,NA,NA,NA,3,#D8271C,#741CD8,10,0,1,38,1,464.59999999403954,37,1,382.70000000298023,10,1,experiment,NA,NA,0,0.9,0.1,0,1,270,6,NA
fcp-trial,306,1220207,0.0-281.0-0.0,voc_e2,12274,"[{""event"":""fullscreenenter"",""trial"":1,""time"":2076}]",NA,NA,NA,NA,NA,2,#FA92F8,#1CD855,0,0,0,38,1,472.3999999910593,37,1,320.09999999403954,0,0,experiment,NA,NA,2,0.5,0.5,5,4,271,7,NA
fcp-trial,307,1222575,0.0-282.0-0.0,voc_e2,12274,"[{""event"":""fullscreenenter"",""trial"":1,""time"":2076}]",NA,NA,NA,NA,NA,6,#741CD8,#D8271C,0,10,0,38,1,375.3999999910593,39,0,486.90000000596046,10,1,experiment,NA,NA,0,0.1,0.9,1,0,272,7,NA
fcp-trial,308,1224935,0.0-283.0-0.0,voc_e2,12274,"[{""event"":""fullscreenenter"",""trial"":1,""time"":2076}]",NA,NA,NA,NA,NA,1,#D89F1C,#3386FF,0,10,0,38,1,563.4000000059605,39,0,293.20000000298023,10,1,experiment,NA,NA,1,0.3,0.7,3,2,273,7,NA
fcp-trial,309,1227368,0.0-284.0-0.0,voc_e2,12274,"[{""event"":""fullscreenenter"",""trial"":1,""time"":2076}]",NA,NA,NA,NA,NA,2,#FA92F8,#1CD855,0,10,0,38,1,531,37,1,397,0,0,experiment,NA,NA,2,0.5,0.5,5,4,274,7,NA
fcp-trial,310,1229726,0.0-285.0-0.0,voc_e2,12274,"[{""event"":""fullscreenenter"",""trial"":1,""time"":2076}]",NA,NA,NA,NA,NA,6,#1CD855,#FA92F8,0,0,1,38,1,375.5,39,0,478.69999998807907,0,0,experiment,NA,NA,2,0.5,0.5,4,5,275,7,NA
fcp-trial,311,1232255,0.0-286.0-0.0,voc_e2,12274,"[{""event"":""fullscreenenter"",""trial"":1,""time"":2076}]",NA,NA,NA,NA,NA,4,#741CD8,#D8271C,0,10,0,38,1,506.1000000089407,39,0,518.7000000029802,10,1,experiment,NA,NA,0,0.1,0.9,1,0,276,7,NA
fcp-trial,312,1234599,0.0-287.0-0.0,voc_e2,12274,"[{""event"":""fullscreenenter"",""trial"":1,""time"":2076}]",NA,NA,NA,NA,NA,5,#D89F1C,#3386FF,0,10,0,38,1,511.79999999701977,39,0,327,10,1,experiment,NA,NA,1,0.3,0.7,3,2,277,7,NA
fcp-trial,313,1238910,0.0-288.0-0.0,voc_e2,12274,"[{""event"":""fullscreenenter"",""trial"":1,""time"":2076}]",NA,NA,NA,NA,NA,1,#1CD855,#FA92F8,10,0,1,38,1,1975.5,39,0,830.7000000029802,0,0,experiment,NA,NA,2,0.5,0.5,4,5,278,7,NA
fcp-trial,314,1241294,0.0-289.0-0.0,voc_e2,12274,"[{""event"":""fullscreenenter"",""trial"":1,""time"":2076}]",NA,NA,NA,NA,NA,5,#741CD8,#D8271C,0,10,0,38,1,576.7999999970198,39,0,303,10,1,experiment,NA,NA,0,0.1,0.9,1,0,279,7,NA
fcp-trial,315,1243591,0.0-290.0-0.0,voc_e2,12274,"[{""event"":""fullscreenenter"",""trial"":1,""time"":2076}]",NA,NA,NA,NA,NA,2,#D8271C,#741CD8,10,0,1,38,1,505,37,1,287,10,1,experiment,NA,NA,0,0.9,0.1,0,1,280,7,NA
fcp-trial,316,1246119,0.0-291.0-0.0,voc_e2,12274,"[{""event"":""fullscreenenter"",""trial"":1,""time"":2076}]",NA,NA,NA,NA,NA,5,#1CD855,#FA92F8,0,10,1,38,1,672.4000000059605,39,0,352.40000000596046,10,0,experiment,NA,NA,2,0.5,0.5,4,5,281,7,NA
fcp-trial,317,1248367,0.0-292.0-0.0,voc_e2,12274,"[{""event"":""fullscreenenter"",""trial"":1,""time"":2076}]",NA,NA,NA,NA,NA,3,#3386FF,#D89F1C,0,0,1,38,1,414.20000000298023,37,1,327.5,0,1,experiment,NA,NA,1,0.7,0.3,2,3,282,7,NA
fcp-trial,318,1251024,0.0-293.0-0.0,voc_e2,12274,"[{""event"":""fullscreenenter"",""trial"":1,""time"":2076}]",NA,NA,NA,NA,NA,1,#D89F1C,#3386FF,0,10,0,38,1,864.5,39,0,287.70000000298023,10,1,experiment,NA,NA,1,0.3,0.7,3,2,283,7,NA
fcp-trial,319,1253303,0.0-294.0-0.0,voc_e2,12274,"[{""event"":""fullscreenenter"",""trial"":1,""time"":2076}]",NA,NA,NA,NA,NA,0,#1CD855,#FA92F8,10,0,1,38,1,415,39,0,360.09999999403954,0,0,experiment,NA,NA,2,0.5,0.5,4,5,284,7,NA
fcp-trial,320,1255631,0.0-295.0-0.0,voc_e2,12274,"[{""event"":""fullscreenenter"",""trial"":1,""time"":2076}]",NA,NA,NA,NA,NA,0,#D8271C,#741CD8,10,0,1,38,1,390.1000000089407,37,1,431.29999999701977,10,1,experiment,NA,NA,0,0.9,0.1,0,1,285,7,NA
fcp-trial,321,1257831,0.0-296.0-0.0,voc_e2,12274,"[{""event"":""fullscreenenter"",""trial"":1,""time"":2076}]",NA,NA,NA,NA,NA,3,#741CD8,#D8271C,0,10,0,38,1,392.40000000596046,39,0,302.20000000298023,10,1,experiment,NA,NA,0,0.1,0.9,1,0,286,7,NA
fcp-trial,322,1260223,0.0-297.0-0.0,voc_e2,12274,"[{""event"":""fullscreenenter"",""trial"":1,""time"":2076}]",NA,NA,NA,NA,NA,3,#1CD855,#FA92F8,10,10,1,38,1,536.2000000029802,39,0,350.6000000089407,10,0,experiment,NA,NA,2,0.5,0.5,4,5,287,7,NA
fcp-trial,323,1262719,0.0-298.0-0.0,voc_e2,12274,"[{""event"":""fullscreenenter"",""trial"":1,""time"":2076}]",NA,NA,NA,NA,NA,0,#3386FF,#D89F1C,0,10,1,38,1,688.6999999880791,37,1,303.5,0,1,experiment,NA,NA,1,0.7,0.3,2,3,288,7,NA
fcp-trial,324,1265174,0.0-299.0-0.0,voc_e2,12274,"[{""event"":""fullscreenenter"",""trial"":1,""time"":2076}]",NA,NA,NA,NA,NA,6,#3386FF,#D89F1C,10,10,1,38,1,599.4000000059605,37,1,351.40000000596046,10,1,experiment,NA,NA,1,0.7,0.3,2,3,289,7,NA
fcp-trial,325,1267495,0.0-300.0-0.0,voc_e2,12274,"[{""event"":""fullscreenenter"",""trial"":1,""time"":2076}]",NA,NA,NA,NA,NA,2,#3386FF,#D89F1C,0,0,1,38,1,400.70000000298023,37,1,414.6000000089407,0,1,experiment,NA,NA,1,0.7,0.3,2,3,290,7,NA
fcp-trial,326,1270207,0.0-301.0-0.0,voc_e2,12274,"[{""event"":""fullscreenenter"",""trial"":1,""time"":2076}]",NA,NA,NA,NA,NA,6,#D8271C,#741CD8,10,0,1,38,1,553.2999999970198,37,1,654.9000000059605,10,1,experiment,NA,NA,0,0.9,0.1,0,1,291,7,NA
fcp-trial,327,1272535,0.0-302.0-0.0,voc_e2,12274,"[{""event"":""fullscreenenter"",""trial"":1,""time"":2076}]",NA,NA,NA,NA,NA,4,#1CD855,#FA92F8,0,0,1,38,1,544.4000000059605,39,0,279.79999999701977,0,0,experiment,NA,NA,2,0.5,0.5,4,5,292,7,NA
fcp-trial,328,1275159,0.0-303.0-0.0,voc_e2,12274,"[{""event"":""fullscreenenter"",""trial"":1,""time"":2076}]",NA,NA,NA,NA,NA,4,#D89F1C,#3386FF,0,10,0,38,1,832,39,0,286.40000000596046,10,1,experiment,NA,NA,1,0.3,0.7,3,2,293,7,NA
fcp-trial,329,1277487,0.0-304.0-0.0,voc_e2,12274,"[{""event"":""fullscreenenter"",""trial"":1,""time"":2076}]",NA,NA,NA,NA,NA,1,#741CD8,#D8271C,0,10,0,38,1,512.1000000089407,39,0,311.59999999403954,10,1,experiment,NA,NA,0,0.1,0.9,1,0,294,7,NA
fcp-trial,330,1279767,0.0-305.0-0.0,voc_e2,12274,"[{""event"":""fullscreenenter"",""trial"":1,""time"":2076}]",NA,NA,NA,NA,NA,0,#D8271C,#741CD8,10,0,1,38,1,463.59999999403954,37,1,311.80000001192093,10,1,experiment,NA,NA,0,0.9,0.1,0,1,295,7,NA
fcp-trial,331,1282094,0.0-306.0-0.0,voc_e2,12274,"[{""event"":""fullscreenenter"",""trial"":1,""time"":2076}]",NA,NA,NA,NA,NA,1,#D8271C,#741CD8,10,0,1,38,1,471.69999998807907,37,1,350.90000000596046,10,1,experiment,NA,NA,0,0.9,0.1,0,1,296,7,NA
fcp-trial,332,1284526,0.0-307.0-0.0,voc_e2,12274,"[{""event"":""fullscreenenter"",""trial"":1,""time"":2076}]",NA,NA,NA,NA,NA,2,#1CD855,#FA92F8,10,0,1,38,1,400.79999999701977,39,0,527.2000000029802,0,0,experiment,NA,NA,2,0.5,0.5,4,5,297,7,NA
fcp-trial,333,1286919,0.0-308.0-0.0,voc_e2,12274,"[{""event"":""fullscreenenter"",""trial"":1,""time"":2076}]",NA,NA,NA,NA,NA,6,#3386FF,#D89F1C,10,0,1,38,1,456.20000000298023,37,1,431.5,10,1,experiment,NA,NA,1,0.7,0.3,2,3,298,7,NA
fcp-trial,334,1289822,0.0-309.0-0.0,voc_e2,12274,"[{""event"":""fullscreenenter"",""trial"":1,""time"":2076}]",NA,NA,NA,NA,NA,5,#D89F1C,#3386FF,10,10,0,38,1,1144.7000000029802,39,0,254.70000000298023,10,1,experiment,NA,NA,1,0.3,0.7,3,2,299,7,NA
fcp-trial,335,1292086,0.0-310.0-0.0,voc_e2,12274,"[{""event"":""fullscreenenter"",""trial"":1,""time"":2076}]",NA,NA,NA,NA,NA,4,#FA92F8,#1CD855,0,10,0,38,1,473.29999999701977,37,1,287.29999999701977,0,0,experiment,NA,NA,2,0.5,0.5,5,4,300,7,NA
fcp-trial,336,1294399,0.0-311.0-0.0,voc_e2,12274,"[{""event"":""fullscreenenter"",""trial"":1,""time"":2076}]",NA,NA,NA,NA,NA,3,#741CD8,#D8271C,0,10,0,38,1,416.20000000298023,39,0,390.29999999701977,10,1,experiment,NA,NA,0,0.1,0.9,1,0,301,7,NA
fcp-trial,337,1296671,0.0-312.0-0.0,voc_e2,12274,"[{""event"":""fullscreenenter"",""trial"":1,""time"":2076}]",NA,NA,NA,NA,NA,0,#D89F1C,#3386FF,10,10,0,38,1,439.09999999403954,39,0,326.5,10,1,experiment,NA,NA,1,0.3,0.7,3,2,302,7,NA
fcp-trial,338,1298942,0.0-313.0-0.0,voc_e2,12274,"[{""event"":""fullscreenenter"",""trial"":1,""time"":2076}]",NA,NA,NA,NA,NA,2,#D89F1C,#3386FF,0,10,0,38,1,465,39,0,302.6000000089407,10,1,experiment,NA,NA,1,0.3,0.7,3,2,303,7,NA
fcp-trial,339,1301839,0.0-314.0-0.0,voc_e2,12274,"[{""event"":""fullscreenenter"",""trial"":1,""time"":2076}]",NA,NA,NA,NA,NA,1,#3386FF,#D89F1C,10,10,1,38,1,1089.7999999970198,37,1,302.90000000596046,10,1,experiment,NA,NA,1,0.7,0.3,2,3,304,7,NA
fcp-trial,340,1304264,0.0-315.0-0.0,voc_e2,12274,"[{""event"":""fullscreenenter"",""trial"":1,""time"":2076}]",NA,NA,NA,NA,NA,6,#1CD855,#FA92F8,10,0,1,38,1,631.4000000059605,39,0,287.70000000298023,0,0,experiment,NA,NA,2,0.5,0.5,4,5,305,7,NA
fcp-trial,341,1306615,0.0-316.0-0.0,voc_e2,12274,"[{""event"":""fullscreenenter"",""trial"":1,""time"":2076}]",NA,NA,NA,NA,NA,5,#D8271C,#741CD8,10,0,1,38,1,543.5,37,1,304.29999999701977,10,1,experiment,NA,NA,0,0.9,0.1,0,1,306,7,NA
fcp-trial,342,1308983,0.0-317.0-0.0,voc_e2,12274,"[{""event"":""fullscreenenter"",""trial"":1,""time"":2076}]",NA,NA,NA,NA,NA,4,#3386FF,#D89F1C,10,0,1,38,1,527.9000000059605,37,1,335.79999999701977,10,1,experiment,NA,NA,1,0.7,0.3,2,3,307,7,NA
fcp-trial,343,1311487,0.0-318.0-0.0,voc_e2,12274,"[{""event"":""fullscreenenter"",""trial"":1,""time"":2076}]",NA,NA,NA,NA,NA,2,#741CD8,#D8271C,0,0,0,38,1,575,39,0,423.29999999701977,0,1,experiment,NA,NA,0,0.1,0.9,1,0,308,7,NA
fcp-trial,344,1313879,0.0-319.0-0.0,voc_e2,12274,"[{""event"":""fullscreenenter"",""trial"":1,""time"":2076}]",NA,NA,NA,NA,NA,6,#D8271C,#741CD8,10,0,1,38,1,607.0999999940395,37,1,279.5,10,1,experiment,NA,NA,0,0.9,0.1,0,1,309,7,NA
fcp-trial,345,1316335,0.0-320.0-0.0,voc_e2,12274,"[{""event"":""fullscreenenter"",""trial"":1,""time"":2076}]",NA,NA,NA,NA,NA,5,#1CD855,#FA92F8,10,0,1,38,1,625.3999999910593,39,0,326.8999999910593,0,0,experiment,NA,NA,2,0.5,0.5,4,5,310,7,NA
fcp-trial,346,1318726,0.0-321.0-0.0,voc_e2,12274,"[{""event"":""fullscreenenter"",""trial"":1,""time"":2076}]",NA,NA,NA,NA,NA,4,#D8271C,#741CD8,10,0,1,38,1,543.5,37,1,342.79999999701977,10,1,experiment,NA,NA,0,0.9,0.1,0,1,311,7,NA
fcp-trial,347,1321751,0.0-322.0-0.0,voc_e2,12274,"[{""event"":""fullscreenenter"",""trial"":1,""time"":2076}]",NA,NA,NA,NA,NA,3,#3386FF,#D89F1C,0,10,1,38,1,602.2999999970198,37,1,918.7000000029802,0,1,experiment,NA,NA,1,0.7,0.3,2,3,312,7,NA
fcp-trial,348,1324167,0.0-323.0-0.0,voc_e2,12274,"[{""event"":""fullscreenenter"",""trial"":1,""time"":2076}]",NA,NA,NA,NA,NA,1,#FA92F8,#1CD855,0,0,0,38,1,448.90000000596046,37,1,463.1000000089407,0,0,experiment,NA,NA,2,0.5,0.5,5,4,313,7,NA
fcp-trial,349,1326607,0.0-324.0-0.0,voc_e2,12274,"[{""event"":""fullscreenenter"",""trial"":1,""time"":2076}]",NA,NA,NA,NA,NA,3,#1CD855,#FA92F8,0,10,1,38,1,569.0999999940395,39,0,367.69999998807907,10,0,experiment,NA,NA,2,0.5,0.5,4,5,314,7,NA
fcp-trial,350,1329120,0.0-325.0-0.0,voc_e2,12274,"[{""event"":""fullscreenenter"",""trial"":1,""time"":2076}]",NA,NA,NA,NA,NA,0,#FA92F8,#1CD855,10,10,0,38,1,593.1000000089407,37,1,415.09999999403954,10,0,experiment,NA,NA,2,0.5,0.5,5,4,315,7,NA
audio-instructions,351,1335908,0.0-326.0,voc_e2,12274,"[{""event"":""fullscreenenter"",""trial"":1,""time"":2076}]",NA,1069.800000011921,static/audio/finished.wav,NA,0,NA,NA,NA,NA,NA,NA,NA,NA,NA,NA,NA,NA,NA,NA,NA,NA,NA,NA,NA,NA,NA,NA,NA,NA,NA
audio-instructions,352,1348104,0.0-327.0-0.0,voc_e2,12274,"[{""event"":""fullscreenenter"",""trial"":1,""time"":2076}]",NA,1356.5,static/audio/explicit1.wav,NA,0,NA,NA,NA,NA,NA,NA,NA,NA,NA,NA,NA,NA,NA,NA,NA,NA,NA,NA,NA,NA,NA,NA,NA,NA,NA
audio-instructions,353,1356630,0.0-327.0-1.0,voc_e2,12274,"[{""event"":""fullscreenenter"",""trial"":1,""time"":2076}]",NA,933.1000000089408,static/audio/explicit2.wav,NA,0,NA,NA,NA,NA,NA,NA,NA,NA,NA,NA,NA,NA,NA,NA,NA,NA,NA,NA,NA,NA,NA,NA,NA,NA,NA
image-slider-response,354,1361868,0.0-328.0,voc_e2,12274,"[{""event"":""fullscreenenter"",""trial"":1,""time"":2076}]",NA,5237.0999999940395,static/img/machines/machine3.png,NA,NA,NA,NA,NA,NA,NA,NA,NA,NA,NA,NA,NA,NA,NA,NA,explicit,NA,NA,NA,NA,NA,NA,NA,NA,NA,8
image-slider-response,355,1365510,0.0-329.0,voc_e2,12274,"[{""event"":""fullscreenenter"",""trial"":1,""time"":2076}]",NA,3640.70000000298,static/img/machines/machine1.png,NA,NA,NA,NA,NA,NA,NA,NA,NA,NA,NA,NA,NA,NA,NA,NA,explicit,NA,NA,NA,NA,NA,NA,NA,NA,NA,8
image-slider-response,356,1369172,0.0-330.0,voc_e2,12274,"[{""event"":""fullscreenenter"",""trial"":1,""time"":2076}]",NA,3660.900000005961,static/img/machines/machine5.png,NA,NA,NA,NA,NA,NA,NA,NA,NA,NA,NA,NA,NA,NA,NA,NA,explicit,NA,NA,NA,NA,NA,NA,NA,NA,NA,7
image-slider-response,357,1372844,0.0-331.0,voc_e2,12274,"[{""event"":""fullscreenenter"",""trial"":1,""time"":2076}]",NA,3670.900000005961,static/img/machines/machine6.png,NA,NA,NA,NA,NA,NA,NA,NA,NA,NA,NA,NA,NA,NA,NA,NA,explicit,NA,NA,NA,NA,NA,NA,NA,NA,NA,2
image-slider-response,358,1376368,0.0-332.0,voc_e2,12274,"[{""event"":""fullscreenenter"",""trial"":1,""time"":2076}]",NA,3523.20000000298,static/img/machines/machine2.png,NA,NA,NA,NA,NA,NA,NA,NA,NA,NA,NA,NA,NA,NA,NA,NA,explicit,NA,NA,NA,NA,NA,NA,NA,NA,NA,2
image-slider-response,359,1379214,0.0-333.0,voc_e2,12274,"[{""event"":""fullscreenenter"",""trial"":1,""time"":2076}]",NA,2844.4000000059605,static/img/machines/machine4.png,NA,NA,NA,NA,NA,NA,NA,NA,NA,NA,NA,NA,NA,NA,NA,NA,explicit,NA,NA,NA,NA,NA,NA,NA,NA,NA,3
