trial_type,trial_index,time_elapsed,internal_node_id,task_version,subject_id,interactions,success,rt,stimulus,key_press,button_pressed,offer,arcade_color_L,arcade_color_R,arcade_outcome_L,arcade_outcome_R,correct,stage_1_key,stage_1_choice,stage_1_rt,stage_2_key,stage_2_choice,stage_2_rt,stage_3_outcome,accuracy,phase,responses,num_errors,context,reward_prob_L,reward_prob_R,arcade_id_L,arcade_id_R,trial,block,response
pavlovia,0,9,0.0-0.0,voc_e2,11778,[],NA,NA,NA,NA,NA,NA,NA,NA,NA,NA,NA,NA,NA,NA,NA,NA,NA,NA,NA,NA,NA,NA,NA,NA,NA,NA,NA,NA,NA,NA
fullscreen,1,3941,0.0-1.0,voc_e2,11778,"[{""event"":""fullscreenenter"",""trial"":1,""time"":2951}]",TRUE,NA,NA,NA,NA,NA,NA,NA,NA,NA,NA,NA,NA,NA,NA,NA,NA,NA,NA,NA,NA,NA,NA,NA,NA,NA,NA,NA,NA,NA
audio-keyboard-response,2,7020,0.0-2.0,voc_e2,11778,"[{""event"":""fullscreenenter"",""trial"":1,""time"":2951}]",NA,3000,static/audio/beep_loop.wav,32,NA,NA,NA,NA,NA,NA,NA,NA,NA,NA,NA,NA,NA,NA,NA,NA,NA,NA,NA,NA,NA,NA,NA,NA,NA,NA
audio-test,3,9560,0.0-3.0,voc_e2,11778,"[{""event"":""fullscreenenter"",""trial"":1,""time"":2951}]",NA,NA,static/audio/turtle.wav,NA,3,NA,NA,NA,NA,NA,NA,NA,NA,NA,NA,NA,NA,NA,NA,NA,NA,NA,NA,NA,NA,NA,NA,NA,NA,NA
audio-test,4,11639,0.0-4.0,voc_e2,11778,"[{""event"":""fullscreenenter"",""trial"":1,""time"":2951}]",NA,NA,static/audio/shark.wav,NA,2,NA,NA,NA,NA,NA,NA,NA,NA,NA,NA,NA,NA,NA,NA,NA,NA,NA,NA,NA,NA,NA,NA,NA,NA,NA
audio-instructions,5,18927,0.0-5.0-0.0,voc_e2,11778,"[{""event"":""fullscreenenter"",""trial"":1,""time"":2951}]",NA,1492.5999999046326,static/audio/instructions1.wav,NA,0,NA,NA,NA,NA,NA,NA,NA,NA,NA,NA,NA,NA,NA,NA,NA,NA,NA,NA,NA,NA,NA,NA,NA,NA,NA
audio-instructions,6,29380,0.0-5.0-1.0,voc_e2,11778,"[{""event"":""fullscreenenter"",""trial"":1,""time"":2951}]",NA,3716.799999952316,static/audio/instructions2.wav,NA,0,NA,NA,NA,NA,NA,NA,NA,NA,NA,NA,NA,NA,NA,NA,NA,NA,NA,NA,NA,NA,NA,NA,NA,NA,NA
audio-instructions,7,36171,0.0-5.0-2.0,voc_e2,11778,"[{""event"":""fullscreenenter"",""trial"":1,""time"":2951}]",NA,986.899999976158,static/audio/instructions3.wav,NA,0,NA,NA,NA,NA,NA,NA,NA,NA,NA,NA,NA,NA,NA,NA,NA,NA,NA,NA,NA,NA,NA,NA,NA,NA,NA
audio-instructions,8,51589,0.0-5.0-3.0,voc_e2,11778,"[{""event"":""fullscreenenter"",""trial"":1,""time"":2951}]",NA,2194.8000000715256,static/audio/instructions4.wav,NA,0,NA,NA,NA,NA,NA,NA,NA,NA,NA,NA,NA,NA,NA,NA,NA,NA,NA,NA,NA,NA,NA,NA,NA,NA,NA
audio-instructions,9,63061,0.0-5.0-4.0,voc_e2,11778,"[{""event"":""fullscreenenter"",""trial"":1,""time"":2951}]",NA,2087.099999904633,static/audio/instructions5.wav,NA,0,NA,NA,NA,NA,NA,NA,NA,NA,NA,NA,NA,NA,NA,NA,NA,NA,NA,NA,NA,NA,NA,NA,NA,NA,NA
fcp-practice,10,65834,0.0-5.0-5.0-0.0,voc_e2,11778,"[{""event"":""fullscreenenter"",""trial"":1,""time"":2951}]",NA,NA,NA,NA,NA,NA,#EDC948,#46d3c8,10,0,1,null,null,null,37,1,1252.7000000476835,10,1,practice,NA,NA,NA,NA,NA,NA,NA,NA,NA,NA
fcp-practice,11,67826,0.0-5.0-5.0-1.0,voc_e2,11778,"[{""event"":""fullscreenenter"",""trial"":1,""time"":2951}]",NA,NA,NA,NA,NA,NA,#EDC948,#46d3c8,10,0,1,null,null,null,37,1,483,10,1,practice,NA,NA,NA,NA,NA,NA,NA,NA,NA,NA
fcp-practice,12,69684,0.0-5.0-5.0-2.0,voc_e2,11778,"[{""event"":""fullscreenenter"",""trial"":1,""time"":2951}]",NA,NA,NA,NA,NA,NA,#EDC948,#46d3c8,0,10,1,null,null,null,37,1,348.60000002384186,0,1,practice,NA,NA,NA,NA,NA,NA,NA,NA,NA,NA
fcp-practice,13,71650,0.0-5.0-5.0-3.0,voc_e2,11778,"[{""event"":""fullscreenenter"",""trial"":1,""time"":2951}]",NA,NA,NA,NA,NA,NA,#EDC948,#46d3c8,10,0,1,null,null,null,37,1,447.59999990463257,10,1,practice,NA,NA,NA,NA,NA,NA,NA,NA,NA,NA
fcp-practice,14,76117,0.0-5.0-5.0-4.0,voc_e2,11778,"[{""event"":""fullscreenenter"",""trial"":1,""time"":2951}]",NA,NA,NA,NA,NA,NA,#EDC948,#46d3c8,10,0,1,null,null,null,37,1,2954,10,1,practice,NA,NA,NA,NA,NA,NA,NA,NA,NA,NA
audio-instructions,15,97162,0.0-5.0-6.0,voc_e2,11778,"[{""event"":""fullscreenenter"",""trial"":1,""time"":2951}]",NA,3038.7000000476837,static/audio/instructions6.wav,NA,0,NA,NA,NA,NA,NA,NA,NA,NA,NA,NA,NA,NA,NA,NA,NA,NA,NA,NA,NA,NA,NA,NA,NA,NA,NA
audio-instructions,16,118662,0.0-5.0-7.0,voc_e2,11778,"[{""event"":""fullscreenenter"",""trial"":1,""time"":2951}]",NA,2298.6999999284744,static/audio/instructions7.wav,NA,0,NA,NA,NA,NA,NA,NA,NA,NA,NA,NA,NA,NA,NA,NA,NA,NA,NA,NA,NA,NA,NA,NA,NA,NA,NA
audio-instructions,17,130355,0.0-5.0-8.0,voc_e2,11778,"[{""event"":""fullscreenenter"",""trial"":1,""time"":2951}]",NA,2211,static/audio/instructions8.wav,NA,0,NA,NA,NA,NA,NA,NA,NA,NA,NA,NA,NA,NA,NA,NA,NA,NA,NA,NA,NA,NA,NA,NA,NA,NA,NA
fcp-comprehension,18,140884,0.0-5.0-9.0,voc_e2,11778,"[{""event"":""fullscreenenter"",""trial"":1,""time"":2951}]",NA,10527.100000023842,NA,NA,NA,NA,NA,NA,NA,NA,NA,NA,NA,NA,NA,NA,NA,NA,NA,NA,"true,true",0,NA,NA,NA,NA,NA,NA,NA,NA
audio-instructions,19,148293,0.0-6.0-0.0,voc_e2,11778,"[{""event"":""fullscreenenter"",""trial"":1,""time"":2951}]",NA,1859.2999999523165,static/audio/instructions9.wav,NA,0,NA,NA,NA,NA,NA,NA,NA,NA,NA,NA,NA,NA,NA,NA,NA,NA,NA,NA,NA,NA,NA,NA,NA,NA,NA
audio-instructions,20,161561,0.0-6.0-1.0,voc_e2,11778,"[{""event"":""fullscreenenter"",""trial"":1,""time"":2951}]",NA,1147.100000023842,static/audio/instructions10.wav,NA,0,NA,NA,NA,NA,NA,NA,NA,NA,NA,NA,NA,NA,NA,NA,NA,NA,NA,NA,NA,NA,NA,NA,NA,NA,NA
fcp-trial,21,167446,0.0-6.0-2.0,voc_e2,11778,"[{""event"":""fullscreenenter"",""trial"":1,""time"":2951}]",NA,NA,NA,NA,NA,0,#EDC948,#46d3c8,10,10,1,38,1,3322,37,1,1037.399999976158,10,1,practice,NA,NA,NA,NA,NA,NA,NA,NA,NA,NA
audio-instructions,22,180188,0.0-6.0-3.0,voc_e2,11778,"[{""event"":""fullscreenenter"",""trial"":1,""time"":2951}]",NA,1735.0999999046326,static/audio/instructions11.wav,NA,0,NA,NA,NA,NA,NA,NA,NA,NA,NA,NA,NA,NA,NA,NA,NA,NA,NA,NA,NA,NA,NA,NA,NA,NA,NA
fcp-trial,23,185282,0.0-6.0-4.0,voc_e2,11778,"[{""event"":""fullscreenenter"",""trial"":1,""time"":2951}]",NA,NA,NA,NA,NA,6,#EDC948,#46d3c8,10,10,1,40,0,2617.600000023842,37,1,963.1999999284744,10,1,practice,NA,NA,NA,NA,NA,NA,NA,NA,NA,NA
audio-instructions,24,206144,0.0-6.0-5.0,voc_e2,11778,"[{""event"":""fullscreenenter"",""trial"":1,""time"":2951}]",NA,2170.600000023842,static/audio/instructions12.wav,NA,0,NA,NA,NA,NA,NA,NA,NA,NA,NA,NA,NA,NA,NA,NA,NA,NA,NA,NA,NA,NA,NA,NA,NA,NA,NA
audio-instructions,25,215026,0.0-6.0-6.0,voc_e2,11778,"[{""event"":""fullscreenenter"",""trial"":1,""time"":2951}]",NA,1283.5,static/audio/instructions13.wav,NA,0,NA,NA,NA,NA,NA,NA,NA,NA,NA,NA,NA,NA,NA,NA,NA,NA,NA,NA,NA,NA,NA,NA,NA,NA,NA
audio-instructions,26,224268,0.0-6.0-7.0,voc_e2,11778,"[{""event"":""fullscreenenter"",""trial"":1,""time"":2951}]",NA,794.2999999523163,static/audio/instructions14.wav,NA,0,NA,NA,NA,NA,NA,NA,NA,NA,NA,NA,NA,NA,NA,NA,NA,NA,NA,NA,NA,NA,NA,NA,NA,NA,NA
audio-instructions,27,232190,0.0-7.0-0.0,voc_e2,11778,"[{""event"":""fullscreenenter"",""trial"":1,""time"":2951}]",NA,1007,static/audio/instructions15.wav,NA,0,NA,NA,NA,NA,NA,NA,NA,NA,NA,NA,NA,NA,NA,NA,NA,NA,NA,NA,NA,NA,NA,NA,NA,NA,NA
audio-instructions,28,240470,0.0-7.0-1.0,voc_e2,11778,"[{""event"":""fullscreenenter"",""trial"":1,""time"":2951}]",NA,1457.399999976158,static/audio/instructions16.wav,NA,0,NA,NA,NA,NA,NA,NA,NA,NA,NA,NA,NA,NA,NA,NA,NA,NA,NA,NA,NA,NA,NA,NA,NA,NA,NA
audio-instructions,29,249152,0.0-7.0-2.0,voc_e2,11778,"[{""event"":""fullscreenenter"",""trial"":1,""time"":2951}]",NA,1009,static/audio/instructions17.wav,NA,0,NA,NA,NA,NA,NA,NA,NA,NA,NA,NA,NA,NA,NA,NA,NA,NA,NA,NA,NA,NA,NA,NA,NA,NA,NA
audio-instructions,30,257743,0.0-7.0-3.0,voc_e2,11778,"[{""event"":""fullscreenenter"",""trial"":1,""time"":2951}]",NA,820.5,static/audio/instructions18.wav,NA,0,NA,NA,NA,NA,NA,NA,NA,NA,NA,NA,NA,NA,NA,NA,NA,NA,NA,NA,NA,NA,NA,NA,NA,NA,NA
audio-instructions,31,265448,0.0-7.0-4.0,voc_e2,11778,"[{""event"":""fullscreenenter"",""trial"":1,""time"":2951}]",NA,955.5,static/audio/instructions19.wav,NA,0,NA,NA,NA,NA,NA,NA,NA,NA,NA,NA,NA,NA,NA,NA,NA,NA,NA,NA,NA,NA,NA,NA,NA,NA,NA
fcp-comprehension,32,279483,0.0-7.0-5.0,voc_e2,11778,"[{""event"":""fullscreenenter"",""trial"":1,""time"":2951}]",NA,14033.299999952316,NA,NA,NA,NA,NA,NA,NA,NA,NA,NA,NA,NA,NA,NA,NA,NA,NA,NA,"false,false,true,true",1,NA,NA,NA,NA,NA,NA,NA,NA
audio-instructions,33,287639,0.0-7.1-0.1,voc_e2,11778,"[{""event"":""fullscreenenter"",""trial"":1,""time"":2951}]",NA,1246.2000000476835,static/audio/instructions15.wav,NA,0,NA,NA,NA,NA,NA,NA,NA,NA,NA,NA,NA,NA,NA,NA,NA,NA,NA,NA,NA,NA,NA,NA,NA,NA,NA
audio-instructions,34,295184,0.0-7.1-1.1,voc_e2,11778,"[{""event"":""fullscreenenter"",""trial"":1,""time"":2951}]",NA,720.7000000476837,static/audio/instructions16.wav,NA,0,NA,NA,NA,NA,NA,NA,NA,NA,NA,NA,NA,NA,NA,NA,NA,NA,NA,NA,NA,NA,NA,NA,NA,NA,NA
audio-instructions,35,304048,0.0-7.1-2.1,voc_e2,11778,"[{""event"":""fullscreenenter"",""trial"":1,""time"":2951}]",NA,1185.5,static/audio/instructions17.wav,NA,0,NA,NA,NA,NA,NA,NA,NA,NA,NA,NA,NA,NA,NA,NA,NA,NA,NA,NA,NA,NA,NA,NA,NA,NA,NA
audio-instructions,36,312686,0.0-7.1-3.1,voc_e2,11778,"[{""event"":""fullscreenenter"",""trial"":1,""time"":2951}]",NA,873.2999999523163,static/audio/instructions18.wav,NA,0,NA,NA,NA,NA,NA,NA,NA,NA,NA,NA,NA,NA,NA,NA,NA,NA,NA,NA,NA,NA,NA,NA,NA,NA,NA
audio-instructions,37,320218,0.0-7.1-4.1,voc_e2,11778,"[{""event"":""fullscreenenter"",""trial"":1,""time"":2951}]",NA,795.3000000715256,static/audio/instructions19.wav,NA,0,NA,NA,NA,NA,NA,NA,NA,NA,NA,NA,NA,NA,NA,NA,NA,NA,NA,NA,NA,NA,NA,NA,NA,NA,NA
fcp-comprehension,38,336551,0.0-7.1-5.1,voc_e2,11778,"[{""event"":""fullscreenenter"",""trial"":1,""time"":2951}]",NA,16331.200000047684,NA,NA,NA,NA,NA,NA,NA,NA,NA,NA,NA,NA,NA,NA,NA,NA,NA,NA,"false,false,true,true",1,NA,NA,NA,NA,NA,NA,NA,NA
audio-instructions,39,344604,0.0-7.2-0.2,voc_e2,11778,"[{""event"":""fullscreenenter"",""trial"":1,""time"":2951}]",NA,1131.7999999523165,static/audio/instructions15.wav,NA,0,NA,NA,NA,NA,NA,NA,NA,NA,NA,NA,NA,NA,NA,NA,NA,NA,NA,NA,NA,NA,NA,NA,NA,NA,NA
audio-instructions,40,351726,0.0-7.2-1.2,voc_e2,11778,"[{""event"":""fullscreenenter"",""trial"":1,""time"":2951}]",NA,293,static/audio/instructions16.wav,NA,0,NA,NA,NA,NA,NA,NA,NA,NA,NA,NA,NA,NA,NA,NA,NA,NA,NA,NA,NA,NA,NA,NA,NA,NA,NA
audio-instructions,41,359702,0.0-7.2-2.2,voc_e2,11778,"[{""event"":""fullscreenenter"",""trial"":1,""time"":2951}]",NA,299.5,static/audio/instructions17.wav,NA,0,NA,NA,NA,NA,NA,NA,NA,NA,NA,NA,NA,NA,NA,NA,NA,NA,NA,NA,NA,NA,NA,NA,NA,NA,NA
audio-instructions,42,367740,0.0-7.2-3.2,voc_e2,11778,"[{""event"":""fullscreenenter"",""trial"":1,""time"":2951}]",NA,266.90000009536743,static/audio/instructions18.wav,NA,0,NA,NA,NA,NA,NA,NA,NA,NA,NA,NA,NA,NA,NA,NA,NA,NA,NA,NA,NA,NA,NA,NA,NA,NA,NA
audio-instructions,43,375365,0.0-7.2-4.2,voc_e2,11778,"[{""event"":""fullscreenenter"",""trial"":1,""time"":2951}]",NA,891.7999999523163,static/audio/instructions19.wav,NA,0,NA,NA,NA,NA,NA,NA,NA,NA,NA,NA,NA,NA,NA,NA,NA,NA,NA,NA,NA,NA,NA,NA,NA,NA,NA
fcp-comprehension,44,381191,0.0-7.2-5.2,voc_e2,11778,"[{""event"":""fullscreenenter"",""trial"":1,""time"":2951}]",NA,5825,NA,NA,NA,NA,NA,NA,NA,NA,NA,NA,NA,NA,NA,NA,NA,NA,NA,NA,"false,false,false,true",0,NA,NA,NA,NA,NA,NA,NA,NA
audio-instructions,45,391611,0.0-8.0,voc_e2,11778,"[{""event"":""fullscreenenter"",""trial"":1,""time"":2951}]",NA,1197.3000000715256,static/audio/ready.wav,NA,0,NA,NA,NA,NA,NA,NA,NA,NA,NA,NA,NA,NA,NA,NA,NA,NA,NA,NA,NA,NA,NA,NA,NA,NA,NA
fcp-trial,46,404113,0.0-9.0-0.0,voc_e2,11778,"[{""event"":""fullscreenenter"",""trial"":1,""time"":2951}]",NA,NA,NA,NA,NA,2,#3386FF,#D89F1C,10,10,1,38,1,8299.600000023842,37,1,2694.6999999284744,10,1,experiment,NA,NA,2,0.5,0.5,4,5,1,1,NA
fcp-trial,47,409563,0.0-10.0-0.0,voc_e2,11778,"[{""event"":""fullscreenenter"",""trial"":1,""time"":2951}]",NA,NA,NA,NA,NA,2,#1CD855,#FA92F8,0,10,0,40,0,2994.8000000715256,37,1,942.399999976158,0,0,experiment,NA,NA,0,0.1,0.9,1,0,2,1,NA
fcp-trial,48,413796,0.0-11.0-0.0,voc_e2,11778,"[{""event"":""fullscreenenter"",""trial"":1,""time"":2951}]",NA,NA,NA,NA,NA,6,#741CD8,#D8271C,0,10,0,38,1,2097,37,1,613.2999999523163,0,0,experiment,NA,NA,1,0.3,0.7,3,2,3,1,NA
fcp-trial,49,421023,0.0-12.0-0.0,voc_e2,11778,"[{""event"":""fullscreenenter"",""trial"":1,""time"":2951}]",NA,NA,NA,NA,NA,0,#FA92F8,#1CD855,10,10,1,40,0,5191.700000047684,39,0,526.2000000476837,10,0,experiment,NA,NA,0,0.9,0.1,0,1,4,1,NA
fcp-trial,50,425063,0.0-13.0-0.0,voc_e2,11778,"[{""event"":""fullscreenenter"",""trial"":1,""time"":2951}]",NA,NA,NA,NA,NA,4,#FA92F8,#1CD855,10,0,1,40,0,1437.8000000715256,39,0,1094.5,0,0,experiment,NA,NA,0,0.9,0.1,0,1,5,1,NA
fcp-trial,51,428566,0.0-14.0-0.0,voc_e2,11778,"[{""event"":""fullscreenenter"",""trial"":1,""time"":2951}]",NA,NA,NA,NA,NA,5,#D89F1C,#3386FF,0,0,0,38,1,1292.3999999761581,39,0,701.3999999761581,0,1,experiment,NA,NA,2,0.5,0.5,5,4,6,1,NA
fcp-trial,52,433447,0.0-15.0-0.0,voc_e2,11778,"[{""event"":""fullscreenenter"",""trial"":1,""time"":2951}]",NA,NA,NA,NA,NA,6,#FA92F8,#1CD855,10,0,1,38,1,1334.3999999761581,39,0,2038.3000000715256,0,0,experiment,NA,NA,0,0.9,0.1,0,1,7,1,NA
fcp-trial,53,437287,0.0-16.0-0.0,voc_e2,11778,"[{""event"":""fullscreenenter"",""trial"":1,""time"":2951}]",NA,NA,NA,NA,NA,1,#741CD8,#D8271C,10,10,0,38,1,1748.7000000476837,39,0,583.6000000238419,10,1,experiment,NA,NA,1,0.3,0.7,3,2,8,1,NA
fcp-trial,54,442031,0.0-17.0-0.0,voc_e2,11778,"[{""event"":""fullscreenenter"",""trial"":1,""time"":2951}]",NA,NA,NA,NA,NA,1,#1CD855,#FA92F8,0,10,0,38,1,1988.8999999761581,39,0,1247.600000023842,10,1,experiment,NA,NA,0,0.1,0.9,1,0,9,1,NA
fcp-trial,55,445174,0.0-18.0-0.0,voc_e2,11778,"[{""event"":""fullscreenenter"",""trial"":1,""time"":2951}]",NA,NA,NA,NA,NA,4,#3386FF,#D89F1C,10,0,1,38,1,1078.2000000476837,39,0,559.1000000238419,0,0,experiment,NA,NA,2,0.5,0.5,4,5,10,1,NA
fcp-trial,56,448854,0.0-19.0-0.0,voc_e2,11778,"[{""event"":""fullscreenenter"",""trial"":1,""time"":2951}]",NA,NA,NA,NA,NA,1,#3386FF,#D89F1C,0,10,1,38,1,1582.3999999761581,37,1,591.6000000238419,0,1,experiment,NA,NA,2,0.5,0.5,4,5,11,1,NA
fcp-trial,57,452247,0.0-20.0-0.0,voc_e2,11778,"[{""event"":""fullscreenenter"",""trial"":1,""time"":2951}]",NA,NA,NA,NA,NA,5,#1CD855,#FA92F8,0,10,0,38,1,1126.5,39,0,760.2999999523163,10,1,experiment,NA,NA,0,0.1,0.9,1,0,12,1,NA
fcp-trial,58,455191,0.0-21.0-0.0,voc_e2,11778,"[{""event"":""fullscreenenter"",""trial"":1,""time"":2951}]",NA,NA,NA,NA,NA,0,#741CD8,#D8271C,0,0,0,38,1,853.9000000953674,39,0,583.6000000238419,0,1,experiment,NA,NA,1,0.3,0.7,3,2,13,1,NA
fcp-trial,59,457790,0.0-22.0-0.0,voc_e2,11778,"[{""event"":""fullscreenenter"",""trial"":1,""time"":2951}]",NA,NA,NA,NA,NA,4,#741CD8,#D8271C,10,10,0,38,1,630.3000000715256,39,0,463.10000002384186,10,1,experiment,NA,NA,1,0.3,0.7,3,2,14,1,NA
fcp-trial,60,461303,0.0-23.0-0.0,voc_e2,11778,"[{""event"":""fullscreenenter"",""trial"":1,""time"":2951}]",NA,NA,NA,NA,NA,0,#D89F1C,#3386FF,0,0,0,38,1,806.8000000715256,39,0,1198.600000023842,0,1,experiment,NA,NA,2,0.5,0.5,5,4,15,1,NA
fcp-trial,61,464063,0.0-24.0-0.0,voc_e2,11778,"[{""event"":""fullscreenenter"",""trial"":1,""time"":2951}]",NA,NA,NA,NA,NA,3,#3386FF,#D89F1C,10,0,1,38,1,724.3999999761581,37,1,527.3999999761581,10,1,experiment,NA,NA,2,0.5,0.5,4,5,16,1,NA
fcp-trial,62,466902,0.0-25.0-0.0,voc_e2,11778,"[{""event"":""fullscreenenter"",""trial"":1,""time"":2951}]",NA,NA,NA,NA,NA,3,#FA92F8,#1CD855,10,10,1,38,1,909,37,1,423.60000002384186,10,1,experiment,NA,NA,0,0.9,0.1,0,1,17,1,NA
fcp-trial,63,472278,0.0-26.0-0.0,voc_e2,11778,"[{""event"":""fullscreenenter"",""trial"":1,""time"":2951}]",NA,NA,NA,NA,NA,2,#741CD8,#D8271C,0,10,0,38,1,997.7999999523163,39,0,2870.5,10,1,experiment,NA,NA,1,0.3,0.7,3,2,18,1,NA
fcp-trial,64,475031,0.0-27.0-0.0,voc_e2,11778,"[{""event"":""fullscreenenter"",""trial"":1,""time"":2951}]",NA,NA,NA,NA,NA,3,#D8271C,#741CD8,10,0,1,40,0,645.3999999761581,37,1,599.2999999523163,10,1,experiment,NA,NA,1,0.7,0.3,2,3,19,1,NA
fcp-trial,65,477598,0.0-28.0-0.0,voc_e2,11778,"[{""event"":""fullscreenenter"",""trial"":1,""time"":2951}]",NA,NA,NA,NA,NA,6,#D89F1C,#3386FF,10,0,0,40,0,446.10000002384186,37,1,612.8999999761581,10,0,experiment,NA,NA,2,0.5,0.5,5,4,20,1,NA
fcp-trial,66,479903,0.0-29.0-0.0,voc_e2,11778,"[{""event"":""fullscreenenter"",""trial"":1,""time"":2951}]",NA,NA,NA,NA,NA,5,#D8271C,#741CD8,0,0,1,40,0,519.1000000238419,37,1,279,0,1,experiment,NA,NA,1,0.7,0.3,2,3,21,1,NA
fcp-trial,67,482351,0.0-30.0-0.0,voc_e2,11778,"[{""event"":""fullscreenenter"",""trial"":1,""time"":2951}]",NA,NA,NA,NA,NA,1,#1CD855,#FA92F8,0,10,0,40,0,350.2000000476837,39,0,591.6000000238419,10,1,experiment,NA,NA,0,0.1,0.9,1,0,22,1,NA
fcp-trial,68,484759,0.0-31.0-0.0,voc_e2,11778,"[{""event"":""fullscreenenter"",""trial"":1,""time"":2951}]",NA,NA,NA,NA,NA,5,#D8271C,#741CD8,0,0,1,40,0,365.2000000476837,39,0,535.3999999761581,0,0,experiment,NA,NA,1,0.7,0.3,2,3,23,1,NA
fcp-trial,69,487135,0.0-32.0-0.0,voc_e2,11778,"[{""event"":""fullscreenenter"",""trial"":1,""time"":2951}]",NA,NA,NA,NA,NA,5,#FA92F8,#1CD855,10,0,1,40,0,301.8000000715256,37,1,566.6999999284744,10,1,experiment,NA,NA,0,0.9,0.1,0,1,24,1,NA
fcp-trial,70,489652,0.0-33.0-0.0,voc_e2,11778,"[{""event"":""fullscreenenter"",""trial"":1,""time"":2951}]",NA,NA,NA,NA,NA,4,#D8271C,#741CD8,10,10,1,40,0,452.8000000715256,39,0,556.8999999761581,10,0,experiment,NA,NA,1,0.7,0.3,2,3,25,1,NA
fcp-trial,71,492286,0.0-34.0-0.0,voc_e2,11778,"[{""event"":""fullscreenenter"",""trial"":1,""time"":2951}]",NA,NA,NA,NA,NA,6,#D89F1C,#3386FF,0,0,0,40,0,640,37,1,486.2999999523163,0,0,experiment,NA,NA,2,0.5,0.5,5,4,26,1,NA
fcp-trial,72,495704,0.0-35.0-0.0,voc_e2,11778,"[{""event"":""fullscreenenter"",""trial"":1,""time"":2951}]",NA,NA,NA,NA,NA,0,#D8271C,#741CD8,10,0,1,38,1,727.1000000238419,37,1,1182,10,1,experiment,NA,NA,1,0.7,0.3,2,3,27,1,NA
fcp-trial,73,498214,0.0-36.0-0.0,voc_e2,11778,"[{""event"":""fullscreenenter"",""trial"":1,""time"":2951}]",NA,NA,NA,NA,NA,5,#D89F1C,#3386FF,10,0,0,38,1,356.5,37,1,645.3999999761581,10,0,experiment,NA,NA,2,0.5,0.5,5,4,28,1,NA
fcp-trial,74,500887,0.0-37.0-0.0,voc_e2,11778,"[{""event"":""fullscreenenter"",""trial"":1,""time"":2951}]",NA,NA,NA,NA,NA,6,#FA92F8,#1CD855,10,0,1,38,1,487.5,37,1,678.1000000238419,10,1,experiment,NA,NA,0,0.9,0.1,0,1,29,1,NA
fcp-trial,75,503599,0.0-38.0-0.0,voc_e2,11778,"[{""event"":""fullscreenenter"",""trial"":1,""time"":2951}]",NA,NA,NA,NA,NA,1,#D8271C,#741CD8,10,0,1,38,1,670.2999999523163,37,1,534.2000000476837,10,1,experiment,NA,NA,1,0.7,0.3,2,3,30,1,NA
fcp-trial,76,505847,0.0-39.0-0.0,voc_e2,11778,"[{""event"":""fullscreenenter"",""trial"":1,""time"":2951}]",NA,NA,NA,NA,NA,4,#D89F1C,#3386FF,10,10,0,38,1,333.60000002384186,37,1,408.5,10,0,experiment,NA,NA,2,0.5,0.5,5,4,31,1,NA
fcp-trial,77,508478,0.0-40.0-0.0,voc_e2,11778,"[{""event"":""fullscreenenter"",""trial"":1,""time"":2951}]",NA,NA,NA,NA,NA,3,#D89F1C,#3386FF,10,10,0,38,1,590.3999999761581,37,1,534.5,10,0,experiment,NA,NA,2,0.5,0.5,5,4,32,1,NA
fcp-trial,78,512040,0.0-41.0-0.0,voc_e2,11778,"[{""event"":""fullscreenenter"",""trial"":1,""time"":2951}]",NA,NA,NA,NA,NA,0,#FA92F8,#1CD855,10,10,1,38,1,284.7999999523163,37,1,1767,10,1,experiment,NA,NA,0,0.9,0.1,0,1,33,1,NA
fcp-trial,79,514447,0.0-42.0-0.0,voc_e2,11778,"[{""event"":""fullscreenenter"",""trial"":1,""time"":2951}]",NA,NA,NA,NA,NA,2,#1CD855,#FA92F8,0,10,0,38,1,493,39,0,407.89999997615814,10,1,experiment,NA,NA,0,0.1,0.9,1,0,34,1,NA
fcp-trial,80,516879,0.0-43.0-0.0,voc_e2,11778,"[{""event"":""fullscreenenter"",""trial"":1,""time"":2951}]",NA,NA,NA,NA,NA,2,#741CD8,#D8271C,10,10,0,38,1,224.80000007152557,39,0,703,10,1,experiment,NA,NA,1,0.3,0.7,3,2,35,1,NA
fcp-trial,81,519334,0.0-44.0-0.0,voc_e2,11778,"[{""event"":""fullscreenenter"",""trial"":1,""time"":2951}]",NA,NA,NA,NA,NA,0,#3386FF,#D89F1C,10,0,1,38,1,486.7999999523163,39,0,463,0,0,experiment,NA,NA,2,0.5,0.5,4,5,36,1,NA
fcp-trial,82,522263,0.0-45.0-0.0,voc_e2,11778,"[{""event"":""fullscreenenter"",""trial"":1,""time"":2951}]",NA,NA,NA,NA,NA,3,#FA92F8,#1CD855,10,0,1,38,1,902.8999999761581,37,1,519,10,1,experiment,NA,NA,0,0.9,0.1,0,1,37,1,NA
fcp-trial,83,525191,0.0-46.0-0.0,voc_e2,11778,"[{""event"":""fullscreenenter"",""trial"":1,""time"":2951}]",NA,NA,NA,NA,NA,3,#D8271C,#741CD8,10,10,1,38,1,581.3000000715256,37,1,838.6000000238419,10,1,experiment,NA,NA,1,0.7,0.3,2,3,38,1,NA
fcp-trial,84,527839,0.0-47.0-0.0,voc_e2,11778,"[{""event"":""fullscreenenter"",""trial"":1,""time"":2951}]",NA,NA,NA,NA,NA,4,#FA92F8,#1CD855,10,0,1,38,1,605.8999999761581,37,1,535.2999999523163,10,1,experiment,NA,NA,0,0.9,0.1,0,1,39,1,NA
fcp-trial,85,530543,0.0-48.0-0.0,voc_e2,11778,"[{""event"":""fullscreenenter"",""trial"":1,""time"":2951}]",NA,NA,NA,NA,NA,2,#3386FF,#D89F1C,10,0,1,38,1,583,39,0,615.6000000238419,0,0,experiment,NA,NA,2,0.5,0.5,4,5,40,1,NA
fcp-trial,86,533638,0.0-49.0-0.0,voc_e2,11778,"[{""event"":""fullscreenenter"",""trial"":1,""time"":2951}]",NA,NA,NA,NA,NA,6,#D8271C,#741CD8,10,0,1,38,1,731.5,37,1,854.5,10,1,experiment,NA,NA,1,0.7,0.3,2,3,41,1,NA
fcp-trial,87,536047,0.0-50.0-0.0,voc_e2,11778,"[{""event"":""fullscreenenter"",""trial"":1,""time"":2951}]",NA,NA,NA,NA,NA,1,#3386FF,#D89F1C,10,0,1,38,1,510.5,37,1,392.10000002384186,10,1,experiment,NA,NA,2,0.5,0.5,4,5,42,1,NA
fcp-trial,88,538631,0.0-51.0-0.0,voc_e2,11778,"[{""event"":""fullscreenenter"",""trial"":1,""time"":2951}]",NA,NA,NA,NA,NA,3,#3386FF,#D89F1C,0,0,1,38,1,566.2999999523163,37,1,511,0,1,experiment,NA,NA,2,0.5,0.5,4,5,43,1,NA
fcp-trial,89,542143,0.0-52.0-0.0,voc_e2,11778,"[{""event"":""fullscreenenter"",""trial"":1,""time"":2951}]",NA,NA,NA,NA,NA,5,#1CD855,#FA92F8,0,10,0,38,1,901.6000000238419,39,0,1102.899999976158,10,1,experiment,NA,NA,0,0.1,0.9,1,0,44,1,NA
fcp-trial,90,545017,0.0-53.0-0.0,voc_e2,11778,"[{""event"":""fullscreenenter"",""trial"":1,""time"":2951}]",NA,NA,NA,NA,NA,6,#D8271C,#741CD8,10,10,1,38,1,801.6000000238419,37,1,558.1000000238419,10,1,experiment,NA,NA,1,0.7,0.3,2,3,45,1,NA
fcp-trial,91,548287,0.0-54.0-0.0,voc_e2,11778,"[{""event"":""fullscreenenter"",""trial"":1,""time"":2951}]",NA,NA,NA,NA,NA,5,#D89F1C,#3386FF,0,0,0,38,1,947.0999999046326,39,0,815,0,1,experiment,NA,NA,2,0.5,0.5,5,4,46,2,NA
fcp-trial,92,552551,0.0-55.0-0.0,voc_e2,11778,"[{""event"":""fullscreenenter"",""trial"":1,""time"":2951}]",NA,NA,NA,NA,NA,0,#D8271C,#741CD8,10,10,1,38,1,1173.2999999523163,39,0,1583,10,0,experiment,NA,NA,1,0.7,0.3,2,3,47,2,NA
fcp-trial,93,555543,0.0-56.0-0.0,voc_e2,11778,"[{""event"":""fullscreenenter"",""trial"":1,""time"":2951}]",NA,NA,NA,NA,NA,1,#FA92F8,#1CD855,10,0,1,38,1,815.8999999761581,37,1,670.7999999523163,10,1,experiment,NA,NA,0,0.9,0.1,0,1,48,2,NA
fcp-trial,94,558311,0.0-57.0-0.0,voc_e2,11778,"[{""event"":""fullscreenenter"",""trial"":1,""time"":2951}]",NA,NA,NA,NA,NA,0,#FA92F8,#1CD855,10,0,1,38,1,788.5,37,1,470.89999997615814,10,1,experiment,NA,NA,0,0.9,0.1,0,1,49,2,NA
fcp-trial,95,561280,0.0-58.0-0.0,voc_e2,11778,"[{""event"":""fullscreenenter"",""trial"":1,""time"":2951}]",NA,NA,NA,NA,NA,4,#3386FF,#D89F1C,0,0,1,38,1,552.7999999523163,37,1,904.100000023842,0,1,experiment,NA,NA,2,0.5,0.5,4,5,50,2,NA
fcp-trial,96,565223,0.0-59.0-0.0,voc_e2,11778,"[{""event"":""fullscreenenter"",""trial"":1,""time"":2951}]",NA,NA,NA,NA,NA,6,#1CD855,#FA92F8,0,10,0,38,1,620.6000000238419,39,0,1815,10,1,experiment,NA,NA,0,0.1,0.9,1,0,51,2,NA
fcp-trial,97,567991,0.0-60.0-0.0,voc_e2,11778,"[{""event"":""fullscreenenter"",""trial"":1,""time"":2951}]",NA,NA,NA,NA,NA,5,#D8271C,#741CD8,0,0,1,38,1,782.5,37,1,478.89999997615814,0,1,experiment,NA,NA,1,0.7,0.3,2,3,52,2,NA
fcp-trial,98,570815,0.0-61.0-0.0,voc_e2,11778,"[{""event"":""fullscreenenter"",""trial"":1,""time"":2951}]",NA,NA,NA,NA,NA,2,#3386FF,#D89F1C,10,0,1,38,1,870.0999999046326,39,0,446.39999997615814,0,0,experiment,NA,NA,2,0.5,0.5,4,5,53,2,NA
fcp-trial,99,573264,0.0-62.0-0.0,voc_e2,11778,"[{""event"":""fullscreenenter"",""trial"":1,""time"":2951}]",NA,NA,NA,NA,NA,3,#FA92F8,#1CD855,10,0,1,38,1,573,37,1,368.7999999523163,10,1,experiment,NA,NA,0,0.9,0.1,0,1,54,2,NA
fcp-trial,100,575630,0.0-63.0-0.0,voc_e2,11778,"[{""event"":""fullscreenenter"",""trial"":1,""time"":2951}]",NA,NA,NA,NA,NA,1,#741CD8,#D8271C,10,10,0,38,1,493.7999999523163,39,0,365.7000000476837,10,1,experiment,NA,NA,1,0.3,0.7,3,2,55,2,NA
fcp-trial,101,578671,0.0-64.0-0.0,voc_e2,11778,"[{""event"":""fullscreenenter"",""trial"":1,""time"":2951}]",NA,NA,NA,NA,NA,1,#D89F1C,#3386FF,10,0,0,38,1,677.8999999761581,37,1,854.7000000476837,10,0,experiment,NA,NA,2,0.5,0.5,5,4,56,2,NA
fcp-trial,102,581127,0.0-65.0-0.0,voc_e2,11778,"[{""event"":""fullscreenenter"",""trial"":1,""time"":2951}]",NA,NA,NA,NA,NA,0,#D89F1C,#3386FF,0,10,0,38,1,470,37,1,478.7000000476837,0,0,experiment,NA,NA,2,0.5,0.5,5,4,57,2,NA
fcp-trial,103,584864,0.0-66.0-0.0,voc_e2,11778,"[{""event"":""fullscreenenter"",""trial"":1,""time"":2951}]",NA,NA,NA,NA,NA,2,#FA92F8,#1CD855,10,0,1,38,1,348.40000009536743,39,0,1880.0999999046328,0,0,experiment,NA,NA,0,0.9,0.1,0,1,58,2,NA
fcp-trial,104,588791,0.0-67.0-0.0,voc_e2,11778,"[{""event"":""fullscreenenter"",""trial"":1,""time"":2951}]",NA,NA,NA,NA,NA,3,#D8271C,#741CD8,10,10,1,38,1,461,37,1,1959.5,10,1,experiment,NA,NA,1,0.7,0.3,2,3,59,2,NA
fcp-trial,105,591382,0.0-68.0-0.0,voc_e2,11778,"[{""event"":""fullscreenenter"",""trial"":1,""time"":2951}]",NA,NA,NA,NA,NA,2,#D8271C,#741CD8,0,0,1,38,1,566.3000000715256,37,1,518.8999999761581,0,1,experiment,NA,NA,1,0.7,0.3,2,3,60,2,NA
fcp-trial,106,593935,0.0-69.0-0.0,voc_e2,11778,"[{""event"":""fullscreenenter"",""trial"":1,""time"":2951}]",NA,NA,NA,NA,NA,6,#D89F1C,#3386FF,0,10,0,40,0,462.6999999284744,39,0,582.6000000238419,10,1,experiment,NA,NA,2,0.5,0.5,5,4,61,2,NA
fcp-trial,107,596359,0.0-70.0-0.0,voc_e2,11778,"[{""event"":""fullscreenenter"",""trial"":1,""time"":2951}]",NA,NA,NA,NA,NA,4,#741CD8,#D8271C,0,10,0,40,0,189.69999992847443,39,0,726.6000000238419,10,1,experiment,NA,NA,1,0.3,0.7,3,2,62,2,NA
fcp-trial,108,598527,0.0-71.0-0.0,voc_e2,11778,"[{""event"":""fullscreenenter"",""trial"":1,""time"":2951}]",NA,NA,NA,NA,NA,4,#FA92F8,#1CD855,10,0,1,40,0,262.2999999523163,39,0,398.7999999523163,0,0,experiment,NA,NA,0,0.9,0.1,0,1,63,2,NA
fcp-trial,109,601321,0.0-72.0-0.0,voc_e2,11778,"[{""event"":""fullscreenenter"",""trial"":1,""time"":2951}]",NA,NA,NA,NA,NA,6,#D8271C,#741CD8,10,0,1,38,1,523.2999999523163,37,1,761,10,1,experiment,NA,NA,1,0.7,0.3,2,3,64,2,NA
fcp-trial,110,605454,0.0-73.0-0.0,voc_e2,11778,"[{""event"":""fullscreenenter"",""trial"":1,""time"":2951}]",NA,NA,NA,NA,NA,2,#D8271C,#741CD8,0,10,1,38,1,2259.100000023842,37,1,366.6999999284744,0,1,experiment,NA,NA,1,0.7,0.3,2,3,65,2,NA
fcp-trial,111,607791,0.0-74.0-0.0,voc_e2,11778,"[{""event"":""fullscreenenter"",""trial"":1,""time"":2951}]",NA,NA,NA,NA,NA,4,#1CD855,#FA92F8,0,10,0,38,1,326.8000000715256,39,0,502.5,10,1,experiment,NA,NA,0,0.1,0.9,1,0,66,2,NA
fcp-trial,112,610023,0.0-75.0-0.0,voc_e2,11778,"[{""event"":""fullscreenenter"",""trial"":1,""time"":2951}]",NA,NA,NA,NA,NA,0,#1CD855,#FA92F8,0,10,0,38,1,331.60000002384186,39,0,391.60000002384186,10,1,experiment,NA,NA,0,0.1,0.9,1,0,67,2,NA
fcp-trial,113,612375,0.0-76.0-0.0,voc_e2,11778,"[{""event"":""fullscreenenter"",""trial"":1,""time"":2951}]",NA,NA,NA,NA,NA,0,#D89F1C,#3386FF,0,10,0,38,1,318.39999997615814,37,1,526.8999999761581,0,0,experiment,NA,NA,2,0.5,0.5,5,4,68,2,NA
fcp-trial,114,614614,0.0-77.0-0.0,voc_e2,11778,"[{""event"":""fullscreenenter"",""trial"":1,""time"":2951}]",NA,NA,NA,NA,NA,4,#D8271C,#741CD8,10,0,1,38,1,218.60000002384186,39,0,511,0,0,experiment,NA,NA,1,0.7,0.3,2,3,69,2,NA
fcp-trial,115,616974,0.0-78.0-0.0,voc_e2,11778,"[{""event"":""fullscreenenter"",""trial"":1,""time"":2951}]",NA,NA,NA,NA,NA,1,#FA92F8,#1CD855,10,0,1,38,1,286.39999997615814,37,1,566.5999999046326,10,1,experiment,NA,NA,0,0.9,0.1,0,1,70,2,NA
fcp-trial,116,619295,0.0-79.0-0.0,voc_e2,11778,"[{""event"":""fullscreenenter"",""trial"":1,""time"":2951}]",NA,NA,NA,NA,NA,1,#D8271C,#741CD8,10,0,1,38,1,278.60000002384186,37,1,533.8999999761581,10,1,experiment,NA,NA,1,0.7,0.3,2,3,71,2,NA
fcp-trial,117,621582,0.0-80.0-0.0,voc_e2,11778,"[{""event"":""fullscreenenter"",""trial"":1,""time"":2951}]",NA,NA,NA,NA,NA,3,#FA92F8,#1CD855,10,0,1,38,1,245.60000002384186,37,1,534.3999999761581,10,1,experiment,NA,NA,0,0.9,0.1,0,1,72,2,NA
fcp-trial,118,624351,0.0-81.0-0.0,voc_e2,11778,"[{""event"":""fullscreenenter"",""trial"":1,""time"":2951}]",NA,NA,NA,NA,NA,4,#D89F1C,#3386FF,0,10,0,38,1,391.60000002384186,37,1,868.7999999523163,0,0,experiment,NA,NA,2,0.5,0.5,5,4,73,2,NA
fcp-trial,119,627199,0.0-82.0-0.0,voc_e2,11778,"[{""event"":""fullscreenenter"",""trial"":1,""time"":2951}]",NA,NA,NA,NA,NA,3,#D8271C,#741CD8,10,10,1,38,1,317.5,37,1,1022.399999976158,10,1,experiment,NA,NA,1,0.7,0.3,2,3,74,2,NA
fcp-trial,120,630047,0.0-83.0-0.0,voc_e2,11778,"[{""event"":""fullscreenenter"",""trial"":1,""time"":2951}]",NA,NA,NA,NA,NA,2,#3386FF,#D89F1C,10,0,1,38,1,342.09999990463257,37,1,999.100000023842,10,1,experiment,NA,NA,2,0.5,0.5,4,5,75,2,NA
fcp-trial,121,632519,0.0-84.0-0.0,voc_e2,11778,"[{""event"":""fullscreenenter"",""trial"":1,""time"":2951}]",NA,NA,NA,NA,NA,5,#1CD855,#FA92F8,0,10,0,38,1,430.60000002384186,39,0,534.6000000238419,10,1,experiment,NA,NA,0,0.1,0.9,1,0,76,2,NA
fcp-trial,122,634951,0.0-85.0-0.0,voc_e2,11778,"[{""event"":""fullscreenenter"",""trial"":1,""time"":2951}]",NA,NA,NA,NA,NA,5,#3386FF,#D89F1C,10,10,1,38,1,366.39999997615814,37,1,558.5999999046326,10,1,experiment,NA,NA,2,0.5,0.5,4,5,77,2,NA
fcp-trial,123,637631,0.0-86.0-0.0,voc_e2,11778,"[{""event"":""fullscreenenter"",""trial"":1,""time"":2951}]",NA,NA,NA,NA,NA,2,#1CD855,#FA92F8,0,10,0,38,1,646,39,0,527.6000000238419,10,1,experiment,NA,NA,0,0.1,0.9,1,0,78,2,NA
fcp-trial,124,640687,0.0-87.0-0.0,voc_e2,11778,"[{""event"":""fullscreenenter"",""trial"":1,""time"":2951}]",NA,NA,NA,NA,NA,0,#D8271C,#741CD8,0,0,1,38,1,453.39999997615814,39,0,1095.2000000476835,0,0,experiment,NA,NA,1,0.7,0.3,2,3,79,2,NA
fcp-trial,125,643247,0.0-88.0-0.0,voc_e2,11778,"[{""event"":""fullscreenenter"",""trial"":1,""time"":2951}]",NA,NA,NA,NA,NA,1,#D89F1C,#3386FF,0,0,0,38,1,367.10000002384186,39,0,687.6000000238419,0,1,experiment,NA,NA,2,0.5,0.5,5,4,80,2,NA
fcp-trial,126,646447,0.0-89.0-0.0,voc_e2,11778,"[{""event"":""fullscreenenter"",""trial"":1,""time"":2951}]",NA,NA,NA,NA,NA,5,#741CD8,#D8271C,10,10,0,38,1,781.7000000476837,37,1,911.7000000476836,10,0,experiment,NA,NA,1,0.3,0.7,3,2,81,2,NA
fcp-trial,127,649454,0.0-90.0-0.0,voc_e2,11778,"[{""event"":""fullscreenenter"",""trial"":1,""time"":2951}]",NA,NA,NA,NA,NA,6,#D89F1C,#3386FF,0,10,0,38,1,622.1000000238419,39,0,878.3999999761581,10,1,experiment,NA,NA,2,0.5,0.5,5,4,82,2,NA
fcp-trial,128,652591,0.0-91.0-0.0,voc_e2,11778,"[{""event"":""fullscreenenter"",""trial"":1,""time"":2951}]",NA,NA,NA,NA,NA,6,#FA92F8,#1CD855,10,0,1,38,1,1054.3999999761581,37,1,562.6999999284744,10,1,experiment,NA,NA,0,0.9,0.1,0,1,83,2,NA
fcp-trial,129,655831,0.0-92.0-0.0,voc_e2,11778,"[{""event"":""fullscreenenter"",""trial"":1,""time"":2951}]",NA,NA,NA,NA,NA,3,#3386FF,#D89F1C,10,10,1,38,1,1317.5,37,1,414.39999997615814,10,1,experiment,NA,NA,2,0.5,0.5,4,5,84,2,NA
fcp-trial,130,658751,0.0-93.0-0.0,voc_e2,11778,"[{""event"":""fullscreenenter"",""trial"":1,""time"":2951}]",NA,NA,NA,NA,NA,1,#D89F1C,#3386FF,0,10,0,38,1,896.3000000715256,39,0,518.8000000715256,10,1,experiment,NA,NA,2,0.5,0.5,5,4,85,2,NA
fcp-trial,131,661727,0.0-94.0-0.0,voc_e2,11778,"[{""event"":""fullscreenenter"",""trial"":1,""time"":2951}]",NA,NA,NA,NA,NA,6,#741CD8,#D8271C,0,10,0,38,1,1125.7999999523163,37,1,343.3000000715256,0,0,experiment,NA,NA,1,0.3,0.7,3,2,86,2,NA
fcp-trial,132,664150,0.0-95.0-0.0,voc_e2,11778,"[{""event"":""fullscreenenter"",""trial"":1,""time"":2951}]",NA,NA,NA,NA,NA,6,#FA92F8,#1CD855,10,0,1,38,1,563.1000000238419,37,1,350.7000000476837,10,1,experiment,NA,NA,0,0.9,0.1,0,1,87,2,NA
fcp-trial,133,666655,0.0-96.0-0.0,voc_e2,11778,"[{""event"":""fullscreenenter"",""trial"":1,""time"":2951}]",NA,NA,NA,NA,NA,0,#D8271C,#741CD8,10,10,1,38,1,518.9000000953674,37,1,478,10,1,experiment,NA,NA,1,0.7,0.3,2,3,88,2,NA
fcp-trial,134,669582,0.0-97.0-0.0,voc_e2,11778,"[{""event"":""fullscreenenter"",""trial"":1,""time"":2951}]",NA,NA,NA,NA,NA,3,#3386FF,#D89F1C,0,0,1,38,1,598,37,1,822.7999999523163,0,1,experiment,NA,NA,2,0.5,0.5,4,5,89,2,NA
fcp-trial,135,673184,0.0-98.0-0.0,voc_e2,11778,"[{""event"":""fullscreenenter"",""trial"":1,""time"":2951}]",NA,NA,NA,NA,NA,5,#D8271C,#741CD8,10,0,1,38,1,1079.5999999046326,37,1,1015.399999976158,10,1,experiment,NA,NA,1,0.7,0.3,2,3,90,2,NA
fcp-trial,136,676264,0.0-99.0-0.0,voc_e2,11778,"[{""event"":""fullscreenenter"",""trial"":1,""time"":2951}]",NA,NA,NA,NA,NA,3,#FA92F8,#1CD855,0,0,1,38,1,557.2000000476837,37,1,1016.3000000715256,0,1,experiment,NA,NA,0,0.9,0.1,0,1,91,3,NA
fcp-trial,137,678654,0.0-100.0-0.0,voc_e2,11778,"[{""event"":""fullscreenenter"",""trial"":1,""time"":2951}]",NA,NA,NA,NA,NA,4,#FA92F8,#1CD855,0,0,1,38,1,437.39999997615814,37,1,446.1999999284744,0,1,experiment,NA,NA,0,0.9,0.1,0,1,92,3,NA
fcp-trial,138,681247,0.0-101.0-0.0,voc_e2,11778,"[{""event"":""fullscreenenter"",""trial"":1,""time"":2951}]",NA,NA,NA,NA,NA,0,#3386FF,#D89F1C,10,0,1,40,0,433.2000000476837,39,0,654.6000000238419,0,0,experiment,NA,NA,2,0.5,0.5,4,5,93,3,NA
fcp-trial,139,683487,0.0-102.0-0.0,voc_e2,11778,"[{""event"":""fullscreenenter"",""trial"":1,""time"":2951}]",NA,NA,NA,NA,NA,4,#741CD8,#D8271C,10,10,0,40,0,294.10000002384186,39,0,437.7999999523163,10,1,experiment,NA,NA,1,0.3,0.7,3,2,94,3,NA
fcp-trial,140,686127,0.0-103.0-0.0,voc_e2,11778,"[{""event"":""fullscreenenter"",""trial"":1,""time"":2951}]",NA,NA,NA,NA,NA,0,#FA92F8,#1CD855,0,0,1,40,0,190.80000007152557,37,1,943,0,1,experiment,NA,NA,0,0.9,0.1,0,1,95,3,NA
fcp-trial,141,688039,0.0-104.0-0.0,voc_e2,11778,"[{""event"":""fullscreenenter"",""trial"":1,""time"":2951}]",NA,NA,NA,NA,NA,4,#D89F1C,#3386FF,0,10,0,40,0,20.40000009536743,39,0,383.2999999523163,10,1,experiment,NA,NA,2,0.5,0.5,5,4,96,3,NA
fcp-trial,142,690079,0.0-105.0-0.0,voc_e2,11778,"[{""event"":""fullscreenenter"",""trial"":1,""time"":2951}]",NA,NA,NA,NA,NA,5,#3386FF,#D89F1C,10,0,1,40,0,53.39999997615814,37,1,480.3000000715256,10,1,experiment,NA,NA,2,0.5,0.5,4,5,97,3,NA
fcp-trial,143,692199,0.0-106.0-0.0,voc_e2,11778,"[{""event"":""fullscreenenter"",""trial"":1,""time"":2951}]",NA,NA,NA,NA,NA,1,#741CD8,#D8271C,0,0,0,40,0,85.80000007152557,37,1,521.1000000238419,0,0,experiment,NA,NA,1,0.3,0.7,3,2,98,3,NA
fcp-trial,144,694039,0.0-107.0-0.0,voc_e2,11778,"[{""event"":""fullscreenenter"",""trial"":1,""time"":2951}]",NA,NA,NA,NA,NA,5,#1CD855,#FA92F8,0,10,0,38,1,69.70000004768372,39,0,263,10,1,experiment,NA,NA,0,0.1,0.9,1,0,99,3,NA
fcp-trial,145,696110,0.0-108.0-0.0,voc_e2,11778,"[{""event"":""fullscreenenter"",""trial"":1,""time"":2951}]",NA,NA,NA,NA,NA,2,#3386FF,#D89F1C,10,0,1,38,1,139.39999997615814,37,1,422.5,10,1,experiment,NA,NA,2,0.5,0.5,4,5,100,3,NA
fcp-trial,146,698239,0.0-109.0-0.0,voc_e2,11778,"[{""event"":""fullscreenenter"",""trial"":1,""time"":2951}]",NA,NA,NA,NA,NA,3,#741CD8,#D8271C,0,10,0,38,1,188,37,1,430.60000002384186,0,0,experiment,NA,NA,1,0.3,0.7,3,2,101,3,NA
fcp-trial,147,700751,0.0-110.0-0.0,voc_e2,11778,"[{""event"":""fullscreenenter"",""trial"":1,""time"":2951}]",NA,NA,NA,NA,NA,2,#D8271C,#741CD8,10,10,1,38,1,533.6999999284744,37,1,471.2000000476837,10,1,experiment,NA,NA,1,0.7,0.3,2,3,102,3,NA
fcp-trial,148,704887,0.0-111.0-0.0,voc_e2,11778,"[{""event"":""fullscreenenter"",""trial"":1,""time"":2951}]",NA,NA,NA,NA,NA,1,#FA92F8,#1CD855,10,10,1,38,1,1389.6000000238419,39,0,1239.2000000476835,10,0,experiment,NA,NA,0,0.9,0.1,0,1,103,3,NA
fcp-trial,149,707512,0.0-112.0-0.0,voc_e2,11778,"[{""event"":""fullscreenenter"",""trial"":1,""time"":2951}]",NA,NA,NA,NA,NA,2,#1CD855,#FA92F8,0,10,0,38,1,615,39,0,502.60000002384186,10,1,experiment,NA,NA,0,0.1,0.9,1,0,104,3,NA
fcp-trial,150,710703,0.0-113.0-0.0,voc_e2,11778,"[{""event"":""fullscreenenter"",""trial"":1,""time"":2951}]",NA,NA,NA,NA,NA,6,#D89F1C,#3386FF,10,0,0,38,1,781.6999999284744,37,1,902.2000000476836,10,0,experiment,NA,NA,2,0.5,0.5,5,4,105,3,NA
audio-instructions,151,783720,0.0-114.0,voc_e2,11778,"[{""event"":""fullscreenenter"",""trial"":1,""time"":2951}]",NA,68537.60000002384,static/audio/pause.wav,NA,0,NA,NA,NA,NA,NA,NA,NA,NA,NA,NA,NA,NA,NA,NA,NA,NA,NA,NA,NA,NA,NA,NA,NA,NA,NA
fcp-trial,152,789039,0.0-115.0-0.0,voc_e2,11778,"[{""event"":""fullscreenenter"",""trial"":1,""time"":2951}]",NA,NA,NA,NA,NA,3,#D89F1C,#3386FF,0,0,0,40,0,3189.5,39,0,621.6999999284744,0,1,experiment,NA,NA,2,0.5,0.5,5,4,106,3,NA
fcp-trial,153,792296,0.0-116.0-0.0,voc_e2,11778,"[{""event"":""fullscreenenter"",""trial"":1,""time"":2951}]",NA,NA,NA,NA,NA,6,#1CD855,#FA92F8,0,10,0,38,1,1374.3999999761581,39,0,376.5,10,1,experiment,NA,NA,0,0.1,0.9,1,0,107,3,NA
fcp-trial,154,794648,0.0-117.0-0.0,voc_e2,11778,"[{""event"":""fullscreenenter"",""trial"":1,""time"":2951}]",NA,NA,NA,NA,NA,0,#1CD855,#FA92F8,0,0,0,38,1,372.60000002384186,39,0,471.60000002384186,0,1,experiment,NA,NA,0,0.1,0.9,1,0,108,3,NA
fcp-trial,155,797279,0.0-118.0-0.0,voc_e2,11778,"[{""event"":""fullscreenenter"",""trial"":1,""time"":2951}]",NA,NA,NA,NA,NA,1,#1CD855,#FA92F8,0,0,0,38,1,621.3999999761581,39,0,502.89999997615814,0,1,experiment,NA,NA,0,0.1,0.9,1,0,109,3,NA
fcp-trial,156,799919,0.0-119.0-0.0,voc_e2,11778,"[{""event"":""fullscreenenter"",""trial"":1,""time"":2951}]",NA,NA,NA,NA,NA,0,#741CD8,#D8271C,0,10,0,38,1,565.7000000476837,39,0,567,10,1,experiment,NA,NA,1,0.3,0.7,3,2,110,3,NA
fcp-trial,157,802488,0.0-120.0-0.0,voc_e2,11778,"[{""event"":""fullscreenenter"",""trial"":1,""time"":2951}]",NA,NA,NA,NA,NA,1,#3386FF,#D89F1C,0,10,1,38,1,326.2999999523163,37,1,734.6999999284744,0,1,experiment,NA,NA,2,0.5,0.5,4,5,111,3,NA
fcp-trial,158,804839,0.0-121.0-0.0,voc_e2,11778,"[{""event"":""fullscreenenter"",""trial"":1,""time"":2951}]",NA,NA,NA,NA,NA,6,#3386FF,#D89F1C,10,0,1,38,1,509.1999999284744,37,1,334.2999999523163,10,1,experiment,NA,NA,2,0.5,0.5,4,5,112,3,NA
fcp-trial,159,808630,0.0-122.0-0.0,voc_e2,11778,"[{""event"":""fullscreenenter"",""trial"":1,""time"":2951}]",NA,NA,NA,NA,NA,1,#D8271C,#741CD8,10,10,1,38,1,677.5,37,1,1606.4000000953674,10,1,experiment,NA,NA,1,0.7,0.3,2,3,113,3,NA
fcp-trial,160,811031,0.0-123.0-0.0,voc_e2,11778,"[{""event"":""fullscreenenter"",""trial"":1,""time"":2951}]",NA,NA,NA,NA,NA,2,#FA92F8,#1CD855,10,0,1,38,1,518.8999999761581,37,1,374.8000000715256,10,1,experiment,NA,NA,0,0.9,0.1,0,1,114,3,NA
fcp-trial,161,813792,0.0-124.0-0.0,voc_e2,11778,"[{""event"":""fullscreenenter"",""trial"":1,""time"":2951}]",NA,NA,NA,NA,NA,2,#D89F1C,#3386FF,0,0,0,38,1,885.7999999523163,39,0,366.1999999284744,0,1,experiment,NA,NA,2,0.5,0.5,5,4,115,3,NA
fcp-trial,162,816278,0.0-125.0-0.0,voc_e2,11778,"[{""event"":""fullscreenenter"",""trial"":1,""time"":2951}]",NA,NA,NA,NA,NA,4,#FA92F8,#1CD855,10,10,1,38,1,546.7000000476837,37,1,430.7999999523163,10,1,experiment,NA,NA,0,0.9,0.1,0,1,116,3,NA
fcp-trial,163,818552,0.0-126.0-0.0,voc_e2,11778,"[{""event"":""fullscreenenter"",""trial"":1,""time"":2951}]",NA,NA,NA,NA,NA,4,#3386FF,#D89F1C,0,0,1,38,1,414.7000000476837,37,1,351.10000002384186,0,1,experiment,NA,NA,2,0.5,0.5,4,5,117,3,NA
fcp-trial,164,821336,0.0-127.0-0.0,voc_e2,11778,"[{""event"":""fullscreenenter"",""trial"":1,""time"":2951}]",NA,NA,NA,NA,NA,2,#D8271C,#741CD8,0,10,1,38,1,892.6999999284744,39,0,383.2000000476837,10,0,experiment,NA,NA,1,0.7,0.3,2,3,118,3,NA
fcp-trial,165,823999,0.0-128.0-0.0,voc_e2,11778,"[{""event"":""fullscreenenter"",""trial"":1,""time"":2951}]",NA,NA,NA,NA,NA,5,#741CD8,#D8271C,0,10,0,38,1,589.1000000238419,37,1,566.7999999523163,0,0,experiment,NA,NA,1,0.3,0.7,3,2,119,3,NA
fcp-trial,166,826688,0.0-129.0-0.0,voc_e2,11778,"[{""event"":""fullscreenenter"",""trial"":1,""time"":2951}]",NA,NA,NA,NA,NA,4,#D8271C,#741CD8,0,0,1,38,1,574.7999999523163,39,0,606.8999999761581,0,0,experiment,NA,NA,1,0.7,0.3,2,3,120,3,NA
fcp-trial,167,829343,0.0-130.0-0.0,voc_e2,11778,"[{""event"":""fullscreenenter"",""trial"":1,""time"":2951}]",NA,NA,NA,NA,NA,3,#FA92F8,#1CD855,10,0,1,38,1,479.39999997615814,37,1,671,10,1,experiment,NA,NA,0,0.9,0.1,0,1,121,3,NA
fcp-trial,168,831895,0.0-131.0-0.0,voc_e2,11778,"[{""event"":""fullscreenenter"",""trial"":1,""time"":2951}]",NA,NA,NA,NA,NA,0,#3386FF,#D89F1C,10,0,1,38,1,651.5,37,1,391.89999997615814,10,1,experiment,NA,NA,2,0.5,0.5,4,5,122,3,NA
fcp-trial,169,834464,0.0-132.0-0.0,voc_e2,11778,"[{""event"":""fullscreenenter"",""trial"":1,""time"":2951}]",NA,NA,NA,NA,NA,5,#3386FF,#D89F1C,10,0,1,38,1,645.7999999523163,37,1,414.1999999284744,10,1,experiment,NA,NA,2,0.5,0.5,4,5,123,3,NA
fcp-trial,170,837191,0.0-133.0-0.0,voc_e2,11778,"[{""event"":""fullscreenenter"",""trial"":1,""time"":2951}]",NA,NA,NA,NA,NA,3,#D8271C,#741CD8,10,10,1,38,1,499.10000002384186,39,0,717.5,10,0,experiment,NA,NA,1,0.7,0.3,2,3,124,3,NA
fcp-trial,171,839831,0.0-134.0-0.0,voc_e2,11778,"[{""event"":""fullscreenenter"",""trial"":1,""time"":2951}]",NA,NA,NA,NA,NA,5,#1CD855,#FA92F8,0,10,0,38,1,597.3000000715256,39,0,534.3000000715256,10,1,experiment,NA,NA,0,0.1,0.9,1,0,125,3,NA
fcp-trial,172,842423,0.0-135.0-0.0,voc_e2,11778,"[{""event"":""fullscreenenter"",""trial"":1,""time"":2951}]",NA,NA,NA,NA,NA,6,#741CD8,#D8271C,0,10,0,38,1,670.8999999761581,37,1,415.60000002384186,0,0,experiment,NA,NA,1,0.3,0.7,3,2,126,3,NA
fcp-trial,173,845783,0.0-136.0-0.0,voc_e2,11778,"[{""event"":""fullscreenenter"",""trial"":1,""time"":2951}]",NA,NA,NA,NA,NA,1,#3386FF,#D89F1C,10,0,1,38,1,599.1000000238419,39,0,1255.1999999284744,0,0,experiment,NA,NA,2,0.5,0.5,4,5,127,3,NA
fcp-trial,174,848591,0.0-137.0-0.0,voc_e2,11778,"[{""event"":""fullscreenenter"",""trial"":1,""time"":2951}]",NA,NA,NA,NA,NA,2,#1CD855,#FA92F8,0,10,0,38,1,734.0999999046326,37,1,567,0,0,experiment,NA,NA,0,0.1,0.9,1,0,128,3,NA
fcp-trial,175,851597,0.0-138.0-0.0,voc_e2,11778,"[{""event"":""fullscreenenter"",""trial"":1,""time"":2951}]",NA,NA,NA,NA,NA,0,#D89F1C,#3386FF,10,10,0,38,1,491.89999997615814,37,1,1004.8000000715256,10,0,experiment,NA,NA,2,0.5,0.5,5,4,129,3,NA
fcp-trial,176,854088,0.0-139.0-0.0,voc_e2,11778,"[{""event"":""fullscreenenter"",""trial"":1,""time"":2951}]",NA,NA,NA,NA,NA,3,#3386FF,#D89F1C,0,10,1,40,0,374.8000000715256,39,0,607.8999999761581,10,0,experiment,NA,NA,2,0.5,0.5,4,5,130,3,NA
fcp-trial,177,856480,0.0-140.0-0.0,voc_e2,11778,"[{""event"":""fullscreenenter"",""trial"":1,""time"":2951}]",NA,NA,NA,NA,NA,3,#D8271C,#741CD8,10,0,1,40,0,311.5,39,0,574.8999999761581,0,0,experiment,NA,NA,1,0.7,0.3,2,3,131,3,NA
fcp-trial,178,858799,0.0-141.0-0.0,voc_e2,11778,"[{""event"":""fullscreenenter"",""trial"":1,""time"":2951}]",NA,NA,NA,NA,NA,4,#3386FF,#D89F1C,0,0,1,40,0,269,39,0,543.2999999523163,0,0,experiment,NA,NA,2,0.5,0.5,4,5,132,3,NA
fcp-trial,179,861704,0.0-142.0-0.0,voc_e2,11778,"[{""event"":""fullscreenenter"",""trial"":1,""time"":2951}]",NA,NA,NA,NA,NA,0,#1CD855,#FA92F8,0,10,0,38,1,894.1999999284744,39,0,503.2000000476837,10,1,experiment,NA,NA,0,0.1,0.9,1,0,133,3,NA
fcp-trial,180,864599,0.0-143.0-0.0,voc_e2,11778,"[{""event"":""fullscreenenter"",""trial"":1,""time"":2951}]",NA,NA,NA,NA,NA,5,#FA92F8,#1CD855,10,0,1,38,1,765.0999999046326,37,1,623.2999999523163,10,1,experiment,NA,NA,0,0.9,0.1,0,1,134,3,NA
fcp-trial,181,867767,0.0-144.0-0.0,voc_e2,11778,"[{""event"":""fullscreenenter"",""trial"":1,""time"":2951}]",NA,NA,NA,NA,NA,2,#741CD8,#D8271C,0,10,0,38,1,1334.1000000238419,37,1,326.60000002384186,0,0,experiment,NA,NA,1,0.3,0.7,3,2,135,3,NA
fcp-trial,182,872599,0.0-145.0-0.0,voc_e2,11778,"[{""event"":""fullscreenenter"",""trial"":1,""time"":2951}]",NA,NA,NA,NA,NA,0,#D8271C,#741CD8,10,0,1,38,1,2742.2000000476837,37,1,583.1000000238419,10,1,experiment,NA,NA,1,0.7,0.3,2,3,136,4,NA
fcp-trial,183,875511,0.0-146.0-0.0,voc_e2,11778,"[{""event"":""fullscreenenter"",""trial"":1,""time"":2951}]",NA,NA,NA,NA,NA,6,#3386FF,#D89F1C,0,0,1,40,0,925,37,1,480.2999999523163,0,1,experiment,NA,NA,2,0.5,0.5,4,5,137,4,NA
fcp-trial,184,878839,0.0-147.0-0.0,voc_e2,11778,"[{""event"":""fullscreenenter"",""trial"":1,""time"":2951}]",NA,NA,NA,NA,NA,2,#D89F1C,#3386FF,0,0,0,38,1,1254.1000000238419,39,0,566.7000000476837,0,1,experiment,NA,NA,2,0.5,0.5,5,4,138,4,NA
fcp-trial,185,882375,0.0-148.0-0.0,voc_e2,11778,"[{""event"":""fullscreenenter"",""trial"":1,""time"":2951}]",NA,NA,NA,NA,NA,6,#FA92F8,#1CD855,10,0,1,40,0,1014.6000000238419,39,0,1013.5,0,0,experiment,NA,NA,0,0.9,0.1,0,1,139,4,NA
fcp-trial,186,886359,0.0-149.0-0.0,voc_e2,11778,"[{""event"":""fullscreenenter"",""trial"":1,""time"":2951}]",NA,NA,NA,NA,NA,4,#741CD8,#D8271C,0,0,0,40,0,1996.5,39,0,478.7999999523163,0,1,experiment,NA,NA,1,0.3,0.7,3,2,140,4,NA
fcp-trial,187,890584,0.0-150.0-0.0,voc_e2,11778,"[{""event"":""fullscreenenter"",""trial"":1,""time"":2951}]",NA,NA,NA,NA,NA,1,#741CD8,#D8271C,10,10,0,38,1,1541.6000000238419,37,1,1175.100000023842,10,0,experiment,NA,NA,1,0.3,0.7,3,2,141,4,NA
fcp-trial,188,894007,0.0-151.0-0.0,voc_e2,11778,"[{""event"":""fullscreenenter"",""trial"":1,""time"":2951}]",NA,NA,NA,NA,NA,4,#FA92F8,#1CD855,0,0,1,40,0,1341.5999999046326,39,0,574.9000000953674,0,0,experiment,NA,NA,0,0.9,0.1,0,1,142,4,NA
fcp-trial,189,897406,0.0-152.0-0.0,voc_e2,11778,"[{""event"":""fullscreenenter"",""trial"":1,""time"":2951}]",NA,NA,NA,NA,NA,5,#3386FF,#D89F1C,0,0,1,38,1,1436.1000000238419,39,0,453.8000000715256,0,0,experiment,NA,NA,2,0.5,0.5,4,5,143,4,NA
fcp-trial,190,900358,0.0-153.0-0.0,voc_e2,11778,"[{""event"":""fullscreenenter"",""trial"":1,""time"":2951}]",NA,NA,NA,NA,NA,3,#FA92F8,#1CD855,10,0,1,38,1,863.2999999523163,37,1,583.6000000238419,10,1,experiment,NA,NA,0,0.9,0.1,0,1,144,4,NA
fcp-trial,191,908143,0.0-154.0-0.0,voc_e2,11778,"[{""event"":""fullscreenenter"",""trial"":1,""time"":2951}]",NA,NA,NA,NA,NA,6,#D8271C,#741CD8,10,0,1,38,1,5861.5,37,1,414.60000002384186,10,1,experiment,NA,NA,1,0.7,0.3,2,3,145,4,NA
fcp-trial,192,910743,0.0-155.0-0.0,voc_e2,11778,"[{""event"":""fullscreenenter"",""trial"":1,""time"":2951}]",NA,NA,NA,NA,NA,1,#FA92F8,#1CD855,10,0,1,38,1,510.2000000476837,37,1,583.8999999761581,10,1,experiment,NA,NA,0,0.9,0.1,0,1,146,4,NA
fcp-trial,193,913279,0.0-156.0-0.0,voc_e2,11778,"[{""event"":""fullscreenenter"",""trial"":1,""time"":2951}]",NA,NA,NA,NA,NA,5,#D8271C,#741CD8,10,0,1,38,1,237.79999995231628,37,1,791.9000000953674,10,1,experiment,NA,NA,1,0.7,0.3,2,3,147,4,NA
fcp-trial,194,916255,0.0-157.0-0.0,voc_e2,11778,"[{""event"":""fullscreenenter"",""trial"":1,""time"":2951}]",NA,NA,NA,NA,NA,0,#741CD8,#D8271C,10,0,0,40,0,815.6000000238419,39,0,655.2000000476837,0,1,experiment,NA,NA,1,0.3,0.7,3,2,148,4,NA
fcp-trial,195,919439,0.0-158.0-0.0,voc_e2,11778,"[{""event"":""fullscreenenter"",""trial"":1,""time"":2951}]",NA,NA,NA,NA,NA,1,#1CD855,#FA92F8,0,10,0,40,0,917.1999999284744,37,1,758.6000000238419,0,0,experiment,NA,NA,0,0.1,0.9,1,0,149,4,NA
fcp-trial,196,922343,0.0-159.0-0.0,voc_e2,11778,"[{""event"":""fullscreenenter"",""trial"":1,""time"":2951}]",NA,NA,NA,NA,NA,5,#D89F1C,#3386FF,0,0,0,38,1,819.3000000715256,37,1,574.8999999761581,0,0,experiment,NA,NA,2,0.5,0.5,5,4,150,4,NA
fcp-trial,197,925543,0.0-160.0-0.0,voc_e2,11778,"[{""event"":""fullscreenenter"",""trial"":1,""time"":2951}]",NA,NA,NA,NA,NA,6,#FA92F8,#1CD855,10,0,1,40,0,1173.7000000476837,39,0,519.3999999761581,0,0,experiment,NA,NA,0,0.9,0.1,0,1,151,4,NA
fcp-trial,198,929119,0.0-161.0-0.0,voc_e2,11778,"[{""event"":""fullscreenenter"",""trial"":1,""time"":2951}]",NA,NA,NA,NA,NA,3,#3386FF,#D89F1C,0,0,1,38,1,967.2999999523163,37,1,1102.6999999284744,0,1,experiment,NA,NA,2,0.5,0.5,4,5,152,4,NA
fcp-trial,199,931535,0.0-162.0-0.0,voc_e2,11778,"[{""event"":""fullscreenenter"",""trial"":1,""time"":2951}]",NA,NA,NA,NA,NA,1,#D8271C,#741CD8,0,0,1,38,1,511.2000000476837,37,1,397.60000002384186,0,1,experiment,NA,NA,1,0.7,0.3,2,3,153,4,NA
fcp-trial,200,934198,0.0-163.0-0.0,voc_e2,11778,"[{""event"":""fullscreenenter"",""trial"":1,""time"":2951}]",NA,NA,NA,NA,NA,1,#D89F1C,#3386FF,10,10,0,38,1,693.7999999523163,39,0,463,10,1,experiment,NA,NA,2,0.5,0.5,5,4,154,4,NA
fcp-trial,201,937127,0.0-164.0-0.0,voc_e2,11778,"[{""event"":""fullscreenenter"",""trial"":1,""time"":2951}]",NA,NA,NA,NA,NA,6,#741CD8,#D8271C,10,0,0,38,1,886,37,1,535.3000000715256,10,0,experiment,NA,NA,1,0.3,0.7,3,2,155,4,NA
fcp-trial,202,939943,0.0-165.0-0.0,voc_e2,11778,"[{""event"":""fullscreenenter"",""trial"":1,""time"":2951}]",NA,NA,NA,NA,NA,4,#FA92F8,#1CD855,10,0,1,38,1,653.9000000953674,37,1,654.1999999284744,10,1,experiment,NA,NA,0,0.9,0.1,0,1,156,4,NA
fcp-trial,203,942294,0.0-166.0-0.0,voc_e2,11778,"[{""event"":""fullscreenenter"",""trial"":1,""time"":2951}]",NA,NA,NA,NA,NA,5,#741CD8,#D8271C,0,0,0,38,1,429.59999990463257,39,0,414.7999999523163,0,1,experiment,NA,NA,1,0.3,0.7,3,2,157,4,NA
fcp-trial,204,944638,0.0-167.0-0.0,voc_e2,11778,"[{""event"":""fullscreenenter"",""trial"":1,""time"":2951}]",NA,NA,NA,NA,NA,2,#741CD8,#D8271C,10,10,0,38,1,437.8000000715256,37,1,399.7999999523163,10,0,experiment,NA,NA,1,0.3,0.7,3,2,158,4,NA
fcp-trial,205,948879,0.0-168.0-0.0,voc_e2,11778,"[{""event"":""fullscreenenter"",""trial"":1,""time"":2951}]",NA,NA,NA,NA,NA,0,#3386FF,#D89F1C,0,10,1,38,1,671.7000000476837,39,0,2061.8000000715256,10,0,experiment,NA,NA,2,0.5,0.5,4,5,159,4,NA
fcp-trial,206,951679,0.0-169.0-0.0,voc_e2,11778,"[{""event"":""fullscreenenter"",""trial"":1,""time"":2951}]",NA,NA,NA,NA,NA,3,#1CD855,#FA92F8,0,10,0,38,1,886.5,39,0,406.90000009536743,10,1,experiment,NA,NA,0,0.1,0.9,1,0,160,4,NA
fcp-trial,207,954943,0.0-170.0-0.0,voc_e2,11778,"[{""event"":""fullscreenenter"",""trial"":1,""time"":2951}]",NA,NA,NA,NA,NA,2,#D89F1C,#3386FF,10,10,0,38,1,886,37,1,872.3999999761581,10,0,experiment,NA,NA,2,0.5,0.5,5,4,161,4,NA
fcp-trial,208,958198,0.0-171.0-0.0,voc_e2,11778,"[{""event"":""fullscreenenter"",""trial"":1,""time"":2951}]",NA,NA,NA,NA,NA,3,#D8271C,#741CD8,10,10,1,40,0,717.5,37,1,1030.7000000476835,10,1,experiment,NA,NA,1,0.7,0.3,2,3,162,4,NA
fcp-trial,209,961616,0.0-172.0-0.0,voc_e2,11778,"[{""event"":""fullscreenenter"",""trial"":1,""time"":2951}]",NA,NA,NA,NA,NA,0,#1CD855,#FA92F8,0,10,0,38,1,1175.3999999761581,39,0,735.3000000715256,10,1,experiment,NA,NA,0,0.1,0.9,1,0,163,4,NA
fcp-trial,210,964631,0.0-173.0-0.0,voc_e2,11778,"[{""event"":""fullscreenenter"",""trial"":1,""time"":2951}]",NA,NA,NA,NA,NA,4,#3386FF,#D89F1C,10,10,1,40,0,996.1000000238419,39,0,511.40000009536743,10,0,experiment,NA,NA,2,0.5,0.5,4,5,164,4,NA
fcp-trial,211,967422,0.0-174.0-0.0,voc_e2,11778,"[{""event"":""fullscreenenter"",""trial"":1,""time"":2951}]",NA,NA,NA,NA,NA,5,#1CD855,#FA92F8,0,10,0,40,0,829.3999999761581,39,0,455.6999999284744,10,1,experiment,NA,NA,0,0.1,0.9,1,0,165,4,NA
fcp-trial,212,970319,0.0-175.0-0.0,voc_e2,11778,"[{""event"":""fullscreenenter"",""trial"":1,""time"":2951}]",NA,NA,NA,NA,NA,4,#D8271C,#741CD8,10,10,1,40,0,940.1000000238419,39,0,447,10,0,experiment,NA,NA,1,0.7,0.3,2,3,166,4,NA
fcp-trial,213,973599,0.0-176.0-0.0,voc_e2,11778,"[{""event"":""fullscreenenter"",""trial"":1,""time"":2951}]",NA,NA,NA,NA,NA,2,#1CD855,#FA92F8,0,10,0,40,0,1326,39,0,447,10,1,experiment,NA,NA,0,0.1,0.9,1,0,167,4,NA
fcp-trial,214,978015,0.0-177.0-0.0,voc_e2,11778,"[{""event"":""fullscreenenter"",""trial"":1,""time"":2951}]",NA,NA,NA,NA,NA,6,#D89F1C,#3386FF,10,0,0,40,0,2221.899999976158,37,1,686.8999999761581,10,0,experiment,NA,NA,2,0.5,0.5,5,4,168,4,NA
fcp-trial,215,980679,0.0-178.0-0.0,voc_e2,11778,"[{""event"":""fullscreenenter"",""trial"":1,""time"":2951}]",NA,NA,NA,NA,NA,3,#D8271C,#741CD8,10,0,1,40,0,613.4000000953674,37,1,542.8000000715256,10,1,experiment,NA,NA,1,0.7,0.3,2,3,169,4,NA
fcp-trial,216,983478,0.0-179.0-0.0,voc_e2,11778,"[{""event"":""fullscreenenter"",""trial"":1,""time"":2951}]",NA,NA,NA,NA,NA,4,#3386FF,#D89F1C,0,0,1,40,0,838.2000000476837,39,0,454.3000000715256,0,0,experiment,NA,NA,2,0.5,0.5,4,5,170,4,NA
fcp-trial,217,986039,0.0-180.0-0.0,voc_e2,11778,"[{""event"":""fullscreenenter"",""trial"":1,""time"":2951}]",NA,NA,NA,NA,NA,6,#1CD855,#FA92F8,0,10,0,40,0,438.89999997615814,37,1,614.5,0,0,experiment,NA,NA,0,0.1,0.9,1,0,171,4,NA
fcp-trial,218,988814,0.0-181.0-0.0,voc_e2,11778,"[{""event"":""fullscreenenter"",""trial"":1,""time"":2951}]",NA,NA,NA,NA,NA,1,#3386FF,#D89F1C,0,0,1,40,0,579.4000000953674,37,1,687.2000000476837,0,1,experiment,NA,NA,2,0.5,0.5,4,5,172,4,NA
fcp-trial,219,991887,0.0-182.0-0.0,voc_e2,11778,"[{""event"":""fullscreenenter"",""trial"":1,""time"":2951}]",NA,NA,NA,NA,NA,5,#FA92F8,#1CD855,0,0,1,40,0,1016.7999999523163,39,0,551.1000000238419,0,0,experiment,NA,NA,0,0.9,0.1,0,1,173,4,NA
fcp-trial,220,994438,0.0-183.0-0.0,voc_e2,11778,"[{""event"":""fullscreenenter"",""trial"":1,""time"":2951}]",NA,NA,NA,NA,NA,2,#D8271C,#741CD8,10,0,1,40,0,566.5,37,1,477.60000002384186,10,1,experiment,NA,NA,1,0.7,0.3,2,3,174,4,NA
fcp-trial,221,997022,0.0-184.0-0.0,voc_e2,11778,"[{""event"":""fullscreenenter"",""trial"":1,""time"":2951}]",NA,NA,NA,NA,NA,3,#D89F1C,#3386FF,0,0,0,40,0,534.5,39,0,541.3000000715256,0,1,experiment,NA,NA,2,0.5,0.5,5,4,175,4,NA
fcp-trial,222,999479,0.0-185.0-0.0,voc_e2,11778,"[{""event"":""fullscreenenter"",""trial"":1,""time"":2951}]",NA,NA,NA,NA,NA,1,#D8271C,#741CD8,10,0,1,40,0,455.3000000715256,39,0,494.7999999523163,0,0,experiment,NA,NA,1,0.7,0.3,2,3,176,4,NA
fcp-trial,223,1001830,0.0-186.0-0.0,voc_e2,11778,"[{""event"":""fullscreenenter"",""trial"":1,""time"":2951}]",NA,NA,NA,NA,NA,0,#3386FF,#D89F1C,0,10,1,40,0,325.7999999523163,39,0,518.3999999761581,10,0,experiment,NA,NA,2,0.5,0.5,4,5,177,4,NA
fcp-trial,224,1004430,0.0-187.0-0.0,voc_e2,11778,"[{""event"":""fullscreenenter"",""trial"":1,""time"":2951}]",NA,NA,NA,NA,NA,2,#FA92F8,#1CD855,10,10,1,40,0,360.89999997615814,39,0,733.5,10,0,experiment,NA,NA,0,0.9,0.1,0,1,178,4,NA
fcp-trial,225,1008295,0.0-188.0-0.0,voc_e2,11778,"[{""event"":""fullscreenenter"",""trial"":1,""time"":2951}]",NA,NA,NA,NA,NA,5,#741CD8,#D8271C,10,10,0,40,0,1830.2999999523163,39,0,527.4000000953674,10,1,experiment,NA,NA,1,0.3,0.7,3,2,179,4,NA
fcp-trial,226,1011447,0.0-189.0-0.0,voc_e2,11778,"[{""event"":""fullscreenenter"",""trial"":1,""time"":2951}]",NA,NA,NA,NA,NA,1,#FA92F8,#1CD855,10,10,1,38,1,1253.1999999284744,37,1,391.39999997615814,10,1,experiment,NA,NA,0,0.9,0.1,0,1,180,4,NA
fcp-trial,227,1014703,0.0-190.0-0.0,voc_e2,11778,"[{""event"":""fullscreenenter"",""trial"":1,""time"":2951}]",NA,NA,NA,NA,NA,0,#1CD855,#FA92F8,0,10,0,38,1,1422.3999999761581,39,0,326.2000000476837,10,1,experiment,NA,NA,0,0.1,0.9,1,0,181,5,NA
fcp-trial,228,1017639,0.0-191.0-0.0,voc_e2,11778,"[{""event"":""fullscreenenter"",""trial"":1,""time"":2951}]",NA,NA,NA,NA,NA,5,#D89F1C,#3386FF,0,10,0,40,0,1028.6000000238419,39,0,398.7000000476837,10,1,experiment,NA,NA,2,0.5,0.5,5,4,182,5,NA
fcp-trial,229,1020976,0.0-192.0-0.0,voc_e2,11778,"[{""event"":""fullscreenenter"",""trial"":1,""time"":2951}]",NA,NA,NA,NA,NA,0,#D8271C,#741CD8,10,0,1,38,1,1347.8000000715256,37,1,478.7000000476837,10,1,experiment,NA,NA,1,0.7,0.3,2,3,183,5,NA
fcp-trial,230,1025599,0.0-193.0-0.0,voc_e2,11778,"[{""event"":""fullscreenenter"",""trial"":1,""time"":2951}]",NA,NA,NA,NA,NA,3,#FA92F8,#1CD855,0,10,1,40,0,2542,39,0,574.2000000476837,10,0,experiment,NA,NA,0,0.9,0.1,0,1,184,5,NA
fcp-trial,231,1029736,0.0-194.0-0.0,voc_e2,11778,"[{""event"":""fullscreenenter"",""trial"":1,""time"":2951}]",NA,NA,NA,NA,NA,6,#D8271C,#741CD8,10,0,1,38,1,718.7999999523163,39,0,1911.5999999046328,0,0,experiment,NA,NA,1,0.7,0.3,2,3,185,5,NA
fcp-trial,232,1033551,0.0-195.0-0.0,voc_e2,11778,"[{""event"":""fullscreenenter"",""trial"":1,""time"":2951}]",NA,NA,NA,NA,NA,2,#D89F1C,#3386FF,0,10,0,40,0,1812.2999999523163,39,0,495.3000000715256,10,1,experiment,NA,NA,2,0.5,0.5,5,4,186,5,NA
fcp-trial,233,1036199,0.0-196.0-0.0,voc_e2,11778,"[{""event"":""fullscreenenter"",""trial"":1,""time"":2951}]",NA,NA,NA,NA,NA,6,#D89F1C,#3386FF,0,0,0,40,0,598.2999999523163,37,1,541.3999999761581,0,0,experiment,NA,NA,2,0.5,0.5,5,4,187,5,NA
fcp-trial,234,1038783,0.0-197.0-0.0,voc_e2,11778,"[{""event"":""fullscreenenter"",""trial"":1,""time"":2951}]",NA,NA,NA,NA,NA,4,#1CD855,#FA92F8,0,10,0,40,0,614.1000000238419,39,0,463.2000000476837,10,1,experiment,NA,NA,0,0.1,0.9,1,0,188,5,NA
fcp-trial,235,1041287,0.0-198.0-0.0,voc_e2,11778,"[{""event"":""fullscreenenter"",""trial"":1,""time"":2951}]",NA,NA,NA,NA,NA,4,#741CD8,#D8271C,0,0,0,40,0,582.0999999046326,37,1,414.5,0,0,experiment,NA,NA,1,0.3,0.7,3,2,189,5,NA
fcp-trial,236,1045023,0.0-199.0-0.0,voc_e2,11778,"[{""event"":""fullscreenenter"",""trial"":1,""time"":2951}]",NA,NA,NA,NA,NA,0,#741CD8,#D8271C,0,0,0,38,1,1590.2999999523163,39,0,638.4000000953674,0,1,experiment,NA,NA,1,0.3,0.7,3,2,190,5,NA
fcp-trial,237,1053279,0.0-200.0-0.0,voc_e2,11778,"[{""event"":""fullscreenenter"",""trial"":1,""time"":2951}]",NA,NA,NA,NA,NA,2,#D89F1C,#3386FF,0,10,0,38,1,6003.5,39,0,743.6000000238419,10,1,experiment,NA,NA,2,0.5,0.5,5,4,191,5,NA
fcp-trial,238,1056753,0.0-201.0-0.0,voc_e2,11778,"[{""event"":""fullscreenenter"",""trial"":1,""time"":2951}]",NA,NA,NA,NA,NA,6,#FA92F8,#1CD855,10,0,1,40,0,1317.6000000238419,39,0,647.7999999523163,0,0,experiment,NA,NA,0,0.9,0.1,0,1,192,5,NA
fcp-trial,239,1060415,0.0-202.0-0.0,voc_e2,11778,"[{""event"":""fullscreenenter"",""trial"":1,""time"":2951}]",NA,NA,NA,NA,NA,1,#D89F1C,#3386FF,0,10,0,40,0,1716.7999999523163,39,0,438.5,10,1,experiment,NA,NA,2,0.5,0.5,5,4,193,5,NA
fcp-trial,240,1064119,0.0-203.0-0.0,voc_e2,11778,"[{""event"":""fullscreenenter"",""trial"":1,""time"":2951}]",NA,NA,NA,NA,NA,1,#741CD8,#D8271C,0,10,0,40,0,1784.6999999284744,37,1,414.59999990463257,0,0,experiment,NA,NA,1,0.3,0.7,3,2,194,5,NA
fcp-trial,241,1066967,0.0-204.0-0.0,voc_e2,11778,"[{""event"":""fullscreenenter"",""trial"":1,""time"":2951}]",NA,NA,NA,NA,NA,5,#FA92F8,#1CD855,10,0,1,38,1,917.7999999523163,37,1,423.10000002384186,10,1,experiment,NA,NA,0,0.9,0.1,0,1,195,5,NA
fcp-trial,242,1069959,0.0-205.0-0.0,voc_e2,11778,"[{""event"":""fullscreenenter"",""trial"":1,""time"":2951}]",NA,NA,NA,NA,NA,4,#1CD855,#FA92F8,0,0,0,40,0,1142,39,0,344.3000000715256,0,1,experiment,NA,NA,0,0.1,0.9,1,0,196,5,NA
fcp-trial,243,1074144,0.0-206.0-0.0,voc_e2,11778,"[{""event"":""fullscreenenter"",""trial"":1,""time"":2951}]",NA,NA,NA,NA,NA,5,#D89F1C,#3386FF,0,0,0,40,0,2213.7000000476837,37,1,462.39999997615814,0,0,experiment,NA,NA,2,0.5,0.5,5,4,197,5,NA
fcp-trial,244,1076993,0.0-207.0-0.0,voc_e2,11778,"[{""event"":""fullscreenenter"",""trial"":1,""time"":2951}]",NA,NA,NA,NA,NA,0,#D89F1C,#3386FF,10,10,0,40,0,853.1000000238419,39,0,487.39999997615814,10,1,experiment,NA,NA,2,0.5,0.5,5,4,198,5,NA
fcp-trial,245,1079871,0.0-208.0-0.0,voc_e2,11778,"[{""event"":""fullscreenenter"",""trial"":1,""time"":2951}]",NA,NA,NA,NA,NA,4,#D8271C,#741CD8,10,10,1,40,0,931.6999999284744,37,1,438.7999999523163,10,1,experiment,NA,NA,1,0.7,0.3,2,3,199,5,NA
fcp-trial,246,1082111,0.0-209.0-0.0,voc_e2,11778,"[{""event"":""fullscreenenter"",""trial"":1,""time"":2951}]",NA,NA,NA,NA,NA,3,#1CD855,#FA92F8,10,10,0,40,0,156,39,0,574.7000000476837,10,1,experiment,NA,NA,0,0.1,0.9,1,0,200,5,NA
fcp-trial,247,1084320,0.0-210.0-0.0,voc_e2,11778,"[{""event"":""fullscreenenter"",""trial"":1,""time"":2951}]",NA,NA,NA,NA,NA,1,#FA92F8,#1CD855,10,0,1,40,0,381.5,37,1,319.5,10,1,experiment,NA,NA,0,0.9,0.1,0,1,201,5,NA
fcp-trial,248,1086351,0.0-211.0-0.0,voc_e2,11778,"[{""event"":""fullscreenenter"",""trial"":1,""time"":2951}]",NA,NA,NA,NA,NA,6,#D89F1C,#3386FF,10,0,0,40,0,142.30000007152557,39,0,383.5,0,1,experiment,NA,NA,2,0.5,0.5,5,4,202,5,NA
fcp-trial,249,1088175,0.0-212.0-0.0,voc_e2,11778,"[{""event"":""fullscreenenter"",""trial"":1,""time"":2951}]",NA,NA,NA,NA,NA,3,#D89F1C,#3386FF,10,0,0,40,0,5.399999976158142,37,1,311.09999990463257,10,0,experiment,NA,NA,2,0.5,0.5,5,4,203,5,NA
fcp-trial,250,1090286,0.0-213.0-0.0,voc_e2,11778,"[{""event"":""fullscreenenter"",""trial"":1,""time"":2951}]",NA,NA,NA,NA,NA,6,#D8271C,#741CD8,0,0,1,40,0,37.39999997615814,39,0,566.3000000715256,0,0,experiment,NA,NA,1,0.7,0.3,2,3,204,5,NA
fcp-trial,251,1092254,0.0-214.0-0.0,voc_e2,11778,"[{""event"":""fullscreenenter"",""trial"":1,""time"":2951}]",NA,NA,NA,NA,NA,2,#1CD855,#FA92F8,0,10,0,40,0,180.29999995231628,39,0,277.60000002384186,10,1,experiment,NA,NA,0,0.1,0.9,1,0,205,5,NA
fcp-trial,252,1094455,0.0-215.0-0.0,voc_e2,11778,"[{""event"":""fullscreenenter"",""trial"":1,""time"":2951}]",NA,NA,NA,NA,NA,2,#D8271C,#741CD8,10,10,1,40,0,379.60000002384186,39,0,311.5,10,0,experiment,NA,NA,1,0.7,0.3,2,3,206,5,NA
fcp-trial,253,1096448,0.0-216.0-0.0,voc_e2,11778,"[{""event"":""fullscreenenter"",""trial"":1,""time"":2951}]",NA,NA,NA,NA,NA,5,#D8271C,#741CD8,10,0,1,40,0,163.60000002384186,39,0,319.7999999523163,0,0,experiment,NA,NA,1,0.7,0.3,2,3,207,5,NA
fcp-trial,254,1098462,0.0-217.0-0.0,voc_e2,11778,"[{""event"":""fullscreenenter"",""trial"":1,""time"":2951}]",NA,NA,NA,NA,NA,4,#D89F1C,#3386FF,10,10,0,40,0,124.19999992847443,39,0,381.7999999523163,10,1,experiment,NA,NA,2,0.5,0.5,5,4,208,5,NA
fcp-trial,255,1100582,0.0-218.0-0.0,voc_e2,11778,"[{""event"":""fullscreenenter"",""trial"":1,""time"":2951}]",NA,NA,NA,NA,NA,0,#1CD855,#FA92F8,0,10,0,40,0,190.70000004768372,39,0,422.2999999523163,10,1,experiment,NA,NA,0,0.1,0.9,1,0,209,5,NA
fcp-trial,256,1102671,0.0-219.0-0.0,voc_e2,11778,"[{""event"":""fullscreenenter"",""trial"":1,""time"":2951}]",NA,NA,NA,NA,NA,3,#D8271C,#741CD8,10,0,1,40,0,161.20000004768372,37,1,423.5,10,1,experiment,NA,NA,1,0.7,0.3,2,3,210,5,NA
audio-instructions,257,1261008,0.0-220.0,voc_e2,11778,"[{""event"":""fullscreenenter"",""trial"":1,""time"":2951}]",NA,153885.39999997616,static/audio/pause.wav,NA,0,NA,NA,NA,NA,NA,NA,NA,NA,NA,NA,NA,NA,NA,NA,NA,NA,NA,NA,NA,NA,NA,NA,NA,NA,NA
fcp-trial,258,1267535,0.0-221.0-0.0,voc_e2,11778,"[{""event"":""fullscreenenter"",""trial"":1,""time"":2951}]",NA,NA,NA,NA,NA,4,#FA92F8,#1CD855,10,0,1,38,1,4365.600000023842,37,1,654.7000000476837,10,1,experiment,NA,NA,0,0.9,0.1,0,1,211,5,NA
fcp-trial,259,1270271,0.0-222.0-0.0,voc_e2,11778,"[{""event"":""fullscreenenter"",""trial"":1,""time"":2951}]",NA,NA,NA,NA,NA,2,#D89F1C,#3386FF,10,0,0,38,1,829.8999999761581,37,1,398.5,10,0,experiment,NA,NA,2,0.5,0.5,5,4,212,5,NA
fcp-trial,260,1272390,0.0-223.0-0.0,voc_e2,11778,"[{""event"":""fullscreenenter"",""trial"":1,""time"":2951}]",NA,NA,NA,NA,NA,3,#D8271C,#741CD8,10,10,1,40,0,291.8000000715256,39,0,318.8000000715256,10,0,experiment,NA,NA,1,0.7,0.3,2,3,213,5,NA
fcp-trial,261,1274415,0.0-224.0-0.0,voc_e2,11778,"[{""event"":""fullscreenenter"",""trial"":1,""time"":2951}]",NA,NA,NA,NA,NA,5,#FA92F8,#1CD855,10,0,1,40,0,32.800000071525574,39,0,486.7000000476837,0,0,experiment,NA,NA,0,0.9,0.1,0,1,214,5,NA
fcp-trial,262,1276374,0.0-225.0-0.0,voc_e2,11778,"[{""event"":""fullscreenenter"",""trial"":1,""time"":2951}]",NA,NA,NA,NA,NA,5,#741CD8,#D8271C,10,10,0,40,0,87.60000002384186,39,0,367.09999990463257,10,1,experiment,NA,NA,1,0.3,0.7,3,2,215,5,NA
fcp-trial,263,1278271,0.0-226.0-0.0,voc_e2,11778,"[{""event"":""fullscreenenter"",""trial"":1,""time"":2951}]",NA,NA,NA,NA,NA,3,#FA92F8,#1CD855,10,0,1,40,0,29,39,0,359.60000002384186,0,0,experiment,NA,NA,0,0.9,0.1,0,1,216,5,NA
fcp-trial,264,1280271,0.0-227.0-0.0,voc_e2,11778,"[{""event"":""fullscreenenter"",""trial"":1,""time"":2951}]",NA,NA,NA,NA,NA,6,#3386FF,#D89F1C,10,10,1,40,0,82.29999995231628,39,0,407.6999999284744,10,0,experiment,NA,NA,2,0.5,0.5,4,5,217,5,NA
fcp-trial,265,1282959,0.0-228.0-0.0,voc_e2,11778,"[{""event"":""fullscreenenter"",""trial"":1,""time"":2951}]",NA,NA,NA,NA,NA,4,#D89F1C,#3386FF,0,0,0,40,0,812.4000000953674,39,0,367,0,1,experiment,NA,NA,2,0.5,0.5,5,4,218,5,NA
fcp-trial,266,1285518,0.0-229.0-0.0,voc_e2,11778,"[{""event"":""fullscreenenter"",""trial"":1,""time"":2951}]",NA,NA,NA,NA,NA,0,#D8271C,#741CD8,10,0,1,40,0,645.7999999523163,39,0,406.59999990463257,0,0,experiment,NA,NA,1,0.7,0.3,2,3,219,5,NA
fcp-trial,267,1288014,0.0-230.0-0.0,voc_e2,11778,"[{""event"":""fullscreenenter"",""trial"":1,""time"":2951}]",NA,NA,NA,NA,NA,1,#FA92F8,#1CD855,10,0,1,38,1,583.3000000715256,37,1,406.10000002384186,10,1,experiment,NA,NA,0,0.9,0.1,0,1,220,5,NA
fcp-trial,268,1290407,0.0-231.0-0.0,voc_e2,11778,"[{""event"":""fullscreenenter"",""trial"":1,""time"":2951}]",NA,NA,NA,NA,NA,5,#3386FF,#D89F1C,0,0,1,40,0,350.59999990463257,37,1,535.1999999284744,0,1,experiment,NA,NA,2,0.5,0.5,4,5,221,5,NA
fcp-trial,269,1292423,0.0-232.0-0.0,voc_e2,11778,"[{""event"":""fullscreenenter"",""trial"":1,""time"":2951}]",NA,NA,NA,NA,NA,4,#741CD8,#D8271C,0,10,0,40,0,173,37,1,334.60000002384186,0,0,experiment,NA,NA,1,0.3,0.7,3,2,222,5,NA
fcp-trial,270,1294607,0.0-233.0-0.0,voc_e2,11778,"[{""event"":""fullscreenenter"",""trial"":1,""time"":2951}]",NA,NA,NA,NA,NA,2,#D8271C,#741CD8,10,0,1,40,0,30.200000047683716,39,0,647.8999999761581,0,0,experiment,NA,NA,1,0.7,0.3,2,3,223,5,NA
fcp-trial,271,1296615,0.0-234.0-0.0,voc_e2,11778,"[{""event"":""fullscreenenter"",""trial"":1,""time"":2951}]",NA,NA,NA,NA,NA,0,#1CD855,#FA92F8,0,10,0,40,0,61.5,37,1,438.5,0,0,experiment,NA,NA,0,0.1,0.9,1,0,224,5,NA
fcp-trial,272,1298519,0.0-235.0-0.0,voc_e2,11778,"[{""event"":""fullscreenenter"",""trial"":1,""time"":2951}]",NA,NA,NA,NA,NA,1,#D89F1C,#3386FF,0,0,0,40,0,46,37,1,350.7000000476837,0,0,experiment,NA,NA,2,0.5,0.5,5,4,225,5,NA
fcp-trial,273,1300342,0.0-236.0-0.0,voc_e2,11778,"[{""event"":""fullscreenenter"",""trial"":1,""time"":2951}]",NA,NA,NA,NA,NA,6,#741CD8,#D8271C,0,0,0,40,0,5.800000071525574,37,1,310.5,0,0,experiment,NA,NA,1,0.3,0.7,3,2,226,6,NA
fcp-trial,274,1302519,0.0-237.0-0.0,voc_e2,11778,"[{""event"":""fullscreenenter"",""trial"":1,""time"":2951}]",NA,NA,NA,NA,NA,3,#3386FF,#D89F1C,0,0,1,38,1,390.2000000476837,39,0,278.10000002384186,0,0,experiment,NA,NA,2,0.5,0.5,4,5,227,6,NA
fcp-trial,275,1304799,0.0-238.0-0.0,voc_e2,11778,"[{""event"":""fullscreenenter"",""trial"":1,""time"":2951}]",NA,NA,NA,NA,NA,1,#741CD8,#D8271C,10,10,0,38,1,444,37,1,326.7999999523163,10,0,experiment,NA,NA,1,0.3,0.7,3,2,228,6,NA
fcp-trial,276,1307158,0.0-239.0-0.0,voc_e2,11778,"[{""event"":""fullscreenenter"",""trial"":1,""time"":2951}]",NA,NA,NA,NA,NA,2,#FA92F8,#1CD855,10,0,1,38,1,486,37,1,366.7999999523163,10,1,experiment,NA,NA,0,0.9,0.1,0,1,229,6,NA
fcp-trial,277,1309751,0.0-240.0-0.0,voc_e2,11778,"[{""event"":""fullscreenenter"",""trial"":1,""time"":2951}]",NA,NA,NA,NA,NA,0,#D89F1C,#3386FF,10,10,0,38,1,582.6000000238419,37,1,502.89999997615814,10,0,experiment,NA,NA,2,0.5,0.5,5,4,230,6,NA
fcp-trial,278,1312039,0.0-241.0-0.0,voc_e2,11778,"[{""event"":""fullscreenenter"",""trial"":1,""time"":2951}]",NA,NA,NA,NA,NA,6,#FA92F8,#1CD855,10,10,1,38,1,397.39999997615814,37,1,383.1999999284744,10,1,experiment,NA,NA,0,0.9,0.1,0,1,231,6,NA
fcp-trial,279,1314895,0.0-242.0-0.0,voc_e2,11778,"[{""event"":""fullscreenenter"",""trial"":1,""time"":2951}]",NA,NA,NA,NA,NA,6,#741CD8,#D8271C,0,10,0,40,0,694.1000000238419,37,1,654.2000000476837,0,0,experiment,NA,NA,1,0.3,0.7,3,2,232,6,NA
fcp-trial,280,1316951,0.0-243.0-0.0,voc_e2,11778,"[{""event"":""fullscreenenter"",""trial"":1,""time"":2951}]",NA,NA,NA,NA,NA,1,#FA92F8,#1CD855,10,0,1,40,0,143,37,1,407.60000002384186,10,1,experiment,NA,NA,0,0.9,0.1,0,1,233,6,NA
fcp-trial,281,1318895,0.0-244.0-0.0,voc_e2,11778,"[{""event"":""fullscreenenter"",""trial"":1,""time"":2951}]",NA,NA,NA,NA,NA,3,#3386FF,#D89F1C,0,10,1,40,0,37.200000047683716,37,1,399.39999997615814,0,1,experiment,NA,NA,2,0.5,0.5,4,5,234,6,NA
fcp-trial,282,1320887,0.0-245.0-0.0,voc_e2,11778,"[{""event"":""fullscreenenter"",""trial"":1,""time"":2951}]",NA,NA,NA,NA,NA,3,#D8271C,#741CD8,10,0,1,40,0,102.10000002384186,37,1,382.5,10,1,experiment,NA,NA,1,0.7,0.3,2,3,235,6,NA
fcp-trial,283,1322766,0.0-246.0-0.0,voc_e2,11778,"[{""event"":""fullscreenenter"",""trial"":1,""time"":2951}]",NA,NA,NA,NA,NA,3,#1CD855,#FA92F8,0,10,0,40,0,13.300000071525574,39,0,358.3000000715256,10,1,experiment,NA,NA,0,0.1,0.9,1,0,236,6,NA
fcp-trial,284,1324679,0.0-247.0-0.0,voc_e2,11778,"[{""event"":""fullscreenenter"",""trial"":1,""time"":2951}]",NA,NA,NA,NA,NA,0,#D89F1C,#3386FF,10,10,0,40,0,22,39,0,383.7000000476837,10,1,experiment,NA,NA,2,0.5,0.5,5,4,237,6,NA
fcp-trial,285,1326694,0.0-248.0-0.0,voc_e2,11778,"[{""event"":""fullscreenenter"",""trial"":1,""time"":2951}]",NA,NA,NA,NA,NA,2,#D8271C,#741CD8,10,0,1,40,0,101.60000002384186,39,0,406.1999999284744,0,0,experiment,NA,NA,1,0.7,0.3,2,3,238,6,NA
fcp-trial,286,1328910,0.0-249.0-0.0,voc_e2,11778,"[{""event"":""fullscreenenter"",""trial"":1,""time"":2951}]",NA,NA,NA,NA,NA,2,#FA92F8,#1CD855,10,0,1,40,0,94,39,0,615.8999999761581,0,0,experiment,NA,NA,0,0.9,0.1,0,1,239,6,NA
fcp-trial,287,1331006,0.0-250.0-0.0,voc_e2,11778,"[{""event"":""fullscreenenter"",""trial"":1,""time"":2951}]",NA,NA,NA,NA,NA,1,#741CD8,#D8271C,10,10,0,40,0,230.10000002384186,39,0,358.7999999523163,10,1,experiment,NA,NA,1,0.3,0.7,3,2,240,6,NA
fcp-trial,288,1333190,0.0-251.0-0.0,voc_e2,11778,"[{""event"":""fullscreenenter"",""trial"":1,""time"":2951}]",NA,NA,NA,NA,NA,6,#D89F1C,#3386FF,0,10,0,40,0,165.60000002384186,37,1,511.5,0,0,experiment,NA,NA,2,0.5,0.5,5,4,241,6,NA
fcp-trial,289,1335614,0.0-252.0-0.0,voc_e2,11778,"[{""event"":""fullscreenenter"",""trial"":1,""time"":2951}]",NA,NA,NA,NA,NA,4,#1CD855,#FA92F8,0,10,0,38,1,590.1000000238419,39,0,327.09999990463257,10,1,experiment,NA,NA,0,0.1,0.9,1,0,242,6,NA
fcp-trial,290,1339343,0.0-253.0-0.0,voc_e2,11778,"[{""event"":""fullscreenenter"",""trial"":1,""time"":2951}]",NA,NA,NA,NA,NA,0,#1CD855,#FA92F8,0,10,0,40,0,574.3000000715256,37,1,1647.399999976158,0,0,experiment,NA,NA,0,0.1,0.9,1,0,243,6,NA
fcp-trial,291,1341934,0.0-254.0-0.0,voc_e2,11778,"[{""event"":""fullscreenenter"",""trial"":1,""time"":2951}]",NA,NA,NA,NA,NA,5,#1CD855,#FA92F8,0,10,0,38,1,581.5999999046326,39,0,502.60000002384186,10,1,experiment,NA,NA,0,0.1,0.9,1,0,244,6,NA
fcp-trial,292,1344559,0.0-255.0-0.0,voc_e2,11778,"[{""event"":""fullscreenenter"",""trial"":1,""time"":2951}]",NA,NA,NA,NA,NA,5,#D8271C,#741CD8,10,10,1,38,1,558.6000000238419,37,1,557,10,1,experiment,NA,NA,1,0.7,0.3,2,3,245,6,NA
fcp-trial,293,1347023,0.0-256.0-0.0,voc_e2,11778,"[{""event"":""fullscreenenter"",""trial"":1,""time"":2951}]",NA,NA,NA,NA,NA,2,#D89F1C,#3386FF,10,10,0,40,0,646.2999999523163,37,1,311.60000002384186,10,0,experiment,NA,NA,2,0.5,0.5,5,4,246,6,NA
fcp-trial,294,1350103,0.0-257.0-0.0,voc_e2,11778,"[{""event"":""fullscreenenter"",""trial"":1,""time"":2951}]",NA,NA,NA,NA,NA,0,#741CD8,#D8271C,0,10,0,40,0,1053.2999999523163,39,0,518.7000000476837,10,1,experiment,NA,NA,1,0.3,0.7,3,2,247,6,NA
fcp-trial,295,1353750,0.0-258.0-0.0,voc_e2,11778,"[{""event"":""fullscreenenter"",""trial"":1,""time"":2951}]",NA,NA,NA,NA,NA,6,#FA92F8,#1CD855,10,0,1,38,1,1507,37,1,630.7999999523163,10,1,experiment,NA,NA,0,0.9,0.1,0,1,248,6,NA
fcp-trial,296,1356743,0.0-259.0-0.0,voc_e2,11778,"[{""event"":""fullscreenenter"",""trial"":1,""time"":2951}]",NA,NA,NA,NA,NA,4,#741CD8,#D8271C,0,10,0,40,0,973.3999999761581,39,0,511.39999997615814,10,1,experiment,NA,NA,1,0.3,0.7,3,2,249,6,NA
fcp-trial,297,1359455,0.0-260.0-0.0,voc_e2,11778,"[{""event"":""fullscreenenter"",""trial"":1,""time"":2951}]",NA,NA,NA,NA,NA,1,#D89F1C,#3386FF,0,10,0,40,0,668.5,37,1,534.9000000953674,0,0,experiment,NA,NA,2,0.5,0.5,5,4,250,6,NA
fcp-trial,298,1362110,0.0-261.0-0.0,voc_e2,11778,"[{""event"":""fullscreenenter"",""trial"":1,""time"":2951}]",NA,NA,NA,NA,NA,5,#D89F1C,#3386FF,10,10,0,40,0,629,37,1,518.8999999761581,10,0,experiment,NA,NA,2,0.5,0.5,5,4,251,6,NA
fcp-trial,299,1364710,0.0-262.0-0.0,voc_e2,11778,"[{""event"":""fullscreenenter"",""trial"":1,""time"":2951}]",NA,NA,NA,NA,NA,4,#3386FF,#D89F1C,0,10,1,40,0,597.6000000238419,39,0,495.5,10,0,experiment,NA,NA,2,0.5,0.5,4,5,252,6,NA
fcp-trial,300,1367822,0.0-263.0-0.0,voc_e2,11778,"[{""event"":""fullscreenenter"",""trial"":1,""time"":2951}]",NA,NA,NA,NA,NA,0,#741CD8,#D8271C,10,10,0,40,0,1054.9000000953674,37,1,551.6000000238419,10,0,experiment,NA,NA,1,0.3,0.7,3,2,253,6,NA
fcp-trial,301,1370687,0.0-264.0-0.0,voc_e2,11778,"[{""event"":""fullscreenenter"",""trial"":1,""time"":2951}]",NA,NA,NA,NA,NA,3,#D89F1C,#3386FF,10,0,0,40,0,774.1000000238419,39,0,582.8999999761581,0,1,experiment,NA,NA,2,0.5,0.5,5,4,254,6,NA
fcp-trial,302,1373390,0.0-265.0-0.0,voc_e2,11778,"[{""event"":""fullscreenenter"",""trial"":1,""time"":2951}]",NA,NA,NA,NA,NA,1,#3386FF,#D89F1C,10,0,1,40,0,556.0999999046326,39,0,638.8999999761581,0,0,experiment,NA,NA,2,0.5,0.5,4,5,255,6,NA
fcp-trial,303,1376446,0.0-266.0-0.0,voc_e2,11778,"[{""event"":""fullscreenenter"",""trial"":1,""time"":2951}]",NA,NA,NA,NA,NA,3,#FA92F8,#1CD855,10,0,1,38,1,1038,37,1,511.2999999523163,10,1,experiment,NA,NA,0,0.9,0.1,0,1,256,6,NA
fcp-trial,304,1379390,0.0-267.0-0.0,voc_e2,11778,"[{""event"":""fullscreenenter"",""trial"":1,""time"":2951}]",NA,NA,NA,NA,NA,2,#1CD855,#FA92F8,0,10,0,38,1,1030.5,39,0,405.7999999523163,10,1,experiment,NA,NA,0,0.1,0.9,1,0,257,6,NA
fcp-trial,305,1382078,0.0-268.0-0.0,voc_e2,11778,"[{""event"":""fullscreenenter"",""trial"":1,""time"":2951}]",NA,NA,NA,NA,NA,3,#D8271C,#741CD8,0,0,1,40,0,510,37,1,671.3999999761581,0,1,experiment,NA,NA,1,0.7,0.3,2,3,258,6,NA
fcp-trial,306,1384622,0.0-269.0-0.0,voc_e2,11778,"[{""event"":""fullscreenenter"",""trial"":1,""time"":2951}]",NA,NA,NA,NA,NA,0,#D89F1C,#3386FF,10,10,0,40,0,485.5,37,1,551.7999999523163,10,0,experiment,NA,NA,2,0.5,0.5,5,4,259,6,NA
fcp-trial,307,1387367,0.0-270.0-0.0,voc_e2,11778,"[{""event"":""fullscreenenter"",""trial"":1,""time"":2951}]",NA,NA,NA,NA,NA,5,#1CD855,#FA92F8,0,10,0,38,1,789.7000000476837,39,0,447.10000002384186,10,1,experiment,NA,NA,0,0.1,0.9,1,0,260,6,NA
fcp-trial,308,1389718,0.0-271.0-0.0,voc_e2,11778,"[{""event"":""fullscreenenter"",""trial"":1,""time"":2951}]",NA,NA,NA,NA,NA,6,#FA92F8,#1CD855,10,0,1,38,1,404.8000000715256,37,1,437.6999999284744,10,1,experiment,NA,NA,0,0.9,0.1,0,1,261,6,NA
fcp-trial,309,1392446,0.0-272.0-0.0,voc_e2,11778,"[{""event"":""fullscreenenter"",""trial"":1,""time"":2951}]",NA,NA,NA,NA,NA,4,#D89F1C,#3386FF,10,0,0,40,0,692.2000000476837,39,0,526.3999999761581,0,1,experiment,NA,NA,2,0.5,0.5,5,4,262,6,NA
fcp-trial,310,1395166,0.0-273.0-0.0,voc_e2,11778,"[{""event"":""fullscreenenter"",""trial"":1,""time"":2951}]",NA,NA,NA,NA,NA,5,#D8271C,#741CD8,0,10,1,40,0,677.1999999284744,39,0,533.7000000476837,10,0,experiment,NA,NA,1,0.7,0.3,2,3,263,6,NA
fcp-trial,311,1397975,0.0-274.0-0.0,voc_e2,11778,"[{""event"":""fullscreenenter"",""trial"":1,""time"":2951}]",NA,NA,NA,NA,NA,0,#1CD855,#FA92F8,0,0,0,38,1,877.5999999046326,39,0,423,0,1,experiment,NA,NA,0,0.1,0.9,1,0,264,6,NA
fcp-trial,312,1401151,0.0-275.0-0.0,voc_e2,11778,"[{""event"":""fullscreenenter"",""trial"":1,""time"":2951}]",NA,NA,NA,NA,NA,2,#3386FF,#D89F1C,0,10,1,40,0,1148.6000000238419,39,0,517.9000000953674,10,0,experiment,NA,NA,2,0.5,0.5,4,5,265,6,NA
fcp-trial,313,1403622,0.0-276.0-0.0,voc_e2,11778,"[{""event"":""fullscreenenter"",""trial"":1,""time"":2951}]",NA,NA,NA,NA,NA,6,#741CD8,#D8271C,0,10,0,40,0,484.7000000476837,39,0,479.60000002384186,10,1,experiment,NA,NA,1,0.3,0.7,3,2,266,6,NA
fcp-trial,314,1406494,0.0-277.0-0.0,voc_e2,11778,"[{""event"":""fullscreenenter"",""trial"":1,""time"":2951}]",NA,NA,NA,NA,NA,4,#FA92F8,#1CD855,10,10,1,38,1,886.5,37,1,477.60000002384186,10,1,experiment,NA,NA,0,0.9,0.1,0,1,267,6,NA
fcp-trial,315,1409198,0.0-278.0-0.0,voc_e2,11778,"[{""event"":""fullscreenenter"",""trial"":1,""time"":2951}]",NA,NA,NA,NA,NA,2,#741CD8,#D8271C,10,10,0,40,0,645.8999999761581,37,1,551.2000000476837,10,0,experiment,NA,NA,1,0.3,0.7,3,2,268,6,NA
fcp-trial,316,1411919,0.0-279.0-0.0,voc_e2,11778,"[{""event"":""fullscreenenter"",""trial"":1,""time"":2951}]",NA,NA,NA,NA,NA,5,#3386FF,#D89F1C,0,10,1,40,0,607.3999999761581,37,1,607.9000000953674,0,1,experiment,NA,NA,2,0.5,0.5,4,5,269,6,NA
fcp-trial,317,1413878,0.0-280.0-0.0,voc_e2,11778,"[{""event"":""fullscreenenter"",""trial"":1,""time"":2951}]",NA,NA,NA,NA,NA,1,#741CD8,#D8271C,0,10,0,40,0,139.19999992847443,39,0,310.59999990463257,10,1,experiment,NA,NA,1,0.3,0.7,3,2,270,6,NA
fcp-trial,318,1417110,0.0-281.0-0.0,voc_e2,11778,"[{""event"":""fullscreenenter"",""trial"":1,""time"":2951}]",NA,NA,NA,NA,NA,6,#D89F1C,#3386FF,10,0,0,40,0,797.6000000238419,37,1,925.6999999284744,10,0,experiment,NA,NA,2,0.5,0.5,5,4,271,7,NA
fcp-trial,319,1419863,0.0-282.0-0.0,voc_e2,11778,"[{""event"":""fullscreenenter"",""trial"":1,""time"":2951}]",NA,NA,NA,NA,NA,1,#1CD855,#FA92F8,10,10,0,38,1,792.3999999761581,39,0,455.39999997615814,10,1,experiment,NA,NA,0,0.1,0.9,1,0,272,7,NA
fcp-trial,320,1422238,0.0-283.0-0.0,voc_e2,11778,"[{""event"":""fullscreenenter"",""trial"":1,""time"":2951}]",NA,NA,NA,NA,NA,4,#741CD8,#D8271C,0,10,0,40,0,380.7999999523163,39,0,487.6999999284744,10,1,experiment,NA,NA,1,0.3,0.7,3,2,273,7,NA
fcp-trial,321,1425359,0.0-284.0-0.0,voc_e2,11778,"[{""event"":""fullscreenenter"",""trial"":1,""time"":2951}]",NA,NA,NA,NA,NA,3,#1CD855,#FA92F8,0,10,0,38,1,1149.6000000238419,39,0,463.2000000476837,10,1,experiment,NA,NA,0,0.1,0.9,1,0,274,7,NA
fcp-trial,322,1428279,0.0-285.0-0.0,voc_e2,11778,"[{""event"":""fullscreenenter"",""trial"":1,""time"":2951}]",NA,NA,NA,NA,NA,4,#FA92F8,#1CD855,10,0,1,38,1,909.5,37,1,503.10000002384186,10,1,experiment,NA,NA,0,0.9,0.1,0,1,275,7,NA
fcp-trial,323,1431607,0.0-286.0-0.0,voc_e2,11778,"[{""event"":""fullscreenenter"",""trial"":1,""time"":2951}]",NA,NA,NA,NA,NA,1,#3386FF,#D89F1C,0,10,1,40,0,1357.2999999523163,37,1,463.10000002384186,0,1,experiment,NA,NA,2,0.5,0.5,4,5,276,7,NA
fcp-trial,324,1434486,0.0-287.0-0.0,voc_e2,11778,"[{""event"":""fullscreenenter"",""trial"":1,""time"":2951}]",NA,NA,NA,NA,NA,0,#D89F1C,#3386FF,0,0,0,40,0,819.0999999046326,37,1,550.7000000476837,0,0,experiment,NA,NA,2,0.5,0.5,5,4,277,7,NA
fcp-trial,325,1440022,0.0-288.0-0.0,voc_e2,11778,"[{""event"":""fullscreenenter"",""trial"":1,""time"":2951}]",NA,NA,NA,NA,NA,4,#741CD8,#D8271C,0,0,0,40,0,484.40000009536743,39,0,3542.3000000715256,0,1,experiment,NA,NA,1,0.3,0.7,3,2,278,7,NA
fcp-trial,326,1443847,0.0-289.0-0.0,voc_e2,11778,"[{""event"":""fullscreenenter"",""trial"":1,""time"":2951}]",NA,NA,NA,NA,NA,5,#3386FF,#D89F1C,10,10,1,40,0,678.7999999523163,37,1,1638,10,1,experiment,NA,NA,2,0.5,0.5,4,5,279,7,NA
fcp-trial,327,1446791,0.0-290.0-0.0,voc_e2,11778,"[{""event"":""fullscreenenter"",""trial"":1,""time"":2951}]",NA,NA,NA,NA,NA,2,#1CD855,#FA92F8,0,10,0,38,1,908.6999999284744,39,0,526.1000000238419,10,1,experiment,NA,NA,0,0.1,0.9,1,0,280,7,NA
fcp-trial,328,1451982,0.0-291.0-0.0,voc_e2,11778,"[{""event"":""fullscreenenter"",""trial"":1,""time"":2951}]",NA,NA,NA,NA,NA,5,#D8271C,#741CD8,10,0,1,40,0,1534.2999999523163,39,0,2151.100000023842,0,0,experiment,NA,NA,1,0.7,0.3,2,3,281,7,NA
fcp-trial,329,1454918,0.0-292.0-0.0,voc_e2,11778,"[{""event"":""fullscreenenter"",""trial"":1,""time"":2951}]",NA,NA,NA,NA,NA,1,#741CD8,#D8271C,0,10,0,40,0,734.3000000715256,37,1,694.3999999761581,0,0,experiment,NA,NA,1,0.3,0.7,3,2,282,7,NA
fcp-trial,330,1457758,0.0-293.0-0.0,voc_e2,11778,"[{""event"":""fullscreenenter"",""trial"":1,""time"":2951}]",NA,NA,NA,NA,NA,0,#1CD855,#FA92F8,0,10,0,40,0,716.2999999523163,39,0,614.2000000476837,10,1,experiment,NA,NA,0,0.1,0.9,1,0,283,7,NA
fcp-trial,331,1461142,0.0-294.0-0.0,voc_e2,11778,"[{""event"":""fullscreenenter"",""trial"":1,""time"":2951}]",NA,NA,NA,NA,NA,3,#D89F1C,#3386FF,10,10,0,40,0,1272.5,39,0,605.6000000238419,10,1,experiment,NA,NA,2,0.5,0.5,5,4,284,7,NA
fcp-trial,332,1464023,0.0-295.0-0.0,voc_e2,11778,"[{""event"":""fullscreenenter"",""trial"":1,""time"":2951}]",NA,NA,NA,NA,NA,6,#741CD8,#D8271C,10,10,0,40,0,823.3999999761581,39,0,551.3999999761581,10,1,experiment,NA,NA,1,0.3,0.7,3,2,285,7,NA
fcp-trial,333,1466617,0.0-296.0-0.0,voc_e2,11778,"[{""event"":""fullscreenenter"",""trial"":1,""time"":2951}]",NA,NA,NA,NA,NA,2,#741CD8,#D8271C,0,10,0,40,0,549.6999999284744,39,0,535.8999999761581,10,1,experiment,NA,NA,1,0.3,0.7,3,2,286,7,NA
fcp-trial,334,1469455,0.0-297.0-0.0,voc_e2,11778,"[{""event"":""fullscreenenter"",""trial"":1,""time"":2951}]",NA,NA,NA,NA,NA,1,#1CD855,#FA92F8,0,10,0,40,0,355.39999997615814,39,0,976.5,10,1,experiment,NA,NA,0,0.1,0.9,1,0,287,7,NA
fcp-trial,335,1471646,0.0-298.0-0.0,voc_e2,11778,"[{""event"":""fullscreenenter"",""trial"":1,""time"":2951}]",NA,NA,NA,NA,NA,0,#D8271C,#741CD8,10,0,1,40,0,212.89999997615814,37,1,470.89999997615814,10,1,experiment,NA,NA,1,0.7,0.3,2,3,288,7,NA
fcp-trial,336,1473902,0.0-299.0-0.0,voc_e2,11778,"[{""event"":""fullscreenenter"",""trial"":1,""time"":2951}]",NA,NA,NA,NA,NA,2,#3386FF,#D89F1C,10,0,1,40,0,341.60000002384186,37,1,406.60000002384186,10,1,experiment,NA,NA,2,0.5,0.5,4,5,289,7,NA
fcp-trial,337,1475935,0.0-300.0-0.0,voc_e2,11778,"[{""event"":""fullscreenenter"",""trial"":1,""time"":2951}]",NA,NA,NA,NA,NA,6,#1CD855,#FA92F8,0,10,0,40,0,63.299999952316284,37,1,462.1999999284744,0,0,experiment,NA,NA,0,0.1,0.9,1,0,290,7,NA
fcp-trial,338,1479671,0.0-301.0-0.0,voc_e2,11778,"[{""event"":""fullscreenenter"",""trial"":1,""time"":2951}]",NA,NA,NA,NA,NA,6,#D89F1C,#3386FF,10,0,0,40,0,1812.6000000238419,37,1,414.2000000476837,10,0,experiment,NA,NA,2,0.5,0.5,5,4,291,7,NA
fcp-trial,339,1481751,0.0-302.0-0.0,voc_e2,11778,"[{""event"":""fullscreenenter"",""trial"":1,""time"":2951}]",NA,NA,NA,NA,NA,3,#741CD8,#D8271C,0,10,0,40,0,285.10000002384186,37,1,286.09999990463257,0,0,experiment,NA,NA,1,0.3,0.7,3,2,292,7,NA
fcp-trial,340,1483782,0.0-303.0-0.0,voc_e2,11778,"[{""event"":""fullscreenenter"",""trial"":1,""time"":2951}]",NA,NA,NA,NA,NA,4,#3386FF,#D89F1C,10,0,1,40,0,138.5,37,1,382.39999997615814,10,1,experiment,NA,NA,2,0.5,0.5,4,5,293,7,NA
fcp-trial,341,1486478,0.0-304.0-0.0,voc_e2,11778,"[{""event"":""fullscreenenter"",""trial"":1,""time"":2951}]",NA,NA,NA,NA,NA,5,#1CD855,#FA92F8,0,10,0,38,1,489,39,0,691.3999999761581,10,1,experiment,NA,NA,0,0.1,0.9,1,0,294,7,NA
fcp-trial,342,1488863,0.0-305.0-0.0,voc_e2,11778,"[{""event"":""fullscreenenter"",""trial"":1,""time"":2951}]",NA,NA,NA,NA,NA,3,#D8271C,#741CD8,0,0,1,40,0,294.60000002384186,39,0,583.6000000238419,0,0,experiment,NA,NA,1,0.7,0.3,2,3,295,7,NA
fcp-trial,343,1491680,0.0-306.0-0.0,voc_e2,11778,"[{""event"":""fullscreenenter"",""trial"":1,""time"":2951}]",NA,NA,NA,NA,NA,4,#1CD855,#FA92F8,0,10,0,38,1,820.8000000715256,39,0,487,10,1,experiment,NA,NA,0,0.1,0.9,1,0,296,7,NA
fcp-trial,344,1494487,0.0-307.0-0.0,voc_e2,11778,"[{""event"":""fullscreenenter"",""trial"":1,""time"":2951}]",NA,NA,NA,NA,NA,5,#D89F1C,#3386FF,10,0,0,40,0,772.2000000476837,39,0,527.3999999761581,0,1,experiment,NA,NA,2,0.5,0.5,5,4,297,7,NA
fcp-trial,345,1497735,0.0-308.0-0.0,voc_e2,11778,"[{""event"":""fullscreenenter"",""trial"":1,""time"":2951}]",NA,NA,NA,NA,NA,4,#D89F1C,#3386FF,0,10,0,40,0,1126.6000000238419,39,0,615.6999999284744,10,1,experiment,NA,NA,2,0.5,0.5,5,4,298,7,NA
fcp-trial,346,1500767,0.0-309.0-0.0,voc_e2,11778,"[{""event"":""fullscreenenter"",""trial"":1,""time"":2951}]",NA,NA,NA,NA,NA,0,#FA92F8,#1CD855,10,0,1,38,1,1043.1000000238419,37,1,477.89999997615814,10,1,experiment,NA,NA,0,0.9,0.1,0,1,299,7,NA
fcp-trial,347,1503511,0.0-310.0-0.0,voc_e2,11778,"[{""event"":""fullscreenenter"",""trial"":1,""time"":2951}]",NA,NA,NA,NA,NA,2,#D8271C,#741CD8,10,10,1,40,0,635.5,37,1,598.7999999523163,10,1,experiment,NA,NA,1,0.7,0.3,2,3,300,7,NA
fcp-trial,348,1506688,0.0-311.0-0.0,voc_e2,11778,"[{""event"":""fullscreenenter"",""trial"":1,""time"":2951}]",NA,NA,NA,NA,NA,3,#D89F1C,#3386FF,10,0,0,40,0,1213.7999999523163,39,0,454,0,1,experiment,NA,NA,2,0.5,0.5,5,4,301,7,NA
fcp-trial,349,1509734,0.0-312.0-0.0,voc_e2,11778,"[{""event"":""fullscreenenter"",""trial"":1,""time"":2951}]",NA,NA,NA,NA,NA,1,#FA92F8,#1CD855,0,0,1,38,1,1045.2999999523163,37,1,495,0,1,experiment,NA,NA,0,0.9,0.1,0,1,302,7,NA
fcp-trial,350,1513383,0.0-313.0-0.0,voc_e2,11778,"[{""event"":""fullscreenenter"",""trial"":1,""time"":2951}]",NA,NA,NA,NA,NA,4,#D8271C,#741CD8,10,0,1,38,1,1628.7000000476837,39,0,510.5,0,0,experiment,NA,NA,1,0.7,0.3,2,3,303,7,NA
fcp-trial,351,1516151,0.0-314.0-0.0,voc_e2,11778,"[{""event"":""fullscreenenter"",""trial"":1,""time"":2951}]",NA,NA,NA,NA,NA,1,#3386FF,#D89F1C,0,10,1,40,0,653.3999999761581,37,1,606.8999999761581,0,1,experiment,NA,NA,2,0.5,0.5,4,5,304,7,NA
fcp-trial,352,1518607,0.0-315.0-0.0,voc_e2,11778,"[{""event"":""fullscreenenter"",""trial"":1,""time"":2951}]",NA,NA,NA,NA,NA,1,#741CD8,#D8271C,0,10,0,40,0,484.10000002384186,37,1,462.40000009536743,0,0,experiment,NA,NA,1,0.3,0.7,3,2,305,7,NA
fcp-trial,353,1521199,0.0-316.0-0.0,voc_e2,11778,"[{""event"":""fullscreenenter"",""trial"":1,""time"":2951}]",NA,NA,NA,NA,NA,2,#FA92F8,#1CD855,10,0,1,40,0,373.7000000476837,39,0,710.1000000238419,0,0,experiment,NA,NA,0,0.9,0.1,0,1,306,7,NA
fcp-trial,354,1523655,0.0-317.0-0.0,voc_e2,11778,"[{""event"":""fullscreenenter"",""trial"":1,""time"":2951}]",NA,NA,NA,NA,NA,5,#FA92F8,#1CD855,10,0,1,38,1,509.10000002384186,37,1,440.10000002384186,10,1,experiment,NA,NA,0,0.9,0.1,0,1,307,7,NA
fcp-trial,355,1526480,0.0-318.0-0.0,voc_e2,11778,"[{""event"":""fullscreenenter"",""trial"":1,""time"":2951}]",NA,NA,NA,NA,NA,5,#D8271C,#741CD8,10,0,1,40,0,813.2000000476837,37,1,502.39999997615814,10,1,experiment,NA,NA,1,0.7,0.3,2,3,308,7,NA
fcp-trial,356,1529351,0.0-319.0-0.0,voc_e2,11778,"[{""event"":""fullscreenenter"",""trial"":1,""time"":2951}]",NA,NA,NA,NA,NA,0,#D89F1C,#3386FF,0,0,0,40,0,915.7000000476837,39,0,447.10000002384186,0,1,experiment,NA,NA,2,0.5,0.5,5,4,309,7,NA
fcp-trial,357,1532031,0.0-320.0-0.0,voc_e2,11778,"[{""event"":""fullscreenenter"",""trial"":1,""time"":2951}]",NA,NA,NA,NA,NA,3,#FA92F8,#1CD855,10,0,1,38,1,907.1999999284744,37,1,262.6999999284744,10,1,experiment,NA,NA,0,0.9,0.1,0,1,310,7,NA
fcp-trial,358,1535847,0.0-321.0-0.0,voc_e2,11778,"[{""event"":""fullscreenenter"",""trial"":1,""time"":2951}]",NA,NA,NA,NA,NA,0,#741CD8,#D8271C,0,10,0,38,1,1852.5999999046326,37,1,454.2999999523163,0,0,experiment,NA,NA,1,0.3,0.7,3,2,311,7,NA
fcp-trial,359,1539630,0.0-322.0-0.0,voc_e2,11778,"[{""event"":""fullscreenenter"",""trial"":1,""time"":2951}]",NA,NA,NA,NA,NA,2,#3386FF,#D89F1C,0,10,1,40,0,1789.6999999284744,37,1,487.2000000476837,0,1,experiment,NA,NA,2,0.5,0.5,4,5,312,7,NA
fcp-trial,360,1542431,0.0-323.0-0.0,voc_e2,11778,"[{""event"":""fullscreenenter"",""trial"":1,""time"":2951}]",NA,NA,NA,NA,NA,6,#FA92F8,#1CD855,0,10,1,38,1,727.2000000476837,37,1,566.6999999284744,0,1,experiment,NA,NA,0,0.9,0.1,0,1,313,7,NA
fcp-trial,361,1546815,0.0-324.0-0.0,voc_e2,11778,"[{""event"":""fullscreenenter"",""trial"":1,""time"":2951}]",NA,NA,NA,NA,NA,6,#D8271C,#741CD8,10,0,1,40,0,2461.399999976158,37,1,415.2999999523163,10,1,experiment,NA,NA,1,0.7,0.3,2,3,314,7,NA
fcp-trial,362,1549494,0.0-325.0-0.0,voc_e2,11778,"[{""event"":""fullscreenenter"",""trial"":1,""time"":2951}]",NA,NA,NA,NA,NA,6,#3386FF,#D89F1C,10,10,1,40,0,773.1000000238419,39,0,398.2999999523163,10,0,experiment,NA,NA,2,0.5,0.5,4,5,315,7,NA
audio-instructions,363,1556225,0.0-326.0,voc_e2,11778,"[{""event"":""fullscreenenter"",""trial"":1,""time"":2951}]",NA,1052.7999999523165,static/audio/finished.wav,NA,0,NA,NA,NA,NA,NA,NA,NA,NA,NA,NA,NA,NA,NA,NA,NA,NA,NA,NA,NA,NA,NA,NA,NA,NA,NA
audio-instructions,364,1568872,0.0-327.0-0.0,voc_e2,11778,"[{""event"":""fullscreenenter"",""trial"":1,""time"":2951}]",NA,1809,static/audio/explicit1.wav,NA,0,NA,NA,NA,NA,NA,NA,NA,NA,NA,NA,NA,NA,NA,NA,NA,NA,NA,NA,NA,NA,NA,NA,NA,NA,NA
audio-instructions,365,1578019,0.0-327.0-1.0,voc_e2,11778,"[{""event"":""fullscreenenter"",""trial"":1,""time"":2951}]",NA,1547.100000023842,static/audio/explicit2.wav,NA,0,NA,NA,NA,NA,NA,NA,NA,NA,NA,NA,NA,NA,NA,NA,NA,NA,NA,NA,NA,NA,NA,NA,NA,NA,NA
image-slider-response,366,1582295,0.0-328.0,voc_e2,11778,"[{""event"":""fullscreenenter"",""trial"":1,""time"":2951}]",NA,4274,static/img/machines/machine5.png,NA,NA,NA,NA,NA,NA,NA,NA,NA,NA,NA,NA,NA,NA,NA,NA,explicit,NA,NA,NA,NA,NA,NA,NA,NA,NA,9
image-slider-response,367,1584667,0.0-329.0,voc_e2,11778,"[{""event"":""fullscreenenter"",""trial"":1,""time"":2951}]",NA,2371.1999999284744,static/img/machines/machine1.png,NA,NA,NA,NA,NA,NA,NA,NA,NA,NA,NA,NA,NA,NA,NA,NA,explicit,NA,NA,NA,NA,NA,NA,NA,NA,NA,5
image-slider-response,368,1588267,0.0-330.0,voc_e2,11778,"[{""event"":""fullscreenenter"",""trial"":1,""time"":2951}]",NA,3597.899999976158,static/img/machines/machine3.png,NA,NA,NA,NA,NA,NA,NA,NA,NA,NA,NA,NA,NA,NA,NA,NA,explicit,NA,NA,NA,NA,NA,NA,NA,NA,NA,6
image-slider-response,369,1594142,0.0-331.0,voc_e2,11778,"[{""event"":""fullscreenenter"",""trial"":1,""time"":2951}]",NA,5873.300000071526,static/img/machines/machine6.png,NA,NA,NA,NA,NA,NA,NA,NA,NA,NA,NA,NA,NA,NA,NA,NA,explicit,NA,NA,NA,NA,NA,NA,NA,NA,NA,3
image-slider-response,370,1599281,0.0-332.0,voc_e2,11778,"[{""event"":""fullscreenenter"",""trial"":1,""time"":2951}]",NA,5137.800000071526,static/img/machines/machine4.png,NA,NA,NA,NA,NA,NA,NA,NA,NA,NA,NA,NA,NA,NA,NA,NA,explicit,NA,NA,NA,NA,NA,NA,NA,NA,NA,4
image-slider-response,371,1602115,0.0-333.0,voc_e2,11778,"[{""event"":""fullscreenenter"",""trial"":1,""time"":2951}]",NA,2832.5,static/img/machines/machine2.png,NA,NA,NA,NA,NA,NA,NA,NA,NA,NA,NA,NA,NA,NA,NA,NA,explicit,NA,NA,NA,NA,NA,NA,NA,NA,NA,5
