trial_type,trial_index,time_elapsed,internal_node_id,task_version,subject_id,interactions,success,rt,stimulus,key_press,button_pressed,offer,arcade_color_L,arcade_color_R,arcade_outcome_L,arcade_outcome_R,correct,stage_1_key,stage_1_choice,stage_1_rt,stage_2_key,stage_2_choice,stage_2_rt,stage_3_outcome,accuracy,phase,responses,num_errors,context,reward_prob_L,reward_prob_R,arcade_id_L,arcade_id_R,trial,block,response
pavlovia,0,8,0.0-0.0,voc_e2,12002,[],NA,NA,NA,NA,NA,NA,NA,NA,NA,NA,NA,NA,NA,NA,NA,NA,NA,NA,NA,NA,NA,NA,NA,NA,NA,NA,NA,NA,NA,NA
fullscreen,1,2449,0.0-1.0,voc_e2,12002,"[{""event"":""fullscreenenter"",""trial"":1,""time"":1460}]",TRUE,NA,NA,NA,NA,NA,NA,NA,NA,NA,NA,NA,NA,NA,NA,NA,NA,NA,NA,NA,NA,NA,NA,NA,NA,NA,NA,NA,NA,NA
audio-keyboard-response,2,5617,0.0-2.0,voc_e2,12002,"[{""event"":""fullscreenenter"",""trial"":1,""time"":1460}]",NA,3160,static/audio/beep_loop.wav,32,NA,NA,NA,NA,NA,NA,NA,NA,NA,NA,NA,NA,NA,NA,NA,NA,NA,NA,NA,NA,NA,NA,NA,NA,NA,NA
audio-test,3,6948,0.0-3.0,voc_e2,12002,"[{""event"":""fullscreenenter"",""trial"":1,""time"":1460}]",NA,NA,static/audio/turtle.wav,NA,3,NA,NA,NA,NA,NA,NA,NA,NA,NA,NA,NA,NA,NA,NA,NA,NA,NA,NA,NA,NA,NA,NA,NA,NA,NA
audio-test,4,8948,0.0-4.0,voc_e2,12002,"[{""event"":""fullscreenenter"",""trial"":1,""time"":1460}]",NA,NA,static/audio/shark.wav,NA,2,NA,NA,NA,NA,NA,NA,NA,NA,NA,NA,NA,NA,NA,NA,NA,NA,NA,NA,NA,NA,NA,NA,NA,NA,NA
audio-instructions,5,16205,0.0-5.0-0.0,voc_e2,12002,"[{""event"":""fullscreenenter"",""trial"":1,""time"":1460}]",NA,1471.5,static/audio/instructions1.wav,NA,0,NA,NA,NA,NA,NA,NA,NA,NA,NA,NA,NA,NA,NA,NA,NA,NA,NA,NA,NA,NA,NA,NA,NA,NA,NA
audio-instructions,6,24848,0.0-5.0-1.0,voc_e2,12002,"[{""event"":""fullscreenenter"",""trial"":1,""time"":1460}]",NA,1905.0999999940395,static/audio/instructions2.wav,NA,0,NA,NA,NA,NA,NA,NA,NA,NA,NA,NA,NA,NA,NA,NA,NA,NA,NA,NA,NA,NA,NA,NA,NA,NA,NA
audio-instructions,7,32109,0.0-5.0-2.0,voc_e2,12002,"[{""event"":""fullscreenenter"",""trial"":1,""time"":1460}]",NA,1455.7999999970198,static/audio/instructions3.wav,NA,0,NA,NA,NA,NA,NA,NA,NA,NA,NA,NA,NA,NA,NA,NA,NA,NA,NA,NA,NA,NA,NA,NA,NA,NA,NA
audio-instructions,8,47018,0.0-5.0-3.0,voc_e2,12002,"[{""event"":""fullscreenenter"",""trial"":1,""time"":1460}]",NA,1684.8999999910593,static/audio/instructions4.wav,NA,0,NA,NA,NA,NA,NA,NA,NA,NA,NA,NA,NA,NA,NA,NA,NA,NA,NA,NA,NA,NA,NA,NA,NA,NA,NA
audio-instructions,9,57645,0.0-5.0-4.0,voc_e2,12002,"[{""event"":""fullscreenenter"",""trial"":1,""time"":1460}]",NA,1241.7000000029802,static/audio/instructions5.wav,NA,0,NA,NA,NA,NA,NA,NA,NA,NA,NA,NA,NA,NA,NA,NA,NA,NA,NA,NA,NA,NA,NA,NA,NA,NA,NA
fcp-practice,10,60508,0.0-5.0-5.0-0.0,voc_e2,12002,"[{""event"":""fullscreenenter"",""trial"":1,""time"":1460}]",NA,NA,NA,NA,NA,NA,#EDC948,#46d3c8,10,0,1,null,null,null,37,1,1350.5,10,1,practice,NA,NA,NA,NA,NA,NA,NA,NA,NA,NA
fcp-practice,11,62426,0.0-5.0-5.0-1.0,voc_e2,12002,"[{""event"":""fullscreenenter"",""trial"":1,""time"":1460}]",NA,NA,NA,NA,NA,NA,#EDC948,#46d3c8,10,0,1,null,null,null,37,1,414.09999999403954,10,1,practice,NA,NA,NA,NA,NA,NA,NA,NA,NA,NA
fcp-practice,12,64258,0.0-5.0-5.0-2.0,voc_e2,12002,"[{""event"":""fullscreenenter"",""trial"":1,""time"":1460}]",NA,NA,NA,NA,NA,NA,#EDC948,#46d3c8,0,10,1,null,null,null,37,1,323,0,1,practice,NA,NA,NA,NA,NA,NA,NA,NA,NA,NA
fcp-practice,13,66188,0.0-5.0-5.0-3.0,voc_e2,12002,"[{""event"":""fullscreenenter"",""trial"":1,""time"":1460}]",NA,NA,NA,NA,NA,NA,#EDC948,#46d3c8,10,0,1,null,null,null,37,1,418.3999999910593,10,1,practice,NA,NA,NA,NA,NA,NA,NA,NA,NA,NA
fcp-practice,14,68051,0.0-5.0-5.0-4.0,voc_e2,12002,"[{""event"":""fullscreenenter"",""trial"":1,""time"":1460}]",NA,NA,NA,NA,NA,NA,#EDC948,#46d3c8,10,0,1,null,null,null,37,1,356.8999999910593,10,1,practice,NA,NA,NA,NA,NA,NA,NA,NA,NA,NA
audio-instructions,15,91256,0.0-5.0-6.0,voc_e2,12002,"[{""event"":""fullscreenenter"",""trial"":1,""time"":1460}]",NA,5192.70000000298,static/audio/instructions6.wav,NA,0,NA,NA,NA,NA,NA,NA,NA,NA,NA,NA,NA,NA,NA,NA,NA,NA,NA,NA,NA,NA,NA,NA,NA,NA,NA
audio-instructions,16,111668,0.0-5.0-7.0,voc_e2,12002,"[{""event"":""fullscreenenter"",""trial"":1,""time"":1460}]",NA,1214.0999999940395,static/audio/instructions7.wav,NA,0,NA,NA,NA,NA,NA,NA,NA,NA,NA,NA,NA,NA,NA,NA,NA,NA,NA,NA,NA,NA,NA,NA,NA,NA,NA
audio-instructions,17,123310,0.0-5.0-8.0,voc_e2,12002,"[{""event"":""fullscreenenter"",""trial"":1,""time"":1460}]",NA,2167.1000000089407,static/audio/instructions8.wav,NA,0,NA,NA,NA,NA,NA,NA,NA,NA,NA,NA,NA,NA,NA,NA,NA,NA,NA,NA,NA,NA,NA,NA,NA,NA,NA
fcp-comprehension,18,128256,0.0-5.0-9.0,voc_e2,12002,"[{""event"":""fullscreenenter"",""trial"":1,""time"":1460}]",NA,4944.399999991059,NA,NA,NA,NA,NA,NA,NA,NA,NA,NA,NA,NA,NA,NA,NA,NA,NA,NA,"true,true",0,NA,NA,NA,NA,NA,NA,NA,NA
audio-instructions,19,135321,0.0-6.0-0.0,voc_e2,12002,"[{""event"":""fullscreenenter"",""trial"":1,""time"":1460}]",NA,1518.7999999970198,static/audio/instructions9.wav,NA,0,NA,NA,NA,NA,NA,NA,NA,NA,NA,NA,NA,NA,NA,NA,NA,NA,NA,NA,NA,NA,NA,NA,NA,NA,NA
audio-instructions,20,147980,0.0-6.0-1.0,voc_e2,12002,"[{""event"":""fullscreenenter"",""trial"":1,""time"":1460}]",NA,537.1000000089407,static/audio/instructions10.wav,NA,0,NA,NA,NA,NA,NA,NA,NA,NA,NA,NA,NA,NA,NA,NA,NA,NA,NA,NA,NA,NA,NA,NA,NA,NA,NA
fcp-trial,21,152142,0.0-6.0-2.0,voc_e2,12002,"[{""event"":""fullscreenenter"",""trial"":1,""time"":1460}]",NA,NA,NA,NA,NA,0,#EDC948,#46d3c8,10,10,1,38,1,1187.7000000029802,39,0,1437.9000000059605,10,0,practice,NA,NA,NA,NA,NA,NA,NA,NA,NA,NA
audio-instructions,22,163767,0.0-6.0-3.0,voc_e2,12002,"[{""event"":""fullscreenenter"",""trial"":1,""time"":1460}]",NA,615.3000000119209,static/audio/instructions11.wav,NA,0,NA,NA,NA,NA,NA,NA,NA,NA,NA,NA,NA,NA,NA,NA,NA,NA,NA,NA,NA,NA,NA,NA,NA,NA,NA
fcp-trial,23,167340,0.0-6.0-4.0,voc_e2,12002,"[{""event"":""fullscreenenter"",""trial"":1,""time"":1460}]",NA,NA,NA,NA,NA,6,#EDC948,#46d3c8,10,10,1,40,0,970.2000000029802,37,1,1088,10,1,practice,NA,NA,NA,NA,NA,NA,NA,NA,NA,NA
audio-instructions,24,187570,0.0-6.0-5.0,voc_e2,12002,"[{""event"":""fullscreenenter"",""trial"":1,""time"":1460}]",NA,1537.7000000029802,static/audio/instructions12.wav,NA,0,NA,NA,NA,NA,NA,NA,NA,NA,NA,NA,NA,NA,NA,NA,NA,NA,NA,NA,NA,NA,NA,NA,NA,NA,NA
audio-instructions,25,195775,0.0-6.0-6.0,voc_e2,12002,"[{""event"":""fullscreenenter"",""trial"":1,""time"":1460}]",NA,612.3000000119209,static/audio/instructions13.wav,NA,0,NA,NA,NA,NA,NA,NA,NA,NA,NA,NA,NA,NA,NA,NA,NA,NA,NA,NA,NA,NA,NA,NA,NA,NA,NA
audio-instructions,26,204988,0.0-6.0-7.0,voc_e2,12002,"[{""event"":""fullscreenenter"",""trial"":1,""time"":1460}]",NA,765.5999999940395,static/audio/instructions14.wav,NA,0,NA,NA,NA,NA,NA,NA,NA,NA,NA,NA,NA,NA,NA,NA,NA,NA,NA,NA,NA,NA,NA,NA,NA,NA,NA
audio-instructions,27,212433,0.0-7.0-0.0,voc_e2,12002,"[{""event"":""fullscreenenter"",""trial"":1,""time"":1460}]",NA,530.5,static/audio/instructions15.wav,NA,0,NA,NA,NA,NA,NA,NA,NA,NA,NA,NA,NA,NA,NA,NA,NA,NA,NA,NA,NA,NA,NA,NA,NA,NA,NA
audio-instructions,28,220249,0.0-7.0-1.0,voc_e2,12002,"[{""event"":""fullscreenenter"",""trial"":1,""time"":1460}]",NA,986.6000000089408,static/audio/instructions16.wav,NA,0,NA,NA,NA,NA,NA,NA,NA,NA,NA,NA,NA,NA,NA,NA,NA,NA,NA,NA,NA,NA,NA,NA,NA,NA,NA
audio-instructions,29,230908,0.0-7.0-2.0,voc_e2,12002,"[{""event"":""fullscreenenter"",""trial"":1,""time"":1460}]",NA,2985.20000000298,static/audio/instructions17.wav,NA,0,NA,NA,NA,NA,NA,NA,NA,NA,NA,NA,NA,NA,NA,NA,NA,NA,NA,NA,NA,NA,NA,NA,NA,NA,NA
audio-instructions,30,239449,0.0-7.0-3.0,voc_e2,12002,"[{""event"":""fullscreenenter"",""trial"":1,""time"":1460}]",NA,776,static/audio/instructions18.wav,NA,0,NA,NA,NA,NA,NA,NA,NA,NA,NA,NA,NA,NA,NA,NA,NA,NA,NA,NA,NA,NA,NA,NA,NA,NA,NA
audio-instructions,31,246620,0.0-7.0-4.0,voc_e2,12002,"[{""event"":""fullscreenenter"",""trial"":1,""time"":1460}]",NA,437.70000000298023,static/audio/instructions19.wav,NA,0,NA,NA,NA,NA,NA,NA,NA,NA,NA,NA,NA,NA,NA,NA,NA,NA,NA,NA,NA,NA,NA,NA,NA,NA,NA
fcp-comprehension,32,255709,0.0-7.0-5.0,voc_e2,12002,"[{""event"":""fullscreenenter"",""trial"":1,""time"":1460}]",NA,9086.79999999702,NA,NA,NA,NA,NA,NA,NA,NA,NA,NA,NA,NA,NA,NA,NA,NA,NA,NA,"false,false,false,true",0,NA,NA,NA,NA,NA,NA,NA,NA
audio-instructions,33,267431,0.0-8.0,voc_e2,12002,"[{""event"":""fullscreenenter"",""trial"":1,""time"":1460}]",NA,2499.20000000298,static/audio/ready.wav,NA,0,NA,NA,NA,NA,NA,NA,NA,NA,NA,NA,NA,NA,NA,NA,NA,NA,NA,NA,NA,NA,NA,NA,NA,NA,NA
fcp-trial,34,271870,0.0-9.0-0.0,voc_e2,12002,"[{""event"":""fullscreenenter"",""trial"":1,""time"":1460}]",NA,NA,NA,NA,NA,6,#3386FF,#D89F1C,10,10,1,40,0,2139.1000000089407,37,1,778.8000000119209,10,1,experiment,NA,NA,1,0.7,0.3,2,3,1,1,NA
fcp-trial,35,275517,0.0-10.0-0.0,voc_e2,12002,"[{""event"":""fullscreenenter"",""trial"":1,""time"":1460}]",NA,NA,NA,NA,NA,4,#D89F1C,#3386FF,10,10,0,38,1,1258,39,0,882.5,10,1,experiment,NA,NA,1,0.3,0.7,3,2,2,1,NA
fcp-trial,36,278978,0.0-11.0-0.0,voc_e2,12002,"[{""event"":""fullscreenenter"",""trial"":1,""time"":1460}]",NA,NA,NA,NA,NA,0,#1CD855,#FA92F8,10,0,1,38,1,1191.2999999970198,39,0,762.6000000089407,0,0,experiment,NA,NA,2,0.5,0.5,4,5,3,1,NA
fcp-trial,37,281974,0.0-12.0-0.0,voc_e2,12002,"[{""event"":""fullscreenenter"",""trial"":1,""time"":1460}]",NA,NA,NA,NA,NA,2,#1CD855,#FA92F8,10,0,1,38,1,946.2000000029802,37,1,533.7000000029802,10,1,experiment,NA,NA,2,0.5,0.5,4,5,4,1,NA
fcp-trial,38,285280,0.0-13.0-0.0,voc_e2,12002,"[{""event"":""fullscreenenter"",""trial"":1,""time"":1460}]",NA,NA,NA,NA,NA,4,#D8271C,#741CD8,0,10,0,40,0,1272.4000000059605,39,0,516.2999999970198,10,1,experiment,NA,NA,0,0.1,0.9,1,0,5,1,NA
fcp-trial,39,288468,0.0-14.0-0.0,voc_e2,12002,"[{""event"":""fullscreenenter"",""trial"":1,""time"":1460}]",NA,NA,NA,NA,NA,6,#D8271C,#741CD8,0,10,0,40,0,1049.3999999910593,39,0,631.9000000059605,10,1,experiment,NA,NA,0,0.1,0.9,1,0,6,1,NA
fcp-trial,40,291420,0.0-15.0-0.0,voc_e2,12002,"[{""event"":""fullscreenenter"",""trial"":1,""time"":1460}]",NA,NA,NA,NA,NA,1,#3386FF,#D89F1C,10,0,1,38,1,903,37,1,534.4000000059605,10,1,experiment,NA,NA,1,0.7,0.3,2,3,7,1,NA
fcp-trial,41,294244,0.0-16.0-0.0,voc_e2,12002,"[{""event"":""fullscreenenter"",""trial"":1,""time"":1460}]",NA,NA,NA,NA,NA,3,#D8271C,#741CD8,0,10,0,38,1,752.5999999940395,39,0,562.6000000089407,10,1,experiment,NA,NA,0,0.1,0.9,1,0,8,1,NA
fcp-trial,42,296836,0.0-17.0-0.0,voc_e2,12002,"[{""event"":""fullscreenenter"",""trial"":1,""time"":1460}]",NA,NA,NA,NA,NA,6,#FA92F8,#1CD855,10,10,0,38,1,537.7999999970198,37,1,549.0999999940395,10,0,experiment,NA,NA,2,0.5,0.5,5,4,9,1,NA
fcp-trial,43,299582,0.0-18.0-0.0,voc_e2,12002,"[{""event"":""fullscreenenter"",""trial"":1,""time"":1460}]",NA,NA,NA,NA,NA,5,#741CD8,#D8271C,10,0,1,40,0,722.1000000089407,39,0,520.1000000089407,0,0,experiment,NA,NA,0,0.9,0.1,0,1,10,1,NA
fcp-trial,44,302872,0.0-19.0-0.0,voc_e2,12002,"[{""event"":""fullscreenenter"",""trial"":1,""time"":1460}]",NA,NA,NA,NA,NA,5,#1CD855,#FA92F8,10,0,1,38,1,1145.2000000029802,37,1,640.5999999940395,10,1,experiment,NA,NA,2,0.5,0.5,4,5,11,1,NA
fcp-trial,45,305879,0.0-20.0-0.0,voc_e2,12002,"[{""event"":""fullscreenenter"",""trial"":1,""time"":1460}]",NA,NA,NA,NA,NA,3,#D89F1C,#3386FF,0,10,0,38,1,1001.2999999970198,39,0,497.70000000298023,10,1,experiment,NA,NA,1,0.3,0.7,3,2,12,1,NA
fcp-trial,46,309018,0.0-21.0-0.0,voc_e2,12002,"[{""event"":""fullscreenenter"",""trial"":1,""time"":1460}]",NA,NA,NA,NA,NA,0,#741CD8,#D8271C,10,0,1,38,1,1010.6000000089407,39,0,617.5999999940395,0,0,experiment,NA,NA,0,0.9,0.1,0,1,13,1,NA
fcp-trial,47,311913,0.0-22.0-0.0,voc_e2,12002,"[{""event"":""fullscreenenter"",""trial"":1,""time"":1460}]",NA,NA,NA,NA,NA,4,#FA92F8,#1CD855,10,10,0,38,1,844.7000000029802,37,1,540.2999999970198,10,0,experiment,NA,NA,2,0.5,0.5,5,4,14,1,NA
fcp-trial,48,314703,0.0-23.0-0.0,voc_e2,12002,"[{""event"":""fullscreenenter"",""trial"":1,""time"":1460}]",NA,NA,NA,NA,NA,3,#FA92F8,#1CD855,10,10,0,38,1,859.6999999880791,39,0,424.800000011921,10,1,experiment,NA,NA,2,0.5,0.5,5,4,15,1,NA
fcp-trial,49,317244,0.0-24.0-0.0,voc_e2,12002,"[{""event"":""fullscreenenter"",""trial"":1,""time"":1460}]",NA,NA,NA,NA,NA,2,#D8271C,#741CD8,0,10,0,38,1,502.5,37,1,528.3999999910593,0,0,experiment,NA,NA,0,0.1,0.9,1,0,16,1,NA
fcp-trial,50,320882,0.0-25.0-0.0,voc_e2,12002,"[{""event"":""fullscreenenter"",""trial"":1,""time"":1460}]",NA,NA,NA,NA,NA,2,#D89F1C,#3386FF,0,10,0,38,1,1711.7000000029802,39,0,421.59999999403954,10,1,experiment,NA,NA,1,0.3,0.7,3,2,17,1,NA
fcp-trial,51,323706,0.0-26.0-0.0,voc_e2,12002,"[{""event"":""fullscreenenter"",""trial"":1,""time"":1460}]",NA,NA,NA,NA,NA,1,#FA92F8,#1CD855,0,0,0,38,1,753.0999999940395,37,1,567.2000000029802,0,0,experiment,NA,NA,2,0.5,0.5,5,4,18,1,NA
fcp-trial,52,326352,0.0-27.0-0.0,voc_e2,12002,"[{""event"":""fullscreenenter"",""trial"":1,""time"":1460}]",NA,NA,NA,NA,NA,0,#3386FF,#D89F1C,0,0,1,38,1,771.5,39,0,371.40000000596046,0,0,experiment,NA,NA,1,0.7,0.3,2,3,19,1,NA
fcp-trial,53,328704,0.0-28.0-0.0,voc_e2,12002,"[{""event"":""fullscreenenter"",""trial"":1,""time"":1460}]",NA,NA,NA,NA,NA,5,#D89F1C,#3386FF,0,10,0,38,1,387.8999999910593,37,1,459.79999999701977,0,0,experiment,NA,NA,1,0.3,0.7,3,2,20,1,NA
fcp-trial,54,331023,0.0-29.0-0.0,voc_e2,12002,"[{""event"":""fullscreenenter"",""trial"":1,""time"":1460}]",NA,NA,NA,NA,NA,1,#D8271C,#741CD8,0,10,0,40,0,334.59999999403954,39,0,475.09999999403954,10,1,experiment,NA,NA,0,0.1,0.9,1,0,21,1,NA
fcp-trial,55,333939,0.0-30.0-0.0,voc_e2,12002,"[{""event"":""fullscreenenter"",""trial"":1,""time"":1460}]",NA,NA,NA,NA,NA,5,#FA92F8,#1CD855,0,10,0,40,0,864.6999999880791,37,1,547.6000000089407,0,0,experiment,NA,NA,2,0.5,0.5,5,4,22,1,NA
fcp-trial,56,336899,0.0-31.0-0.0,voc_e2,12002,"[{""event"":""fullscreenenter"",""trial"":1,""time"":1460}]",NA,NA,NA,NA,NA,5,#D89F1C,#3386FF,0,10,0,40,0,562,37,1,883.7999999970198,0,0,experiment,NA,NA,1,0.3,0.7,3,2,23,1,NA
fcp-trial,57,339779,0.0-32.0-0.0,voc_e2,12002,"[{""event"":""fullscreenenter"",""trial"":1,""time"":1460}]",NA,NA,NA,NA,NA,3,#D8271C,#741CD8,0,10,0,40,0,798.8999999910593,39,0,578,10,1,experiment,NA,NA,0,0.1,0.9,1,0,24,1,NA
fcp-trial,58,342296,0.0-33.0-0.0,voc_e2,12002,"[{""event"":""fullscreenenter"",""trial"":1,""time"":1460}]",NA,NA,NA,NA,NA,0,#1CD855,#FA92F8,10,10,1,38,1,460.90000000596046,39,0,552.2999999970198,10,0,experiment,NA,NA,2,0.5,0.5,4,5,25,1,NA
fcp-trial,59,344992,0.0-34.0-0.0,voc_e2,12002,"[{""event"":""fullscreenenter"",""trial"":1,""time"":1460}]",NA,NA,NA,NA,NA,6,#741CD8,#D8271C,10,0,1,38,1,647.2999999970198,37,1,543.1999999880791,10,1,experiment,NA,NA,0,0.9,0.1,0,1,26,1,NA
fcp-trial,60,347632,0.0-35.0-0.0,voc_e2,12002,"[{""event"":""fullscreenenter"",""trial"":1,""time"":1460}]",NA,NA,NA,NA,NA,1,#FA92F8,#1CD855,10,0,0,38,1,766.5,39,0,368.90000000596046,0,1,experiment,NA,NA,2,0.5,0.5,5,4,27,1,NA
fcp-trial,61,350062,0.0-36.0-0.0,voc_e2,12002,"[{""event"":""fullscreenenter"",""trial"":1,""time"":1460}]",NA,NA,NA,NA,NA,1,#D89F1C,#3386FF,0,10,0,38,1,524.1000000089407,37,1,395.8999999910593,0,0,experiment,NA,NA,1,0.3,0.7,3,2,28,1,NA
fcp-trial,62,352816,0.0-37.0-0.0,voc_e2,12002,"[{""event"":""fullscreenenter"",""trial"":1,""time"":1460}]",NA,NA,NA,NA,NA,1,#741CD8,#D8271C,10,0,1,40,0,411,37,1,832.5,10,1,experiment,NA,NA,0,0.9,0.1,0,1,29,1,NA
fcp-trial,63,355759,0.0-38.0-0.0,voc_e2,12002,"[{""event"":""fullscreenenter"",""trial"":1,""time"":1460}]",NA,NA,NA,NA,NA,0,#D89F1C,#3386FF,10,10,0,38,1,787.7999999970198,39,0,650.5,10,1,experiment,NA,NA,1,0.3,0.7,3,2,30,1,NA
fcp-trial,64,358787,0.0-39.0-0.0,voc_e2,12002,"[{""event"":""fullscreenenter"",""trial"":1,""time"":1460}]",NA,NA,NA,NA,NA,4,#FA92F8,#1CD855,10,10,0,38,1,639.1000000089407,37,1,884.7999999970198,10,0,experiment,NA,NA,2,0.5,0.5,5,4,31,1,NA
fcp-trial,65,361274,0.0-40.0-0.0,voc_e2,12002,"[{""event"":""fullscreenenter"",""trial"":1,""time"":1460}]",NA,NA,NA,NA,NA,3,#3386FF,#D89F1C,10,0,1,38,1,619,39,0,363.5,0,0,experiment,NA,NA,1,0.7,0.3,2,3,32,1,NA
fcp-trial,66,363622,0.0-41.0-0.0,voc_e2,12002,"[{""event"":""fullscreenenter"",""trial"":1,""time"":1460}]",NA,NA,NA,NA,NA,5,#D8271C,#741CD8,10,10,0,38,1,455.19999998807907,37,1,388,10,0,experiment,NA,NA,0,0.1,0.9,1,0,33,1,NA
fcp-trial,67,366263,0.0-42.0-0.0,voc_e2,12002,"[{""event"":""fullscreenenter"",""trial"":1,""time"":1460}]",NA,NA,NA,NA,NA,4,#741CD8,#D8271C,10,0,1,38,1,616.7999999970198,37,1,519.1000000089407,10,1,experiment,NA,NA,0,0.9,0.1,0,1,34,1,NA
fcp-trial,68,369246,0.0-43.0-0.0,voc_e2,12002,"[{""event"":""fullscreenenter"",""trial"":1,""time"":1460}]",NA,NA,NA,NA,NA,2,#1CD855,#FA92F8,0,0,1,38,1,658.5,39,0,820.4000000059605,0,0,experiment,NA,NA,2,0.5,0.5,4,5,35,1,NA
fcp-trial,69,372489,0.0-44.0-0.0,voc_e2,12002,"[{""event"":""fullscreenenter"",""trial"":1,""time"":1460}]",NA,NA,NA,NA,NA,4,#3386FF,#D89F1C,0,0,1,38,1,1311.5,37,1,427.29999999701977,0,1,experiment,NA,NA,1,0.7,0.3,2,3,36,1,NA
fcp-trial,70,375118,0.0-45.0-0.0,voc_e2,12002,"[{""event"":""fullscreenenter"",""trial"":1,""time"":1460}]",NA,NA,NA,NA,NA,2,#D8271C,#741CD8,0,10,0,38,1,688.7000000029802,39,0,434.3999999910593,10,1,experiment,NA,NA,0,0.1,0.9,1,0,37,1,NA
fcp-trial,71,377728,0.0-46.0-0.0,voc_e2,12002,"[{""event"":""fullscreenenter"",""trial"":1,""time"":1460}]",NA,NA,NA,NA,NA,6,#1CD855,#FA92F8,10,10,1,38,1,661.2000000029802,37,1,440.09999999403954,10,1,experiment,NA,NA,2,0.5,0.5,4,5,38,1,NA
fcp-trial,72,380683,0.0-47.0-0.0,voc_e2,12002,"[{""event"":""fullscreenenter"",""trial"":1,""time"":1460}]",NA,NA,NA,NA,NA,3,#1CD855,#FA92F8,10,0,1,40,0,681.2000000029802,37,1,769.5,10,1,experiment,NA,NA,2,0.5,0.5,4,5,39,1,NA
fcp-trial,73,384199,0.0-48.0-0.0,voc_e2,12002,"[{""event"":""fullscreenenter"",""trial"":1,""time"":1460}]",NA,NA,NA,NA,NA,2,#D89F1C,#3386FF,0,10,0,38,1,1533.5999999940395,39,0,476.8999999910593,10,1,experiment,NA,NA,1,0.3,0.7,3,2,40,1,NA
fcp-trial,74,387395,0.0-49.0-0.0,voc_e2,12002,"[{""event"":""fullscreenenter"",""trial"":1,""time"":1460}]",NA,NA,NA,NA,NA,6,#3386FF,#D89F1C,0,0,1,38,1,1165.2999999970198,37,1,527.3999999910593,0,1,experiment,NA,NA,1,0.7,0.3,2,3,41,1,NA
fcp-trial,75,390604,0.0-50.0-0.0,voc_e2,12002,"[{""event"":""fullscreenenter"",""trial"":1,""time"":1460}]",NA,NA,NA,NA,NA,0,#741CD8,#D8271C,10,10,1,38,1,1298.699999988079,39,0,406.20000000298023,10,0,experiment,NA,NA,0,0.9,0.1,0,1,42,1,NA
fcp-trial,76,393429,0.0-51.0-0.0,voc_e2,12002,"[{""event"":""fullscreenenter"",""trial"":1,""time"":1460}]",NA,NA,NA,NA,NA,4,#FA92F8,#1CD855,10,10,0,38,1,889.5,37,1,432.300000011921,10,0,experiment,NA,NA,2,0.5,0.5,5,4,43,1,NA
fcp-trial,77,396228,0.0-52.0-0.0,voc_e2,12002,"[{""event"":""fullscreenenter"",""trial"":1,""time"":1460}]",NA,NA,NA,NA,NA,3,#FA92F8,#1CD855,0,10,0,38,1,855.2000000029802,39,0,421.5,10,1,experiment,NA,NA,2,0.5,0.5,5,4,44,1,NA
fcp-trial,78,398984,0.0-53.0-0.0,voc_e2,12002,"[{""event"":""fullscreenenter"",""trial"":1,""time"":1460}]",NA,NA,NA,NA,NA,2,#3386FF,#D89F1C,10,0,1,38,1,810.0999999940395,37,1,435.20000000298023,10,1,experiment,NA,NA,1,0.7,0.3,2,3,45,1,NA
fcp-trial,79,401513,0.0-54.0-0.0,voc_e2,12002,"[{""event"":""fullscreenenter"",""trial"":1,""time"":1460}]",NA,NA,NA,NA,NA,1,#D8271C,#741CD8,0,10,0,38,1,632.4000000059605,39,0,394.5,10,1,experiment,NA,NA,0,0.1,0.9,1,0,46,2,NA
fcp-trial,80,404418,0.0-55.0-0.0,voc_e2,12002,"[{""event"":""fullscreenenter"",""trial"":1,""time"":1460}]",NA,NA,NA,NA,NA,2,#741CD8,#D8271C,10,0,1,38,1,889.3999999910593,37,1,509.8999999910593,10,1,experiment,NA,NA,0,0.9,0.1,0,1,47,2,NA
fcp-trial,81,406994,0.0-56.0-0.0,voc_e2,12002,"[{""event"":""fullscreenenter"",""trial"":1,""time"":1460}]",NA,NA,NA,NA,NA,6,#FA92F8,#1CD855,10,0,0,38,1,576.9000000059605,39,0,487.5,0,1,experiment,NA,NA,2,0.5,0.5,5,4,48,2,NA
fcp-trial,82,409445,0.0-57.0-0.0,voc_e2,12002,"[{""event"":""fullscreenenter"",""trial"":1,""time"":1460}]",NA,NA,NA,NA,NA,0,#3386FF,#D89F1C,10,0,1,38,1,454.70000000298023,39,0,492.5,0,0,experiment,NA,NA,1,0.7,0.3,2,3,49,2,NA
fcp-trial,83,411858,0.0-58.0-0.0,voc_e2,12002,"[{""event"":""fullscreenenter"",""trial"":1,""time"":1460}]",NA,NA,NA,NA,NA,6,#D8271C,#741CD8,0,10,0,38,1,494.70000000298023,37,1,408.6000000089407,0,0,experiment,NA,NA,0,0.1,0.9,1,0,50,2,NA
fcp-trial,84,414208,0.0-59.0-0.0,voc_e2,12002,"[{""event"":""fullscreenenter"",""trial"":1,""time"":1460}]",NA,NA,NA,NA,NA,4,#741CD8,#D8271C,10,10,1,38,1,494.09999999403954,39,0,345.59999999403954,10,0,experiment,NA,NA,0,0.9,0.1,0,1,51,2,NA
fcp-trial,85,416604,0.0-60.0-0.0,voc_e2,12002,"[{""event"":""fullscreenenter"",""trial"":1,""time"":1460}]",NA,NA,NA,NA,NA,4,#D89F1C,#3386FF,0,10,0,38,1,503.69999998807907,37,1,387.40000000596046,0,0,experiment,NA,NA,1,0.3,0.7,3,2,52,2,NA
fcp-trial,86,419018,0.0-61.0-0.0,voc_e2,12002,"[{""event"":""fullscreenenter"",""trial"":1,""time"":1460}]",NA,NA,NA,NA,NA,1,#FA92F8,#1CD855,0,10,0,40,0,235,37,1,670.2999999970198,0,0,experiment,NA,NA,2,0.5,0.5,5,4,53,2,NA
fcp-trial,87,421495,0.0-62.0-0.0,voc_e2,12002,"[{""event"":""fullscreenenter"",""trial"":1,""time"":1460}]",NA,NA,NA,NA,NA,0,#741CD8,#D8271C,10,0,1,40,0,495.70000000298023,39,0,473.20000000298023,0,0,experiment,NA,NA,0,0.9,0.1,0,1,54,2,NA
fcp-trial,88,424628,0.0-63.0-0.0,voc_e2,12002,"[{""event"":""fullscreenenter"",""trial"":1,""time"":1460}]",NA,NA,NA,NA,NA,5,#3386FF,#D89F1C,0,0,1,38,1,931.5999999940395,39,0,690,0,0,experiment,NA,NA,1,0.7,0.3,2,3,55,2,NA
fcp-trial,89,426797,0.0-64.0-0.0,voc_e2,12002,"[{""event"":""fullscreenenter"",""trial"":1,""time"":1460}]",NA,NA,NA,NA,NA,5,#D8271C,#741CD8,10,10,0,38,1,349.40000000596046,37,1,311.19999998807907,10,0,experiment,NA,NA,0,0.1,0.9,1,0,56,2,NA
fcp-trial,90,429917,0.0-65.0-0.0,voc_e2,12002,"[{""event"":""fullscreenenter"",""trial"":1,""time"":1460}]",NA,NA,NA,NA,NA,0,#FA92F8,#1CD855,10,10,0,38,1,703.5,39,0,912.2999999970198,10,1,experiment,NA,NA,2,0.5,0.5,5,4,57,2,NA
fcp-trial,91,432813,0.0-66.0-0.0,voc_e2,12002,"[{""event"":""fullscreenenter"",""trial"":1,""time"":1460}]",NA,NA,NA,NA,NA,6,#3386FF,#D89F1C,10,0,1,38,1,862.2000000029802,37,1,530.1999999880791,10,1,experiment,NA,NA,1,0.7,0.3,2,3,58,2,NA
fcp-trial,92,435911,0.0-67.0-0.0,voc_e2,12002,"[{""event"":""fullscreenenter"",""trial"":1,""time"":1460}]",NA,NA,NA,NA,NA,3,#D89F1C,#3386FF,0,10,0,38,1,828.7999999970198,37,1,765.4000000059605,0,0,experiment,NA,NA,1,0.3,0.7,3,2,59,2,NA
fcp-trial,93,438832,0.0-68.0-0.0,voc_e2,12002,"[{""event"":""fullscreenenter"",""trial"":1,""time"":1460}]",NA,NA,NA,NA,NA,3,#D8271C,#741CD8,0,10,0,38,1,912.5999999940395,39,0,498.20000000298023,10,1,experiment,NA,NA,0,0.1,0.9,1,0,60,2,NA
fcp-trial,94,441393,0.0-69.0-0.0,voc_e2,12002,"[{""event"":""fullscreenenter"",""trial"":1,""time"":1460}]",NA,NA,NA,NA,NA,5,#1CD855,#FA92F8,0,0,1,38,1,627.7999999970198,37,1,429.300000011921,0,1,experiment,NA,NA,2,0.5,0.5,4,5,61,2,NA
fcp-trial,95,444820,0.0-70.0-0.0,voc_e2,12002,"[{""event"":""fullscreenenter"",""trial"":1,""time"":1460}]",NA,NA,NA,NA,NA,1,#D89F1C,#3386FF,0,10,0,38,1,747,39,0,1174.800000011921,10,1,experiment,NA,NA,1,0.3,0.7,3,2,62,2,NA
fcp-trial,96,447425,0.0-71.0-0.0,voc_e2,12002,"[{""event"":""fullscreenenter"",""trial"":1,""time"":1460}]",NA,NA,NA,NA,NA,2,#FA92F8,#1CD855,10,10,0,38,1,619.0999999940395,37,1,477.90000000596046,10,0,experiment,NA,NA,2,0.5,0.5,5,4,63,2,NA
fcp-trial,97,450177,0.0-72.0-0.0,voc_e2,12002,"[{""event"":""fullscreenenter"",""trial"":1,""time"":1460}]",NA,NA,NA,NA,NA,5,#741CD8,#D8271C,10,0,1,38,1,703.2000000029802,39,0,544.9000000059605,0,0,experiment,NA,NA,0,0.9,0.1,0,1,64,2,NA
fcp-trial,98,452516,0.0-73.0-0.0,voc_e2,12002,"[{""event"":""fullscreenenter"",""trial"":1,""time"":1460}]",NA,NA,NA,NA,NA,0,#FA92F8,#1CD855,0,10,0,38,1,339.09999999403954,37,1,494.70000000298023,0,0,experiment,NA,NA,2,0.5,0.5,5,4,65,2,NA
fcp-trial,99,455058,0.0-74.0-0.0,voc_e2,12002,"[{""event"":""fullscreenenter"",""trial"":1,""time"":1460}]",NA,NA,NA,NA,NA,1,#D89F1C,#3386FF,0,10,0,38,1,599.7999999970198,39,0,437.699999988079,10,1,experiment,NA,NA,1,0.3,0.7,3,2,66,2,NA
fcp-trial,100,457940,0.0-75.0-0.0,voc_e2,12002,"[{""event"":""fullscreenenter"",""trial"":1,""time"":1460}]",NA,NA,NA,NA,NA,0,#D8271C,#741CD8,0,10,0,38,1,796.6999999880791,37,1,575.1000000089407,0,0,experiment,NA,NA,0,0.1,0.9,1,0,67,2,NA
fcp-trial,101,460428,0.0-76.0-0.0,voc_e2,12002,"[{""event"":""fullscreenenter"",""trial"":1,""time"":1460}]",NA,NA,NA,NA,NA,5,#1CD855,#FA92F8,10,0,1,38,1,546.4000000059605,39,0,427.1000000089407,0,0,experiment,NA,NA,2,0.5,0.5,4,5,68,2,NA
fcp-trial,102,463005,0.0-77.0-0.0,voc_e2,12002,"[{""event"":""fullscreenenter"",""trial"":1,""time"":1460}]",NA,NA,NA,NA,NA,5,#3386FF,#D89F1C,0,0,1,38,1,625.4000000059605,37,1,446.8999999910593,0,1,experiment,NA,NA,1,0.7,0.3,2,3,69,2,NA
fcp-trial,103,465523,0.0-78.0-0.0,voc_e2,12002,"[{""event"":""fullscreenenter"",""trial"":1,""time"":1460}]",NA,NA,NA,NA,NA,1,#D8271C,#741CD8,0,10,0,38,1,665.4000000059605,39,0,349.6000000089407,10,1,experiment,NA,NA,0,0.1,0.9,1,0,70,2,NA
fcp-trial,104,468023,0.0-79.0-0.0,voc_e2,12002,"[{""event"":""fullscreenenter"",""trial"":1,""time"":1460}]",NA,NA,NA,NA,NA,6,#FA92F8,#1CD855,0,0,0,38,1,562.3000000119209,37,1,426,0,0,experiment,NA,NA,2,0.5,0.5,5,4,71,2,NA
fcp-trial,105,470338,0.0-80.0-0.0,voc_e2,12002,"[{""event"":""fullscreenenter"",""trial"":1,""time"":1460}]",NA,NA,NA,NA,NA,3,#D89F1C,#3386FF,0,10,0,38,1,389.20000000298023,39,0,421.29999999701977,10,1,experiment,NA,NA,1,0.3,0.7,3,2,72,2,NA
fcp-trial,106,472812,0.0-81.0-0.0,voc_e2,12002,"[{""event"":""fullscreenenter"",""trial"":1,""time"":1460}]",NA,NA,NA,NA,NA,4,#D89F1C,#3386FF,0,10,0,38,1,559.0999999940395,37,1,404,0,0,experiment,NA,NA,1,0.3,0.7,3,2,73,2,NA
fcp-trial,107,475027,0.0-82.0-0.0,voc_e2,12002,"[{""event"":""fullscreenenter"",""trial"":1,""time"":1460}]",NA,NA,NA,NA,NA,3,#741CD8,#D8271C,10,10,1,38,1,312.40000000596046,39,0,398.40000000596046,10,0,experiment,NA,NA,0,0.9,0.1,0,1,74,2,NA
fcp-trial,108,477591,0.0-83.0-0.0,voc_e2,12002,"[{""event"":""fullscreenenter"",""trial"":1,""time"":1460}]",NA,NA,NA,NA,NA,2,#D89F1C,#3386FF,10,0,0,38,1,664.4000000059605,37,1,395,10,0,experiment,NA,NA,1,0.3,0.7,3,2,75,2,NA
fcp-trial,109,480164,0.0-84.0-0.0,voc_e2,12002,"[{""event"":""fullscreenenter"",""trial"":1,""time"":1460}]",NA,NA,NA,NA,NA,4,#1CD855,#FA92F8,10,0,1,38,1,617.7000000029802,39,0,449.29999999701977,0,0,experiment,NA,NA,2,0.5,0.5,4,5,76,2,NA
fcp-trial,110,482636,0.0-85.0-0.0,voc_e2,12002,"[{""event"":""fullscreenenter"",""trial"":1,""time"":1460}]",NA,NA,NA,NA,NA,4,#D8271C,#741CD8,0,10,0,38,1,523,37,1,441,0,0,experiment,NA,NA,0,0.1,0.9,1,0,77,2,NA
fcp-trial,111,485784,0.0-86.0-0.0,voc_e2,12002,"[{""event"":""fullscreenenter"",""trial"":1,""time"":1460}]",NA,NA,NA,NA,NA,0,#D89F1C,#3386FF,10,10,0,38,1,1182.3999999910593,39,0,461.1000000089407,10,1,experiment,NA,NA,1,0.3,0.7,3,2,78,2,NA
fcp-trial,112,489060,0.0-87.0-0.0,voc_e2,12002,"[{""event"":""fullscreenenter"",""trial"":1,""time"":1460}]",NA,NA,NA,NA,NA,1,#FA92F8,#1CD855,10,0,0,38,1,706.2000000029802,37,1,1066.2999999970198,10,0,experiment,NA,NA,2,0.5,0.5,5,4,79,2,NA
fcp-trial,113,491528,0.0-88.0-0.0,voc_e2,12002,"[{""event"":""fullscreenenter"",""trial"":1,""time"":1460}]",NA,NA,NA,NA,NA,6,#3386FF,#D89F1C,10,10,1,38,1,541.5,39,0,422.1000000089407,10,0,experiment,NA,NA,1,0.7,0.3,2,3,80,2,NA
fcp-trial,114,494143,0.0-89.0-0.0,voc_e2,12002,"[{""event"":""fullscreenenter"",""trial"":1,""time"":1460}]",NA,NA,NA,NA,NA,3,#1CD855,#FA92F8,10,0,1,38,1,648.5,37,1,463.09999999403954,10,1,experiment,NA,NA,2,0.5,0.5,4,5,81,2,NA
fcp-trial,115,496636,0.0-90.0-0.0,voc_e2,12002,"[{""event"":""fullscreenenter"",""trial"":1,""time"":1460}]",NA,NA,NA,NA,NA,6,#741CD8,#D8271C,10,0,1,38,1,530.4000000059605,39,0,459,0,0,experiment,NA,NA,0,0.9,0.1,0,1,82,2,NA
fcp-trial,116,499168,0.0-91.0-0.0,voc_e2,12002,"[{""event"":""fullscreenenter"",""trial"":1,""time"":1460}]",NA,NA,NA,NA,NA,2,#1CD855,#FA92F8,0,0,1,38,1,627.4000000059605,37,1,398.90000000596046,0,1,experiment,NA,NA,2,0.5,0.5,4,5,83,2,NA
fcp-trial,117,501486,0.0-92.0-0.0,voc_e2,12002,"[{""event"":""fullscreenenter"",""trial"":1,""time"":1460}]",NA,NA,NA,NA,NA,2,#741CD8,#D8271C,10,0,1,38,1,421.90000000596046,39,0,390.70000000298023,0,0,experiment,NA,NA,0,0.9,0.1,0,1,84,2,NA
fcp-trial,118,503810,0.0-93.0-0.0,voc_e2,12002,"[{""event"":""fullscreenenter"",""trial"":1,""time"":1460}]",NA,NA,NA,NA,NA,1,#1CD855,#FA92F8,0,0,1,40,0,285.09999999403954,37,1,535.2000000029802,0,1,experiment,NA,NA,2,0.5,0.5,4,5,85,2,NA
fcp-trial,119,506542,0.0-94.0-0.0,voc_e2,12002,"[{""event"":""fullscreenenter"",""trial"":1,""time"":1460}]",NA,NA,NA,NA,NA,5,#D8271C,#741CD8,0,10,0,40,0,414.40000000596046,37,1,812.8000000119209,0,0,experiment,NA,NA,0,0.1,0.9,1,0,86,2,NA
fcp-trial,120,509469,0.0-95.0-0.0,voc_e2,12002,"[{""event"":""fullscreenenter"",""trial"":1,""time"":1460}]",NA,NA,NA,NA,NA,3,#D89F1C,#3386FF,0,0,0,40,0,712.7999999970198,37,1,710,0,0,experiment,NA,NA,1,0.3,0.7,3,2,87,2,NA
fcp-trial,121,512641,0.0-96.0-0.0,voc_e2,12002,"[{""event"":""fullscreenenter"",""trial"":1,""time"":1460}]",NA,NA,NA,NA,NA,5,#FA92F8,#1CD855,0,0,0,40,0,938.2000000029802,37,1,729.5,0,0,experiment,NA,NA,2,0.5,0.5,5,4,88,2,NA
fcp-trial,122,515604,0.0-97.0-0.0,voc_e2,12002,"[{""event"":""fullscreenenter"",""trial"":1,""time"":1460}]",NA,NA,NA,NA,NA,6,#D89F1C,#3386FF,0,10,0,40,0,1002.2999999970198,37,1,453.5,0,0,experiment,NA,NA,1,0.3,0.7,3,2,89,2,NA
fcp-trial,123,518031,0.0-98.0-0.0,voc_e2,12002,"[{""event"":""fullscreenenter"",""trial"":1,""time"":1460}]",NA,NA,NA,NA,NA,4,#D89F1C,#3386FF,0,10,0,38,1,457.19999998807907,39,0,459.40000000596046,10,1,experiment,NA,NA,1,0.3,0.7,3,2,90,2,NA
fcp-trial,124,520499,0.0-99.0-0.0,voc_e2,12002,"[{""event"":""fullscreenenter"",""trial"":1,""time"":1460}]",NA,NA,NA,NA,NA,2,#741CD8,#D8271C,10,0,1,38,1,500.90000000596046,37,1,462.300000011921,10,1,experiment,NA,NA,0,0.9,0.1,0,1,91,3,NA
fcp-trial,125,523421,0.0-100.0-0.0,voc_e2,12002,"[{""event"":""fullscreenenter"",""trial"":1,""time"":1460}]",NA,NA,NA,NA,NA,3,#1CD855,#FA92F8,10,0,1,38,1,877.2999999970198,37,1,534.7000000029802,10,1,experiment,NA,NA,2,0.5,0.5,4,5,92,3,NA
fcp-trial,126,525851,0.0-101.0-0.0,voc_e2,12002,"[{""event"":""fullscreenenter"",""trial"":1,""time"":1460}]",NA,NA,NA,NA,NA,5,#D89F1C,#3386FF,0,10,0,38,1,553.7999999970198,39,0,371.09999999403954,10,1,experiment,NA,NA,1,0.3,0.7,3,2,93,3,NA
fcp-trial,127,528657,0.0-102.0-0.0,voc_e2,12002,"[{""event"":""fullscreenenter"",""trial"":1,""time"":1460}]",NA,NA,NA,NA,NA,2,#1CD855,#FA92F8,10,10,1,38,1,797.5,37,1,501.8999999910593,10,1,experiment,NA,NA,2,0.5,0.5,4,5,94,3,NA
fcp-trial,128,531144,0.0-103.0-0.0,voc_e2,12002,"[{""event"":""fullscreenenter"",""trial"":1,""time"":1460}]",NA,NA,NA,NA,NA,2,#3386FF,#D89F1C,10,0,1,38,1,601.2999999970198,39,0,375.40000000596046,0,0,experiment,NA,NA,1,0.7,0.3,2,3,95,3,NA
fcp-trial,129,533564,0.0-104.0-0.0,voc_e2,12002,"[{""event"":""fullscreenenter"",""trial"":1,""time"":1460}]",NA,NA,NA,NA,NA,0,#D8271C,#741CD8,0,10,0,40,0,344.3999999910593,37,1,571.2000000029802,0,0,experiment,NA,NA,0,0.1,0.9,1,0,96,3,NA
fcp-trial,130,536133,0.0-105.0-0.0,voc_e2,12002,"[{""event"":""fullscreenenter"",""trial"":1,""time"":1460}]",NA,NA,NA,NA,NA,4,#741CD8,#D8271C,10,0,1,40,0,634.3999999910593,39,0,428.20000000298023,0,0,experiment,NA,NA,0,0.9,0.1,0,1,97,3,NA
fcp-trial,131,538675,0.0-106.0-0.0,voc_e2,12002,"[{""event"":""fullscreenenter"",""trial"":1,""time"":1460}]",NA,NA,NA,NA,NA,6,#D8271C,#741CD8,0,10,0,38,1,512,39,0,520.3000000119209,10,1,experiment,NA,NA,0,0.1,0.9,1,0,98,3,NA
fcp-trial,132,540970,0.0-107.0-0.0,voc_e2,12002,"[{""event"":""fullscreenenter"",""trial"":1,""time"":1460}]",NA,NA,NA,NA,NA,6,#FA92F8,#1CD855,0,0,0,38,1,351.70000000298023,39,0,436.90000000596046,0,1,experiment,NA,NA,2,0.5,0.5,5,4,99,3,NA
fcp-trial,133,543077,0.0-108.0-0.0,voc_e2,12002,"[{""event"":""fullscreenenter"",""trial"":1,""time"":1460}]",NA,NA,NA,NA,NA,0,#3386FF,#D89F1C,10,0,1,38,1,296.09999999403954,37,1,306,10,1,experiment,NA,NA,1,0.7,0.3,2,3,100,3,NA
fcp-trial,134,545336,0.0-109.0-0.0,voc_e2,12002,"[{""event"":""fullscreenenter"",""trial"":1,""time"":1460}]",NA,NA,NA,NA,NA,1,#741CD8,#D8271C,10,0,1,38,1,334,37,1,420.79999999701977,10,1,experiment,NA,NA,0,0.9,0.1,0,1,101,3,NA
fcp-trial,135,547392,0.0-110.0-0.0,voc_e2,12002,"[{""event"":""fullscreenenter"",""trial"":1,""time"":1460}]",NA,NA,NA,NA,NA,1,#3386FF,#D89F1C,0,10,1,38,1,268.30000001192093,39,0,282.59999999403954,10,0,experiment,NA,NA,1,0.7,0.3,2,3,102,3,NA
fcp-trial,136,549483,0.0-111.0-0.0,voc_e2,12002,"[{""event"":""fullscreenenter"",""trial"":1,""time"":1460}]",NA,NA,NA,NA,NA,4,#1CD855,#FA92F8,10,10,1,38,1,269.80000001192093,37,1,317,10,1,experiment,NA,NA,2,0.5,0.5,4,5,103,3,NA
fcp-trial,137,551734,0.0-112.0-0.0,voc_e2,12002,"[{""event"":""fullscreenenter"",""trial"":1,""time"":1460}]",NA,NA,NA,NA,NA,0,#1CD855,#FA92F8,0,10,1,38,1,299.20000000298023,37,1,443.5,0,1,experiment,NA,NA,2,0.5,0.5,4,5,104,3,NA
fcp-trial,138,553851,0.0-113.0-0.0,voc_e2,12002,"[{""event"":""fullscreenenter"",""trial"":1,""time"":1460}]",NA,NA,NA,NA,NA,3,#D8271C,#741CD8,0,10,0,38,1,291.5,39,0,321.20000000298023,10,1,experiment,NA,NA,0,0.1,0.9,1,0,105,3,NA
audio-instructions,139,559492,0.0-114.0,voc_e2,12002,"[{""event"":""fullscreenenter"",""trial"":1,""time"":1460}]",NA,1188.7000000029802,static/audio/pause.wav,NA,0,NA,NA,NA,NA,NA,NA,NA,NA,NA,NA,NA,NA,NA,NA,NA,NA,NA,NA,NA,NA,NA,NA,NA,NA,NA
fcp-trial,140,562285,0.0-115.0-0.0,voc_e2,12002,"[{""event"":""fullscreenenter"",""trial"":1,""time"":1460}]",NA,NA,NA,NA,NA,6,#3386FF,#D89F1C,10,0,1,38,1,713.7999999970198,37,1,564.7999999970198,10,1,experiment,NA,NA,1,0.7,0.3,2,3,106,3,NA
fcp-trial,141,564901,0.0-116.0-0.0,voc_e2,12002,"[{""event"":""fullscreenenter"",""trial"":1,""time"":1460}]",NA,NA,NA,NA,NA,5,#3386FF,#D89F1C,0,0,1,40,0,611.6000000089407,39,0,483.6000000089407,0,0,experiment,NA,NA,1,0.7,0.3,2,3,107,3,NA
fcp-trial,142,567730,0.0-117.0-0.0,voc_e2,12002,"[{""event"":""fullscreenenter"",""trial"":1,""time"":1460}]",NA,NA,NA,NA,NA,6,#741CD8,#D8271C,10,0,1,40,0,544.8999999910593,39,0,767.5999999940395,0,0,experiment,NA,NA,0,0.9,0.1,0,1,108,3,NA
fcp-trial,143,570357,0.0-118.0-0.0,voc_e2,12002,"[{""event"":""fullscreenenter"",""trial"":1,""time"":1460}]",NA,NA,NA,NA,NA,4,#D8271C,#741CD8,10,0,0,40,0,605.2999999970198,37,1,501.59999999403954,10,0,experiment,NA,NA,0,0.1,0.9,1,0,109,3,NA
fcp-trial,144,573374,0.0-119.0-0.0,voc_e2,12002,"[{""event"":""fullscreenenter"",""trial"":1,""time"":1460}]",NA,NA,NA,NA,NA,1,#1CD855,#FA92F8,0,0,1,40,0,937,39,0,565.6999999880791,0,0,experiment,NA,NA,2,0.5,0.5,4,5,110,3,NA
fcp-trial,145,575819,0.0-120.0-0.0,voc_e2,12002,"[{""event"":""fullscreenenter"",""trial"":1,""time"":1460}]",NA,NA,NA,NA,NA,2,#D89F1C,#3386FF,10,10,0,38,1,397.8999999910593,39,0,521.1000000089407,10,1,experiment,NA,NA,1,0.3,0.7,3,2,111,3,NA
fcp-trial,146,577970,0.0-121.0-0.0,voc_e2,12002,"[{""event"":""fullscreenenter"",""trial"":1,""time"":1460}]",NA,NA,NA,NA,NA,1,#3386FF,#D89F1C,10,10,1,38,1,252,37,1,379,10,1,experiment,NA,NA,1,0.7,0.3,2,3,112,3,NA
fcp-trial,147,580168,0.0-122.0-0.0,voc_e2,12002,"[{""event"":""fullscreenenter"",""trial"":1,""time"":1460}]",NA,NA,NA,NA,NA,3,#741CD8,#D8271C,10,0,1,38,1,311.90000000596046,37,1,373.5,10,1,experiment,NA,NA,0,0.9,0.1,0,1,113,3,NA
fcp-trial,148,582663,0.0-123.0-0.0,voc_e2,12002,"[{""event"":""fullscreenenter"",""trial"":1,""time"":1460}]",NA,NA,NA,NA,NA,6,#1CD855,#FA92F8,10,0,1,40,0,500.79999999701977,39,0,471,0,0,experiment,NA,NA,2,0.5,0.5,4,5,114,3,NA
fcp-trial,149,585360,0.0-124.0-0.0,voc_e2,12002,"[{""event"":""fullscreenenter"",""trial"":1,""time"":1460}]",NA,NA,NA,NA,NA,5,#1CD855,#FA92F8,10,0,1,40,0,661.3000000119209,37,1,526.6000000089407,10,1,experiment,NA,NA,2,0.5,0.5,4,5,115,3,NA
fcp-trial,150,588215,0.0-125.0-0.0,voc_e2,12002,"[{""event"":""fullscreenenter"",""trial"":1,""time"":1460}]",NA,NA,NA,NA,NA,0,#3386FF,#D89F1C,10,0,1,40,0,600.2999999970198,39,0,737.5,0,0,experiment,NA,NA,1,0.7,0.3,2,3,116,3,NA
fcp-trial,151,590885,0.0-126.0-0.0,voc_e2,12002,"[{""event"":""fullscreenenter"",""trial"":1,""time"":1460}]",NA,NA,NA,NA,NA,0,#D8271C,#741CD8,10,10,0,38,1,533.9000000059605,37,1,630.8999999910593,10,0,experiment,NA,NA,0,0.1,0.9,1,0,117,3,NA
fcp-trial,152,593451,0.0-127.0-0.0,voc_e2,12002,"[{""event"":""fullscreenenter"",""trial"":1,""time"":1460}]",NA,NA,NA,NA,NA,2,#741CD8,#D8271C,10,0,1,40,0,668.5,39,0,388.79999999701977,0,0,experiment,NA,NA,0,0.9,0.1,0,1,118,3,NA
fcp-trial,153,596155,0.0-128.0-0.0,voc_e2,12002,"[{""event"":""fullscreenenter"",""trial"":1,""time"":1460}]",NA,NA,NA,NA,NA,4,#1CD855,#FA92F8,0,0,1,40,0,705.5999999940395,37,1,493,0,1,experiment,NA,NA,2,0.5,0.5,4,5,119,3,NA
fcp-trial,154,598816,0.0-129.0-0.0,voc_e2,12002,"[{""event"":""fullscreenenter"",""trial"":1,""time"":1460}]",NA,NA,NA,NA,NA,3,#FA92F8,#1CD855,10,10,0,38,1,461.20000000298023,39,0,696.0999999940395,10,1,experiment,NA,NA,2,0.5,0.5,5,4,120,3,NA
fcp-trial,155,601182,0.0-130.0-0.0,voc_e2,12002,"[{""event"":""fullscreenenter"",""trial"":1,""time"":1460}]",NA,NA,NA,NA,NA,3,#D89F1C,#3386FF,0,0,0,38,1,446,37,1,417.40000000596046,0,0,experiment,NA,NA,1,0.3,0.7,3,2,121,3,NA
fcp-trial,156,603365,0.0-131.0-0.0,voc_e2,12002,"[{""event"":""fullscreenenter"",""trial"":1,""time"":1460}]",NA,NA,NA,NA,NA,5,#D8271C,#741CD8,0,10,0,38,1,296.29999999701977,39,0,381.70000000298023,10,1,experiment,NA,NA,0,0.1,0.9,1,0,122,3,NA
fcp-trial,157,605827,0.0-132.0-0.0,voc_e2,12002,"[{""event"":""fullscreenenter"",""trial"":1,""time"":1460}]",NA,NA,NA,NA,NA,1,#D8271C,#741CD8,0,10,0,40,0,389.20000000298023,39,0,567.5,10,1,experiment,NA,NA,0,0.1,0.9,1,0,123,3,NA
fcp-trial,158,608638,0.0-133.0-0.0,voc_e2,12002,"[{""event"":""fullscreenenter"",""trial"":1,""time"":1460}]",NA,NA,NA,NA,NA,4,#D89F1C,#3386FF,10,10,0,40,0,745.7000000029802,37,1,561.7999999970198,10,0,experiment,NA,NA,1,0.3,0.7,3,2,124,3,NA
fcp-trial,159,611289,0.0-134.0-0.0,voc_e2,12002,"[{""event"":""fullscreenenter"",""trial"":1,""time"":1460}]",NA,NA,NA,NA,NA,2,#FA92F8,#1CD855,0,0,0,40,0,477.79999999701977,37,1,668.2000000029802,0,0,experiment,NA,NA,2,0.5,0.5,5,4,125,3,NA
fcp-trial,160,613916,0.0-135.0-0.0,voc_e2,12002,"[{""event"":""fullscreenenter"",""trial"":1,""time"":1460}]",NA,NA,NA,NA,NA,0,#FA92F8,#1CD855,10,0,0,40,0,605.2999999970198,39,0,515.8000000119209,0,1,experiment,NA,NA,2,0.5,0.5,5,4,126,3,NA
fcp-trial,161,616402,0.0-136.0-0.0,voc_e2,12002,"[{""event"":""fullscreenenter"",""trial"":1,""time"":1460}]",NA,NA,NA,NA,NA,0,#D8271C,#741CD8,0,10,0,38,1,456.09999999403954,39,0,526.5,10,1,experiment,NA,NA,0,0.1,0.9,1,0,127,3,NA
fcp-trial,162,618603,0.0-137.0-0.0,voc_e2,12002,"[{""event"":""fullscreenenter"",""trial"":1,""time"":1460}]",NA,NA,NA,NA,NA,4,#741CD8,#D8271C,0,0,1,38,1,275,37,1,421.300000011921,0,1,experiment,NA,NA,0,0.9,0.1,0,1,128,3,NA
fcp-trial,163,620884,0.0-138.0-0.0,voc_e2,12002,"[{""event"":""fullscreenenter"",""trial"":1,""time"":1460}]",NA,NA,NA,NA,NA,5,#741CD8,#D8271C,10,0,1,38,1,404.09999999403954,39,0,366.6000000089407,0,0,experiment,NA,NA,0,0.9,0.1,0,1,129,3,NA
fcp-trial,164,623476,0.0-139.0-0.0,voc_e2,12002,"[{""event"":""fullscreenenter"",""trial"":1,""time"":1460}]",NA,NA,NA,NA,NA,6,#D89F1C,#3386FF,10,10,0,38,1,726,37,1,358.19999998807907,10,0,experiment,NA,NA,1,0.3,0.7,3,2,130,3,NA
fcp-trial,165,625972,0.0-140.0-0.0,voc_e2,12002,"[{""event"":""fullscreenenter"",""trial"":1,""time"":1460}]",NA,NA,NA,NA,NA,3,#741CD8,#D8271C,10,0,1,38,1,540.7999999970198,39,0,449.5,0,0,experiment,NA,NA,0,0.9,0.1,0,1,131,3,NA
fcp-trial,166,628172,0.0-141.0-0.0,voc_e2,12002,"[{""event"":""fullscreenenter"",""trial"":1,""time"":1460}]",NA,NA,NA,NA,NA,0,#FA92F8,#1CD855,0,0,0,38,1,163.29999999701977,37,1,524.7999999970198,0,0,experiment,NA,NA,2,0.5,0.5,5,4,132,3,NA
fcp-trial,167,630259,0.0-142.0-0.0,voc_e2,12002,"[{""event"":""fullscreenenter"",""trial"":1,""time"":1460}]",NA,NA,NA,NA,NA,1,#1CD855,#FA92F8,0,0,1,38,1,255.29999999701977,39,0,328.20000000298023,0,0,experiment,NA,NA,2,0.5,0.5,4,5,133,3,NA
fcp-trial,168,632767,0.0-143.0-0.0,voc_e2,12002,"[{""event"":""fullscreenenter"",""trial"":1,""time"":1460}]",NA,NA,NA,NA,NA,0,#D89F1C,#3386FF,10,10,0,40,0,359.20000000298023,37,1,638.5999999940395,10,0,experiment,NA,NA,1,0.3,0.7,3,2,134,3,NA
fcp-trial,169,635175,0.0-144.0-0.0,voc_e2,12002,"[{""event"":""fullscreenenter"",""trial"":1,""time"":1460}]",NA,NA,NA,NA,NA,6,#FA92F8,#1CD855,10,0,0,40,0,546.2000000029802,39,0,357.8999999910593,0,1,experiment,NA,NA,2,0.5,0.5,5,4,135,3,NA
fcp-trial,170,638275,0.0-145.0-0.0,voc_e2,12002,"[{""event"":""fullscreenenter"",""trial"":1,""time"":1460}]",NA,NA,NA,NA,NA,6,#741CD8,#D8271C,10,10,1,40,0,781.7000000029802,39,0,814.9000000059605,10,0,experiment,NA,NA,0,0.9,0.1,0,1,136,4,NA
fcp-trial,171,641237,0.0-146.0-0.0,voc_e2,12002,"[{""event"":""fullscreenenter"",""trial"":1,""time"":1460}]",NA,NA,NA,NA,NA,4,#3386FF,#D89F1C,10,0,1,40,0,742.7999999970198,39,0,714.2999999970198,0,0,experiment,NA,NA,1,0.7,0.3,2,3,137,4,NA
fcp-trial,172,644232,0.0-147.0-0.0,voc_e2,12002,"[{""event"":""fullscreenenter"",""trial"":1,""time"":1460}]",NA,NA,NA,NA,NA,2,#FA92F8,#1CD855,10,10,0,40,0,1042.7999999970198,37,1,448.79999999701977,10,0,experiment,NA,NA,2,0.5,0.5,5,4,138,4,NA
fcp-trial,173,647449,0.0-148.0-0.0,voc_e2,12002,"[{""event"":""fullscreenenter"",""trial"":1,""time"":1460}]",NA,NA,NA,NA,NA,2,#3386FF,#D89F1C,0,0,1,40,0,1067.5999999940395,37,1,646.5,0,1,experiment,NA,NA,1,0.7,0.3,2,3,139,4,NA
fcp-trial,174,650384,0.0-149.0-0.0,voc_e2,12002,"[{""event"":""fullscreenenter"",""trial"":1,""time"":1460}]",NA,NA,NA,NA,NA,2,#741CD8,#D8271C,0,0,1,40,0,748.3999999910593,37,1,684.0999999940395,0,1,experiment,NA,NA,0,0.9,0.1,0,1,140,4,NA
fcp-trial,175,652994,0.0-150.0-0.0,voc_e2,12002,"[{""event"":""fullscreenenter"",""trial"":1,""time"":1460}]",NA,NA,NA,NA,NA,5,#1CD855,#FA92F8,10,0,1,40,0,702.2000000029802,39,0,404.79999999701977,0,0,experiment,NA,NA,2,0.5,0.5,4,5,141,4,NA
fcp-trial,176,655700,0.0-151.0-0.0,voc_e2,12002,"[{""event"":""fullscreenenter"",""trial"":1,""time"":1460}]",NA,NA,NA,NA,NA,1,#D89F1C,#3386FF,0,0,0,40,0,504.70000000298023,37,1,697.8999999910593,0,0,experiment,NA,NA,1,0.3,0.7,3,2,142,4,NA
fcp-trial,177,658616,0.0-152.0-0.0,voc_e2,12002,"[{""event"":""fullscreenenter"",""trial"":1,""time"":1460}]",NA,NA,NA,NA,NA,3,#3386FF,#D89F1C,10,0,1,40,0,1017.8999999910593,39,0,394.59999999403954,0,0,experiment,NA,NA,1,0.7,0.3,2,3,143,4,NA
fcp-trial,178,661652,0.0-153.0-0.0,voc_e2,12002,"[{""event"":""fullscreenenter"",""trial"":1,""time"":1460}]",NA,NA,NA,NA,NA,1,#741CD8,#D8271C,10,0,1,40,0,739.3999999910593,37,1,791.7000000029802,10,1,experiment,NA,NA,0,0.9,0.1,0,1,144,4,NA
fcp-trial,179,664545,0.0-154.0-0.0,voc_e2,12002,"[{""event"":""fullscreenenter"",""trial"":1,""time"":1460}]",NA,NA,NA,NA,NA,3,#FA92F8,#1CD855,10,0,0,40,0,853.2000000029802,39,0,535.3999999910593,0,1,experiment,NA,NA,2,0.5,0.5,5,4,145,4,NA
fcp-trial,180,667405,0.0-155.0-0.0,voc_e2,12002,"[{""event"":""fullscreenenter"",""trial"":1,""time"":1460}]",NA,NA,NA,NA,NA,5,#D89F1C,#3386FF,0,10,0,40,0,893.2000000029802,39,0,462.70000000298023,10,1,experiment,NA,NA,1,0.3,0.7,3,2,146,4,NA
fcp-trial,181,670493,0.0-156.0-0.0,voc_e2,12002,"[{""event"":""fullscreenenter"",""trial"":1,""time"":1460}]",NA,NA,NA,NA,NA,4,#1CD855,#FA92F8,0,10,1,40,0,982.7000000029802,39,0,601.3000000119209,10,0,experiment,NA,NA,2,0.5,0.5,4,5,147,4,NA
fcp-trial,182,673158,0.0-157.0-0.0,voc_e2,12002,"[{""event"":""fullscreenenter"",""trial"":1,""time"":1460}]",NA,NA,NA,NA,NA,6,#3386FF,#D89F1C,0,0,1,40,0,422.79999999701977,39,0,732.8999999910593,0,0,experiment,NA,NA,1,0.7,0.3,2,3,148,4,NA
fcp-trial,183,676694,0.0-158.0-0.0,voc_e2,12002,"[{""event"":""fullscreenenter"",""trial"":1,""time"":1460}]",NA,NA,NA,NA,NA,0,#FA92F8,#1CD855,0,10,0,40,0,1017.7000000029802,39,0,1009.9000000059604,10,1,experiment,NA,NA,2,0.5,0.5,5,4,149,4,NA
fcp-trial,184,679749,0.0-159.0-0.0,voc_e2,12002,"[{""event"":""fullscreenenter"",""trial"":1,""time"":1460}]",NA,NA,NA,NA,NA,5,#D8271C,#741CD8,0,10,0,38,1,596.7000000029802,39,0,942.9000000059604,10,1,experiment,NA,NA,0,0.1,0.9,1,0,150,4,NA
fcp-trial,185,682789,0.0-160.0-0.0,voc_e2,12002,"[{""event"":""fullscreenenter"",""trial"":1,""time"":1460}]",NA,NA,NA,NA,NA,3,#741CD8,#D8271C,10,0,1,40,0,605.8999999910593,39,0,930.9000000059604,0,0,experiment,NA,NA,0,0.9,0.1,0,1,151,4,NA
fcp-trial,186,685522,0.0-161.0-0.0,voc_e2,12002,"[{""event"":""fullscreenenter"",""trial"":1,""time"":1460}]",NA,NA,NA,NA,NA,1,#FA92F8,#1CD855,10,10,0,40,0,677.2000000029802,37,1,550.2999999970198,10,0,experiment,NA,NA,2,0.5,0.5,5,4,152,4,NA
fcp-trial,187,688087,0.0-162.0-0.0,voc_e2,12002,"[{""event"":""fullscreenenter"",""trial"":1,""time"":1460}]",NA,NA,NA,NA,NA,1,#D89F1C,#3386FF,0,10,0,40,0,690.2000000029802,39,0,371.29999999701977,10,1,experiment,NA,NA,1,0.3,0.7,3,2,153,4,NA
fcp-trial,188,690523,0.0-163.0-0.0,voc_e2,12002,"[{""event"":""fullscreenenter"",""trial"":1,""time"":1460}]",NA,NA,NA,NA,NA,4,#D89F1C,#3386FF,0,10,0,40,0,434.29999999701977,39,0,494.5,10,1,experiment,NA,NA,1,0.3,0.7,3,2,154,4,NA
fcp-trial,189,692926,0.0-164.0-0.0,voc_e2,12002,"[{""event"":""fullscreenenter"",""trial"":1,""time"":1460}]",NA,NA,NA,NA,NA,0,#D8271C,#741CD8,0,10,0,38,1,263.5,37,1,632.0999999940395,0,0,experiment,NA,NA,0,0.1,0.9,1,0,155,4,NA
fcp-trial,190,695279,0.0-165.0-0.0,voc_e2,12002,"[{""event"":""fullscreenenter"",""trial"":1,""time"":1460}]",NA,NA,NA,NA,NA,3,#3386FF,#D89F1C,10,0,1,38,1,443.79999999701977,39,0,406,0,0,experiment,NA,NA,1,0.7,0.3,2,3,156,4,NA
fcp-trial,191,697721,0.0-166.0-0.0,voc_e2,12002,"[{""event"":""fullscreenenter"",""trial"":1,""time"":1460}]",NA,NA,NA,NA,NA,4,#1CD855,#FA92F8,0,0,1,38,1,306.59999999403954,37,1,631.5,0,1,experiment,NA,NA,2,0.5,0.5,4,5,157,4,NA
fcp-trial,192,699832,0.0-167.0-0.0,voc_e2,12002,"[{""event"":""fullscreenenter"",""trial"":1,""time"":1460}]",NA,NA,NA,NA,NA,5,#FA92F8,#1CD855,10,0,0,38,1,277.90000000596046,37,1,328.20000000298023,10,0,experiment,NA,NA,2,0.5,0.5,5,4,158,4,NA
fcp-trial,193,702164,0.0-168.0-0.0,voc_e2,12002,"[{""event"":""fullscreenenter"",""trial"":1,""time"":1460}]",NA,NA,NA,NA,NA,6,#D8271C,#741CD8,0,10,0,38,1,465.09999999403954,39,0,359.90000000596046,10,1,experiment,NA,NA,0,0.1,0.9,1,0,159,4,NA
fcp-trial,194,704657,0.0-169.0-0.0,voc_e2,12002,"[{""event"":""fullscreenenter"",""trial"":1,""time"":1460}]",NA,NA,NA,NA,NA,6,#1CD855,#FA92F8,0,0,1,38,1,378.79999999701977,39,0,610.7999999970198,0,0,experiment,NA,NA,2,0.5,0.5,4,5,160,4,NA
fcp-trial,195,707131,0.0-170.0-0.0,voc_e2,12002,"[{""event"":""fullscreenenter"",""trial"":1,""time"":1460}]",NA,NA,NA,NA,NA,2,#3386FF,#D89F1C,10,10,1,40,0,357.80000001192093,39,0,606.0999999940395,10,0,experiment,NA,NA,1,0.7,0.3,2,3,161,4,NA
fcp-trial,196,710302,0.0-171.0-0.0,voc_e2,12002,"[{""event"":""fullscreenenter"",""trial"":1,""time"":1460}]",NA,NA,NA,NA,NA,2,#FA92F8,#1CD855,10,10,0,40,0,990.4000000059605,37,1,675.7000000029802,10,0,experiment,NA,NA,2,0.5,0.5,5,4,162,4,NA
fcp-trial,197,713123,0.0-172.0-0.0,voc_e2,12002,"[{""event"":""fullscreenenter"",""trial"":1,""time"":1460}]",NA,NA,NA,NA,NA,2,#741CD8,#D8271C,10,0,1,40,0,832,39,0,484.09999999403954,0,0,experiment,NA,NA,0,0.9,0.1,0,1,163,4,NA
fcp-trial,198,715745,0.0-173.0-0.0,voc_e2,12002,"[{""event"":""fullscreenenter"",""trial"":1,""time"":1460}]",NA,NA,NA,NA,NA,0,#3386FF,#D89F1C,10,10,1,40,0,457.70000000298023,37,1,660.8999999910593,10,1,experiment,NA,NA,1,0.7,0.3,2,3,164,4,NA
fcp-trial,199,718346,0.0-174.0-0.0,voc_e2,12002,"[{""event"":""fullscreenenter"",""trial"":1,""time"":1460}]",NA,NA,NA,NA,NA,5,#3386FF,#D89F1C,10,0,1,40,0,702.9000000059605,39,0,393.5,0,0,experiment,NA,NA,1,0.7,0.3,2,3,165,4,NA
fcp-trial,200,721452,0.0-175.0-0.0,voc_e2,12002,"[{""event"":""fullscreenenter"",""trial"":1,""time"":1460}]",NA,NA,NA,NA,NA,1,#741CD8,#D8271C,10,0,1,40,0,730.1000000089407,39,0,871.3000000119209,0,0,experiment,NA,NA,0,0.9,0.1,0,1,166,4,NA
fcp-trial,201,723994,0.0-176.0-0.0,voc_e2,12002,"[{""event"":""fullscreenenter"",""trial"":1,""time"":1460}]",NA,NA,NA,NA,NA,3,#FA92F8,#1CD855,0,10,0,40,0,656.2000000029802,39,0,376.79999999701977,10,1,experiment,NA,NA,2,0.5,0.5,5,4,167,4,NA
fcp-trial,202,726741,0.0-177.0-0.0,voc_e2,12002,"[{""event"":""fullscreenenter"",""trial"":1,""time"":1460}]",NA,NA,NA,NA,NA,4,#741CD8,#D8271C,10,0,1,40,0,611.2000000029802,37,1,632.4000000059605,10,1,experiment,NA,NA,0,0.9,0.1,0,1,168,4,NA
fcp-trial,203,729646,0.0-178.0-0.0,voc_e2,12002,"[{""event"":""fullscreenenter"",""trial"":1,""time"":1460}]",NA,NA,NA,NA,NA,0,#1CD855,#FA92F8,0,10,1,40,0,931.2999999970198,39,0,468.59999999403954,10,0,experiment,NA,NA,2,0.5,0.5,4,5,169,4,NA
fcp-trial,204,732458,0.0-179.0-0.0,voc_e2,12002,"[{""event"":""fullscreenenter"",""trial"":1,""time"":1460}]",NA,NA,NA,NA,NA,5,#D8271C,#741CD8,10,0,0,40,0,735.7999999970198,37,1,572.5,10,0,experiment,NA,NA,0,0.1,0.9,1,0,170,4,NA
fcp-trial,205,734901,0.0-180.0-0.0,voc_e2,12002,"[{""event"":""fullscreenenter"",""trial"":1,""time"":1460}]",NA,NA,NA,NA,NA,4,#D89F1C,#3386FF,0,10,0,40,0,547.2999999970198,39,0,386.5,10,1,experiment,NA,NA,1,0.3,0.7,3,2,171,4,NA
fcp-trial,206,738377,0.0-181.0-0.0,voc_e2,12002,"[{""event"":""fullscreenenter"",""trial"":1,""time"":1460}]",NA,NA,NA,NA,NA,3,#D8271C,#741CD8,10,10,0,40,0,1488.300000011921,39,0,483.6000000089407,10,1,experiment,NA,NA,0,0.1,0.9,1,0,172,4,NA
fcp-trial,207,740786,0.0-182.0-0.0,voc_e2,12002,"[{""event"":""fullscreenenter"",""trial"":1,""time"":1460}]",NA,NA,NA,NA,NA,5,#FA92F8,#1CD855,10,10,0,40,0,432.40000000596046,39,0,472.1000000089407,10,1,experiment,NA,NA,2,0.5,0.5,5,4,173,4,NA
fcp-trial,208,743459,0.0-183.0-0.0,voc_e2,12002,"[{""event"":""fullscreenenter"",""trial"":1,""time"":1460}]",NA,NA,NA,NA,NA,0,#D8271C,#741CD8,0,0,0,38,1,506.30000001192093,37,1,662.9000000059605,0,0,experiment,NA,NA,0,0.1,0.9,1,0,174,4,NA
fcp-trial,209,745934,0.0-184.0-0.0,voc_e2,12002,"[{""event"":""fullscreenenter"",""trial"":1,""time"":1460}]",NA,NA,NA,NA,NA,0,#3386FF,#D89F1C,0,0,1,38,1,546.0999999940395,39,0,425.29999999701977,0,0,experiment,NA,NA,1,0.7,0.3,2,3,175,4,NA
fcp-trial,210,748427,0.0-185.0-0.0,voc_e2,12002,"[{""event"":""fullscreenenter"",""trial"":1,""time"":1460}]",NA,NA,NA,NA,NA,2,#741CD8,#D8271C,10,0,1,40,0,434.79999999701977,39,0,553.9000000059605,0,0,experiment,NA,NA,0,0.9,0.1,0,1,176,4,NA
fcp-trial,211,750978,0.0-186.0-0.0,voc_e2,12002,"[{""event"":""fullscreenenter"",""trial"":1,""time"":1460}]",NA,NA,NA,NA,NA,6,#FA92F8,#1CD855,0,10,0,40,0,571.0999999940395,37,1,474.59999999403954,0,0,experiment,NA,NA,2,0.5,0.5,5,4,177,4,NA
fcp-trial,212,753560,0.0-187.0-0.0,voc_e2,12002,"[{""event"":""fullscreenenter"",""trial"":1,""time"":1460}]",NA,NA,NA,NA,NA,6,#741CD8,#D8271C,0,10,1,40,0,692.6999999880791,39,0,385.5,10,0,experiment,NA,NA,0,0.9,0.1,0,1,178,4,NA
fcp-trial,213,756187,0.0-188.0-0.0,voc_e2,12002,"[{""event"":""fullscreenenter"",""trial"":1,""time"":1460}]",NA,NA,NA,NA,NA,5,#3386FF,#D89F1C,10,0,1,40,0,562,37,1,560.6000000089407,10,1,experiment,NA,NA,1,0.7,0.3,2,3,179,4,NA
fcp-trial,214,758404,0.0-189.0-0.0,voc_e2,12002,"[{""event"":""fullscreenenter"",""trial"":1,""time"":1460}]",NA,NA,NA,NA,NA,4,#D8271C,#741CD8,0,10,0,40,0,378.3999999910593,39,0,334.20000000298023,10,1,experiment,NA,NA,0,0.1,0.9,1,0,180,4,NA
fcp-trial,215,760708,0.0-190.0-0.0,voc_e2,12002,"[{""event"":""fullscreenenter"",""trial"":1,""time"":1460}]",NA,NA,NA,NA,NA,2,#1CD855,#FA92F8,10,0,1,38,1,309.59999999403954,39,0,490.70000000298023,0,0,experiment,NA,NA,2,0.5,0.5,4,5,181,5,NA
fcp-trial,216,763589,0.0-191.0-0.0,voc_e2,12002,"[{""event"":""fullscreenenter"",""trial"":1,""time"":1460}]",NA,NA,NA,NA,NA,1,#FA92F8,#1CD855,10,10,0,40,0,713.0999999940395,37,1,658.8000000119209,10,0,experiment,NA,NA,2,0.5,0.5,5,4,182,5,NA
fcp-trial,217,766268,0.0-192.0-0.0,voc_e2,12002,"[{""event"":""fullscreenenter"",""trial"":1,""time"":1460}]",NA,NA,NA,NA,NA,4,#1CD855,#FA92F8,0,10,1,40,0,473.8999999910593,37,1,695.5,0,1,experiment,NA,NA,2,0.5,0.5,4,5,183,5,NA
fcp-trial,218,769087,0.0-193.0-0.0,voc_e2,12002,"[{""event"":""fullscreenenter"",""trial"":1,""time"":1460}]",NA,NA,NA,NA,NA,2,#3386FF,#D89F1C,10,10,1,40,0,829.7000000029802,39,0,481.3999999910593,10,0,experiment,NA,NA,1,0.7,0.3,2,3,184,5,NA
fcp-trial,219,771526,0.0-194.0-0.0,voc_e2,12002,"[{""event"":""fullscreenenter"",""trial"":1,""time"":1460}]",NA,NA,NA,NA,NA,1,#741CD8,#D8271C,10,0,1,40,0,562.5,39,0,373.79999999701977,0,0,experiment,NA,NA,0,0.9,0.1,0,1,185,5,NA
fcp-trial,220,774265,0.0-195.0-0.0,voc_e2,12002,"[{""event"":""fullscreenenter"",""trial"":1,""time"":1460}]",NA,NA,NA,NA,NA,3,#FA92F8,#1CD855,0,0,0,40,0,650.2999999970198,37,1,584.7999999970198,0,0,experiment,NA,NA,2,0.5,0.5,5,4,186,5,NA
fcp-trial,221,776587,0.0-196.0-0.0,voc_e2,12002,"[{""event"":""fullscreenenter"",""trial"":1,""time"":1460}]",NA,NA,NA,NA,NA,3,#3386FF,#D89F1C,10,10,1,40,0,446.3999999910593,39,0,370.79999999701977,10,0,experiment,NA,NA,1,0.7,0.3,2,3,187,5,NA
fcp-trial,222,779150,0.0-197.0-0.0,voc_e2,12002,"[{""event"":""fullscreenenter"",""trial"":1,""time"":1460}]",NA,NA,NA,NA,NA,1,#3386FF,#D89F1C,10,0,1,40,0,459.70000000298023,39,0,599.2999999970198,0,0,experiment,NA,NA,1,0.7,0.3,2,3,188,5,NA
fcp-trial,223,781623,0.0-198.0-0.0,voc_e2,12002,"[{""event"":""fullscreenenter"",""trial"":1,""time"":1460}]",NA,NA,NA,NA,NA,6,#3386FF,#D89F1C,0,10,1,40,0,620.4000000059605,39,0,348.29999999701977,10,0,experiment,NA,NA,1,0.7,0.3,2,3,189,5,NA
fcp-trial,224,784093,0.0-199.0-0.0,voc_e2,12002,"[{""event"":""fullscreenenter"",""trial"":1,""time"":1460}]",NA,NA,NA,NA,NA,5,#D8271C,#741CD8,0,10,0,40,0,634.2999999970198,39,0,333.70000000298023,10,1,experiment,NA,NA,0,0.1,0.9,1,0,190,5,NA
fcp-trial,225,787642,0.0-200.0-0.0,voc_e2,12002,"[{""event"":""fullscreenenter"",""trial"":1,""time"":1460}]",NA,NA,NA,NA,NA,0,#D89F1C,#3386FF,0,0,0,38,1,1250.800000011921,37,1,791.1000000089407,0,0,experiment,NA,NA,1,0.3,0.7,3,2,191,5,NA
fcp-trial,226,790391,0.0-201.0-0.0,voc_e2,12002,"[{""event"":""fullscreenenter"",""trial"":1,""time"":1460}]",NA,NA,NA,NA,NA,5,#D89F1C,#3386FF,10,10,0,38,1,664.3000000119209,39,0,581.2000000029802,10,1,experiment,NA,NA,1,0.3,0.7,3,2,192,5,NA
fcp-trial,227,793498,0.0-202.0-0.0,voc_e2,12002,"[{""event"":""fullscreenenter"",""trial"":1,""time"":1460}]",NA,NA,NA,NA,NA,2,#D89F1C,#3386FF,0,0,0,40,0,737.4000000059605,37,1,862.9000000059605,0,0,experiment,NA,NA,1,0.3,0.7,3,2,193,5,NA
fcp-trial,228,795762,0.0-203.0-0.0,voc_e2,12002,"[{""event"":""fullscreenenter"",""trial"":1,""time"":1460}]",NA,NA,NA,NA,NA,6,#3386FF,#D89F1C,10,0,1,40,0,364,39,0,397.09999999403954,0,0,experiment,NA,NA,1,0.7,0.3,2,3,194,5,NA
fcp-trial,229,798141,0.0-204.0-0.0,voc_e2,12002,"[{""event"":""fullscreenenter"",""trial"":1,""time"":1460}]",NA,NA,NA,NA,NA,1,#741CD8,#D8271C,10,0,1,40,0,555,39,0,317.40000000596046,0,0,experiment,NA,NA,0,0.9,0.1,0,1,195,5,NA
fcp-trial,230,800922,0.0-205.0-0.0,voc_e2,12002,"[{""event"":""fullscreenenter"",""trial"":1,""time"":1460}]",NA,NA,NA,NA,NA,4,#FA92F8,#1CD855,10,10,0,40,0,777.7999999970198,39,0,499,10,1,experiment,NA,NA,2,0.5,0.5,5,4,196,5,NA
fcp-trial,231,803439,0.0-206.0-0.0,voc_e2,12002,"[{""event"":""fullscreenenter"",""trial"":1,""time"":1460}]",NA,NA,NA,NA,NA,3,#FA92F8,#1CD855,10,10,0,38,1,457.70000000298023,39,0,555.7000000029802,10,1,experiment,NA,NA,2,0.5,0.5,5,4,197,5,NA
fcp-trial,232,806041,0.0-207.0-0.0,voc_e2,12002,"[{""event"":""fullscreenenter"",""trial"":1,""time"":1460}]",NA,NA,NA,NA,NA,2,#741CD8,#D8271C,10,0,1,40,0,611.2000000029802,39,0,486.40000000596046,0,0,experiment,NA,NA,0,0.9,0.1,0,1,198,5,NA
fcp-trial,233,808679,0.0-208.0-0.0,voc_e2,12002,"[{""event"":""fullscreenenter"",""trial"":1,""time"":1460}]",NA,NA,NA,NA,NA,4,#D89F1C,#3386FF,10,10,0,40,0,598.0999999940395,39,0,530.0999999940395,10,1,experiment,NA,NA,1,0.3,0.7,3,2,199,5,NA
fcp-trial,234,811292,0.0-209.0-0.0,voc_e2,12002,"[{""event"":""fullscreenenter"",""trial"":1,""time"":1460}]",NA,NA,NA,NA,NA,3,#D8271C,#741CD8,0,10,0,40,0,752.7999999970198,39,0,355.3999999910593,10,1,experiment,NA,NA,0,0.1,0.9,1,0,200,5,NA
fcp-trial,235,813827,0.0-210.0-0.0,voc_e2,12002,"[{""event"":""fullscreenenter"",""trial"":1,""time"":1460}]",NA,NA,NA,NA,NA,1,#3386FF,#D89F1C,10,0,1,40,0,642.6000000089407,39,0,386.79999999701977,0,0,experiment,NA,NA,1,0.7,0.3,2,3,201,5,NA
fcp-trial,236,816862,0.0-211.0-0.0,voc_e2,12002,"[{""event"":""fullscreenenter"",""trial"":1,""time"":1460}]",NA,NA,NA,NA,NA,0,#1CD855,#FA92F8,10,10,1,38,1,995.1000000089407,37,1,535.6999999880791,10,1,experiment,NA,NA,2,0.5,0.5,4,5,202,5,NA
fcp-trial,237,819065,0.0-212.0-0.0,voc_e2,12002,"[{""event"":""fullscreenenter"",""trial"":1,""time"":1460}]",NA,NA,NA,NA,NA,2,#FA92F8,#1CD855,10,10,0,38,1,326.29999999701977,39,0,367.09999999403954,10,1,experiment,NA,NA,2,0.5,0.5,5,4,203,5,NA
fcp-trial,238,822226,0.0-213.0-0.0,voc_e2,12002,"[{""event"":""fullscreenenter"",""trial"":1,""time"":1460}]",NA,NA,NA,NA,NA,5,#FA92F8,#1CD855,10,10,0,40,0,1158.2999999970198,37,1,500.29999999701977,10,0,experiment,NA,NA,2,0.5,0.5,5,4,204,5,NA
fcp-trial,239,825155,0.0-214.0-0.0,voc_e2,12002,"[{""event"":""fullscreenenter"",""trial"":1,""time"":1460}]",NA,NA,NA,NA,NA,4,#741CD8,#D8271C,10,0,1,40,0,688.7999999970198,37,1,736.9000000059605,10,1,experiment,NA,NA,0,0.9,0.1,0,1,205,5,NA
fcp-trial,240,827829,0.0-215.0-0.0,voc_e2,12002,"[{""event"":""fullscreenenter"",""trial"":1,""time"":1460}]",NA,NA,NA,NA,NA,3,#D89F1C,#3386FF,10,10,0,40,0,769.7000000029802,39,0,397.90000000596046,10,1,experiment,NA,NA,1,0.3,0.7,3,2,206,5,NA
fcp-trial,241,830610,0.0-216.0-0.0,voc_e2,12002,"[{""event"":""fullscreenenter"",""trial"":1,""time"":1460}]",NA,NA,NA,NA,NA,6,#D8271C,#741CD8,10,10,0,40,0,658.7999999970198,37,1,617.6999999880791,10,0,experiment,NA,NA,0,0.1,0.9,1,0,207,5,NA
fcp-trial,242,833265,0.0-217.0-0.0,voc_e2,12002,"[{""event"":""fullscreenenter"",""trial"":1,""time"":1460}]",NA,NA,NA,NA,NA,1,#FA92F8,#1CD855,0,10,0,40,0,789.3000000119209,39,0,357,10,1,experiment,NA,NA,2,0.5,0.5,5,4,208,5,NA
fcp-trial,243,836204,0.0-218.0-0.0,voc_e2,12002,"[{""event"":""fullscreenenter"",""trial"":1,""time"":1460}]",NA,NA,NA,NA,NA,0,#D8271C,#741CD8,0,10,0,38,1,995.7999999970198,39,0,438.79999999701977,10,1,experiment,NA,NA,0,0.1,0.9,1,0,209,5,NA
fcp-trial,244,839807,0.0-219.0-0.0,voc_e2,12002,"[{""event"":""fullscreenenter"",""trial"":1,""time"":1460}]",NA,NA,NA,NA,NA,6,#1CD855,#FA92F8,0,0,1,40,0,1520.1000000089407,37,1,574.6000000089407,0,1,experiment,NA,NA,2,0.5,0.5,4,5,210,5,NA
audio-instructions,245,844836,0.0-220.0,voc_e2,12002,"[{""event"":""fullscreenenter"",""trial"":1,""time"":1460}]",NA,583.4000000059605,static/audio/pause.wav,NA,0,NA,NA,NA,NA,NA,NA,NA,NA,NA,NA,NA,NA,NA,NA,NA,NA,NA,NA,NA,NA,NA,NA,NA,NA,NA
fcp-trial,246,848092,0.0-221.0-0.0,voc_e2,12002,"[{""event"":""fullscreenenter"",""trial"":1,""time"":1460}]",NA,NA,NA,NA,NA,4,#1CD855,#FA92F8,10,10,1,40,0,1024.0999999940395,37,1,722.2000000029802,10,1,experiment,NA,NA,2,0.5,0.5,4,5,211,5,NA
fcp-trial,247,850358,0.0-222.0-0.0,voc_e2,12002,"[{""event"":""fullscreenenter"",""trial"":1,""time"":1460}]",NA,NA,NA,NA,NA,5,#741CD8,#D8271C,10,0,1,40,0,428,39,0,327.5,0,0,experiment,NA,NA,0,0.9,0.1,0,1,212,5,NA
fcp-trial,248,852872,0.0-223.0-0.0,voc_e2,12002,"[{""event"":""fullscreenenter"",""trial"":1,""time"":1460}]",NA,NA,NA,NA,NA,2,#D89F1C,#3386FF,0,10,0,40,0,478.40000000596046,37,1,518.7000000029802,0,0,experiment,NA,NA,1,0.3,0.7,3,2,213,5,NA
fcp-trial,249,855884,0.0-224.0-0.0,voc_e2,12002,"[{""event"":""fullscreenenter"",""trial"":1,""time"":1460}]",NA,NA,NA,NA,NA,4,#D89F1C,#3386FF,10,10,0,40,0,636.5999999940395,37,1,860.2999999970198,10,0,experiment,NA,NA,1,0.3,0.7,3,2,214,5,NA
fcp-trial,250,858613,0.0-225.0-0.0,voc_e2,12002,"[{""event"":""fullscreenenter"",""trial"":1,""time"":1460}]",NA,NA,NA,NA,NA,3,#1CD855,#FA92F8,0,10,1,40,0,737.8999999910593,37,1,473.3999999910593,0,1,experiment,NA,NA,2,0.5,0.5,4,5,215,5,NA
fcp-trial,251,861576,0.0-226.0-0.0,voc_e2,12002,"[{""event"":""fullscreenenter"",""trial"":1,""time"":1460}]",NA,NA,NA,NA,NA,6,#D89F1C,#3386FF,10,10,0,40,0,1019,39,0,422.5,10,1,experiment,NA,NA,1,0.3,0.7,3,2,216,5,NA
fcp-trial,252,864350,0.0-227.0-0.0,voc_e2,12002,"[{""event"":""fullscreenenter"",""trial"":1,""time"":1460}]",NA,NA,NA,NA,NA,6,#D8271C,#741CD8,0,10,0,40,0,784,37,1,465.70000000298023,0,0,experiment,NA,NA,0,0.1,0.9,1,0,217,5,NA
fcp-trial,253,866985,0.0-228.0-0.0,voc_e2,12002,"[{""event"":""fullscreenenter"",""trial"":1,""time"":1460}]",NA,NA,NA,NA,NA,2,#D8271C,#741CD8,0,0,0,40,0,507.59999999403954,37,1,610.5999999940395,0,0,experiment,NA,NA,0,0.1,0.9,1,0,218,5,NA
fcp-trial,254,869668,0.0-229.0-0.0,voc_e2,12002,"[{""event"":""fullscreenenter"",""trial"":1,""time"":1460}]",NA,NA,NA,NA,NA,6,#FA92F8,#1CD855,0,10,0,40,0,711.9000000059605,39,0,449.5,10,1,experiment,NA,NA,2,0.5,0.5,5,4,219,5,NA
fcp-trial,255,873133,0.0-230.0-0.0,voc_e2,12002,"[{""event"":""fullscreenenter"",""trial"":1,""time"":1460}]",NA,NA,NA,NA,NA,0,#741CD8,#D8271C,10,0,1,38,1,1321.5999999940395,37,1,633.2999999970198,10,1,experiment,NA,NA,0,0.9,0.1,0,1,220,5,NA
fcp-trial,256,876531,0.0-231.0-0.0,voc_e2,12002,"[{""event"":""fullscreenenter"",""trial"":1,""time"":1460}]",NA,NA,NA,NA,NA,5,#3386FF,#D89F1C,10,10,1,40,0,1248.5999999940395,39,0,644,10,0,experiment,NA,NA,1,0.7,0.3,2,3,221,5,NA
fcp-trial,257,879484,0.0-232.0-0.0,voc_e2,12002,"[{""event"":""fullscreenenter"",""trial"":1,""time"":1460}]",NA,NA,NA,NA,NA,5,#FA92F8,#1CD855,10,10,0,40,0,814.1000000089407,37,1,631,10,0,experiment,NA,NA,2,0.5,0.5,5,4,222,5,NA
fcp-trial,258,883484,0.0-233.0-0.0,voc_e2,12002,"[{""event"":""fullscreenenter"",""trial"":1,""time"":1460}]",NA,NA,NA,NA,NA,0,#D89F1C,#3386FF,0,0,0,40,0,1178.4000000059605,37,1,1314.300000011921,0,0,experiment,NA,NA,1,0.3,0.7,3,2,223,5,NA
fcp-trial,259,886695,0.0-234.0-0.0,voc_e2,12002,"[{""event"":""fullscreenenter"",""trial"":1,""time"":1460}]",NA,NA,NA,NA,NA,1,#FA92F8,#1CD855,0,0,0,40,0,1121,37,1,585.6000000089407,0,0,experiment,NA,NA,2,0.5,0.5,5,4,224,5,NA
fcp-trial,260,889658,0.0-235.0-0.0,voc_e2,12002,"[{""event"":""fullscreenenter"",""trial"":1,""time"":1460}]",NA,NA,NA,NA,NA,4,#D8271C,#741CD8,0,10,0,40,0,1047.9000000059605,39,0,408.79999999701977,10,1,experiment,NA,NA,0,0.1,0.9,1,0,225,5,NA
fcp-trial,261,892648,0.0-236.0-0.0,voc_e2,12002,"[{""event"":""fullscreenenter"",""trial"":1,""time"":1460}]",NA,NA,NA,NA,NA,3,#D89F1C,#3386FF,0,10,0,40,0,889.7999999970198,37,1,593.8000000119209,0,0,experiment,NA,NA,1,0.3,0.7,3,2,226,6,NA
fcp-trial,262,895236,0.0-237.0-0.0,voc_e2,12002,"[{""event"":""fullscreenenter"",""trial"":1,""time"":1460}]",NA,NA,NA,NA,NA,1,#D8271C,#741CD8,0,10,0,40,0,695.7000000029802,39,0,383.79999999701977,10,1,experiment,NA,NA,0,0.1,0.9,1,0,227,6,NA
fcp-trial,263,897975,0.0-238.0-0.0,voc_e2,12002,"[{""event"":""fullscreenenter"",""trial"":1,""time"":1460}]",NA,NA,NA,NA,NA,2,#FA92F8,#1CD855,10,0,0,40,0,692.0999999940395,37,1,536.2000000029802,10,0,experiment,NA,NA,2,0.5,0.5,5,4,228,6,NA
fcp-trial,264,900493,0.0-239.0-0.0,voc_e2,12002,"[{""event"":""fullscreenenter"",""trial"":1,""time"":1460}]",NA,NA,NA,NA,NA,3,#D8271C,#741CD8,0,10,0,40,0,600.5,39,0,408.79999999701977,10,1,experiment,NA,NA,0,0.1,0.9,1,0,229,6,NA
fcp-trial,265,903320,0.0-240.0-0.0,voc_e2,12002,"[{""event"":""fullscreenenter"",""trial"":1,""time"":1460}]",NA,NA,NA,NA,NA,1,#D89F1C,#3386FF,0,0,0,40,0,665.1000000089407,37,1,654.8999999910593,0,0,experiment,NA,NA,1,0.3,0.7,3,2,230,6,NA
fcp-trial,266,906314,0.0-241.0-0.0,voc_e2,12002,"[{""event"":""fullscreenenter"",""trial"":1,""time"":1460}]",NA,NA,NA,NA,NA,0,#FA92F8,#1CD855,0,10,0,40,0,949.6000000089407,37,1,536.7999999970198,0,0,experiment,NA,NA,2,0.5,0.5,5,4,231,6,NA
fcp-trial,267,909097,0.0-242.0-0.0,voc_e2,12002,"[{""event"":""fullscreenenter"",""trial"":1,""time"":1460}]",NA,NA,NA,NA,NA,3,#741CD8,#D8271C,10,0,1,40,0,815.9000000059605,39,0,461.20000000298023,0,0,experiment,NA,NA,0,0.9,0.1,0,1,232,6,NA
fcp-trial,268,911693,0.0-243.0-0.0,voc_e2,12002,"[{""event"":""fullscreenenter"",""trial"":1,""time"":1460}]",NA,NA,NA,NA,NA,5,#3386FF,#D89F1C,0,10,1,40,0,610,39,0,477.8999999910593,10,0,experiment,NA,NA,1,0.7,0.3,2,3,233,6,NA
fcp-trial,269,914206,0.0-244.0-0.0,voc_e2,12002,"[{""event"":""fullscreenenter"",""trial"":1,""time"":1460}]",NA,NA,NA,NA,NA,2,#D89F1C,#3386FF,10,0,0,40,0,495.70000000298023,39,0,508.1000000089407,0,1,experiment,NA,NA,1,0.3,0.7,3,2,234,6,NA
fcp-trial,270,916814,0.0-245.0-0.0,voc_e2,12002,"[{""event"":""fullscreenenter"",""trial"":1,""time"":1460}]",NA,NA,NA,NA,NA,4,#741CD8,#D8271C,10,0,1,38,1,556.1000000089407,37,1,545.4000000059605,10,1,experiment,NA,NA,0,0.9,0.1,0,1,235,6,NA
fcp-trial,271,919521,0.0-246.0-0.0,voc_e2,12002,"[{""event"":""fullscreenenter"",""trial"":1,""time"":1460}]",NA,NA,NA,NA,NA,2,#FA92F8,#1CD855,10,0,0,40,0,830.5999999940395,39,0,370,0,1,experiment,NA,NA,2,0.5,0.5,5,4,236,6,NA
fcp-trial,272,922172,0.0-247.0-0.0,voc_e2,12002,"[{""event"":""fullscreenenter"",""trial"":1,""time"":1460}]",NA,NA,NA,NA,NA,3,#3386FF,#D89F1C,10,0,1,40,0,763.6000000089407,39,0,379.20000000298023,0,0,experiment,NA,NA,1,0.7,0.3,2,3,237,6,NA
fcp-trial,273,924915,0.0-248.0-0.0,voc_e2,12002,"[{""event"":""fullscreenenter"",""trial"":1,""time"":1460}]",NA,NA,NA,NA,NA,6,#D8271C,#741CD8,0,10,0,40,0,765.1000000089407,37,1,464.79999999701977,0,0,experiment,NA,NA,0,0.1,0.9,1,0,238,6,NA
fcp-trial,274,927740,0.0-249.0-0.0,voc_e2,12002,"[{""event"":""fullscreenenter"",""trial"":1,""time"":1460}]",NA,NA,NA,NA,NA,1,#1CD855,#FA92F8,0,10,1,40,0,621.2999999970198,37,1,693.8999999910593,0,1,experiment,NA,NA,2,0.5,0.5,4,5,239,6,NA
fcp-trial,275,930518,0.0-250.0-0.0,voc_e2,12002,"[{""event"":""fullscreenenter"",""trial"":1,""time"":1460}]",NA,NA,NA,NA,NA,5,#1CD855,#FA92F8,0,10,1,40,0,842.5999999940395,39,0,427,10,0,experiment,NA,NA,2,0.5,0.5,4,5,240,6,NA
fcp-trial,276,933300,0.0-251.0-0.0,voc_e2,12002,"[{""event"":""fullscreenenter"",""trial"":1,""time"":1460}]",NA,NA,NA,NA,NA,5,#D8271C,#741CD8,10,10,0,40,0,810.2000000029802,39,0,466.70000000298023,10,1,experiment,NA,NA,0,0.1,0.9,1,0,241,6,NA
fcp-trial,277,936216,0.0-252.0-0.0,voc_e2,12002,"[{""event"":""fullscreenenter"",""trial"":1,""time"":1460}]",NA,NA,NA,NA,NA,0,#3386FF,#D89F1C,10,0,1,38,1,998.4000000059605,39,0,410.6000000089407,0,0,experiment,NA,NA,1,0.7,0.3,2,3,242,6,NA
fcp-trial,278,938788,0.0-253.0-0.0,voc_e2,12002,"[{""event"":""fullscreenenter"",""trial"":1,""time"":1460}]",NA,NA,NA,NA,NA,1,#D89F1C,#3386FF,0,10,0,38,1,656.4000000059605,37,1,407.90000000596046,0,0,experiment,NA,NA,1,0.3,0.7,3,2,243,6,NA
fcp-trial,279,941191,0.0-254.0-0.0,voc_e2,12002,"[{""event"":""fullscreenenter"",""trial"":1,""time"":1460}]",NA,NA,NA,NA,NA,6,#1CD855,#FA92F8,10,0,1,40,0,485.5,39,0,412.20000000298023,0,0,experiment,NA,NA,2,0.5,0.5,4,5,244,6,NA
fcp-trial,280,943799,0.0-255.0-0.0,voc_e2,12002,"[{""event"":""fullscreenenter"",""trial"":1,""time"":1460}]",NA,NA,NA,NA,NA,6,#3386FF,#D89F1C,0,0,1,40,0,716.2999999970198,39,0,386,0,0,experiment,NA,NA,1,0.7,0.3,2,3,245,6,NA
fcp-trial,281,946364,0.0-256.0-0.0,voc_e2,12002,"[{""event"":""fullscreenenter"",""trial"":1,""time"":1460}]",NA,NA,NA,NA,NA,2,#741CD8,#D8271C,0,0,1,40,0,580,39,0,474.29999999701977,0,0,experiment,NA,NA,0,0.9,0.1,0,1,246,6,NA
fcp-trial,282,948784,0.0-257.0-0.0,voc_e2,12002,"[{""event"":""fullscreenenter"",""trial"":1,""time"":1460}]",NA,NA,NA,NA,NA,3,#1CD855,#FA92F8,0,10,1,38,1,418.6000000089407,37,1,493.5,0,1,experiment,NA,NA,2,0.5,0.5,4,5,247,6,NA
fcp-trial,283,951267,0.0-258.0-0.0,voc_e2,12002,"[{""event"":""fullscreenenter"",""trial"":1,""time"":1460}]",NA,NA,NA,NA,NA,4,#FA92F8,#1CD855,0,0,0,38,1,617.9000000059605,39,0,359.40000000596046,0,1,experiment,NA,NA,2,0.5,0.5,5,4,248,6,NA
fcp-trial,284,953674,0.0-259.0-0.0,voc_e2,12002,"[{""event"":""fullscreenenter"",""trial"":1,""time"":1460}]",NA,NA,NA,NA,NA,0,#D8271C,#741CD8,0,10,0,38,1,425,39,0,477.59999999403954,10,1,experiment,NA,NA,0,0.1,0.9,1,0,249,6,NA
fcp-trial,285,956497,0.0-260.0-0.0,voc_e2,12002,"[{""event"":""fullscreenenter"",""trial"":1,""time"":1460}]",NA,NA,NA,NA,NA,4,#3386FF,#D89F1C,10,0,1,40,0,923.7000000029802,39,0,395.29999999701977,0,0,experiment,NA,NA,1,0.7,0.3,2,3,250,6,NA
fcp-trial,286,958960,0.0-261.0-0.0,voc_e2,12002,"[{""event"":""fullscreenenter"",""trial"":1,""time"":1460}]",NA,NA,NA,NA,NA,0,#FA92F8,#1CD855,10,10,0,38,1,552.5,37,1,405.90000000596046,10,0,experiment,NA,NA,2,0.5,0.5,5,4,251,6,NA
fcp-trial,287,961792,0.0-262.0-0.0,voc_e2,12002,"[{""event"":""fullscreenenter"",""trial"":1,""time"":1460}]",NA,NA,NA,NA,NA,1,#D8271C,#741CD8,0,10,0,38,1,843.9000000059605,39,0,478.79999999701977,10,1,experiment,NA,NA,0,0.1,0.9,1,0,252,6,NA
fcp-trial,288,964968,0.0-263.0-0.0,voc_e2,12002,"[{""event"":""fullscreenenter"",""trial"":1,""time"":1460}]",NA,NA,NA,NA,NA,6,#FA92F8,#1CD855,0,0,0,40,0,1118.4000000059605,39,0,550.6000000089407,0,1,experiment,NA,NA,2,0.5,0.5,5,4,253,6,NA
fcp-trial,289,967327,0.0-264.0-0.0,voc_e2,12002,"[{""event"":""fullscreenenter"",""trial"":1,""time"":1460}]",NA,NA,NA,NA,NA,0,#1CD855,#FA92F8,0,10,1,38,1,369.09999999403954,39,0,483,10,0,experiment,NA,NA,2,0.5,0.5,4,5,254,6,NA
fcp-trial,290,969653,0.0-265.0-0.0,voc_e2,12002,"[{""event"":""fullscreenenter"",""trial"":1,""time"":1460}]",NA,NA,NA,NA,NA,2,#FA92F8,#1CD855,10,0,0,38,1,458,37,1,360.40000000596046,10,0,experiment,NA,NA,2,0.5,0.5,5,4,255,6,NA
fcp-trial,291,972074,0.0-266.0-0.0,voc_e2,12002,"[{""event"":""fullscreenenter"",""trial"":1,""time"":1460}]",NA,NA,NA,NA,NA,0,#741CD8,#D8271C,0,0,1,38,1,531.2000000029802,39,0,381.29999999701977,0,0,experiment,NA,NA,0,0.9,0.1,0,1,256,6,NA
fcp-trial,292,974837,0.0-267.0-0.0,voc_e2,12002,"[{""event"":""fullscreenenter"",""trial"":1,""time"":1460}]",NA,NA,NA,NA,NA,2,#3386FF,#D89F1C,0,0,1,40,0,851.7000000029802,39,0,403.79999999701977,0,0,experiment,NA,NA,1,0.7,0.3,2,3,257,6,NA
fcp-trial,293,978184,0.0-268.0-0.0,voc_e2,12002,"[{""event"":""fullscreenenter"",""trial"":1,""time"":1460}]",NA,NA,NA,NA,NA,4,#D8271C,#741CD8,0,10,0,40,0,1174.8999999910593,37,1,665,0,0,experiment,NA,NA,0,0.1,0.9,1,0,258,6,NA
fcp-trial,294,981095,0.0-269.0-0.0,voc_e2,12002,"[{""event"":""fullscreenenter"",""trial"":1,""time"":1460}]",NA,NA,NA,NA,NA,3,#FA92F8,#1CD855,0,10,0,40,0,703.7000000029802,37,1,703.1000000089407,0,0,experiment,NA,NA,2,0.5,0.5,5,4,259,6,NA
fcp-trial,295,984020,0.0-270.0-0.0,voc_e2,12002,"[{""event"":""fullscreenenter"",""trial"":1,""time"":1460}]",NA,NA,NA,NA,NA,2,#D8271C,#741CD8,0,10,0,40,0,729.4000000059605,37,1,684.7000000029802,0,0,experiment,NA,NA,0,0.1,0.9,1,0,260,6,NA
fcp-trial,296,987146,0.0-271.0-0.0,voc_e2,12002,"[{""event"":""fullscreenenter"",""trial"":1,""time"":1460}]",NA,NA,NA,NA,NA,4,#D89F1C,#3386FF,10,0,0,40,0,817.9000000059605,37,1,798.2999999970198,10,0,experiment,NA,NA,1,0.3,0.7,3,2,261,6,NA
fcp-trial,297,990198,0.0-272.0-0.0,voc_e2,12002,"[{""event"":""fullscreenenter"",""trial"":1,""time"":1460}]",NA,NA,NA,NA,NA,1,#3386FF,#D89F1C,10,0,1,40,0,989.2000000029802,39,0,553.1000000089407,0,0,experiment,NA,NA,1,0.7,0.3,2,3,262,6,NA
fcp-trial,298,993262,0.0-273.0-0.0,voc_e2,12002,"[{""event"":""fullscreenenter"",""trial"":1,""time"":1460}]",NA,NA,NA,NA,NA,1,#1CD855,#FA92F8,0,10,1,40,0,738.7000000029802,39,0,817.7999999970198,10,0,experiment,NA,NA,2,0.5,0.5,4,5,263,6,NA
fcp-trial,299,996513,0.0-274.0-0.0,voc_e2,12002,"[{""event"":""fullscreenenter"",""trial"":1,""time"":1460}]",NA,NA,NA,NA,NA,0,#D89F1C,#3386FF,0,10,0,38,1,1001,39,0,745.0999999940395,10,1,experiment,NA,NA,1,0.3,0.7,3,2,264,6,NA
fcp-trial,300,999508,0.0-275.0-0.0,voc_e2,12002,"[{""event"":""fullscreenenter"",""trial"":1,""time"":1460}]",NA,NA,NA,NA,NA,5,#741CD8,#D8271C,10,0,1,40,0,757.3999999910593,37,1,731.9000000059605,10,1,experiment,NA,NA,0,0.9,0.1,0,1,265,6,NA
fcp-trial,301,1002409,0.0-276.0-0.0,voc_e2,12002,"[{""event"":""fullscreenenter"",""trial"":1,""time"":1460}]",NA,NA,NA,NA,NA,3,#741CD8,#D8271C,10,0,1,40,0,767.3999999910593,39,0,627.5999999940395,0,0,experiment,NA,NA,0,0.9,0.1,0,1,266,6,NA
fcp-trial,302,1005262,0.0-277.0-0.0,voc_e2,12002,"[{""event"":""fullscreenenter"",""trial"":1,""time"":1460}]",NA,NA,NA,NA,NA,6,#D8271C,#741CD8,0,10,0,40,0,690.7999999970198,37,1,654.2000000029802,0,0,experiment,NA,NA,0,0.1,0.9,1,0,267,6,NA
fcp-trial,303,1008197,0.0-278.0-0.0,voc_e2,12002,"[{""event"":""fullscreenenter"",""trial"":1,""time"":1460}]",NA,NA,NA,NA,NA,5,#1CD855,#FA92F8,0,10,1,40,0,720.7000000029802,37,1,707.4000000059605,0,1,experiment,NA,NA,2,0.5,0.5,4,5,268,6,NA
fcp-trial,304,1011000,0.0-279.0-0.0,voc_e2,12002,"[{""event"":""fullscreenenter"",""trial"":1,""time"":1460}]",NA,NA,NA,NA,NA,5,#3386FF,#D89F1C,0,0,1,40,0,791.9000000059605,39,0,504.20000000298023,0,0,experiment,NA,NA,1,0.7,0.3,2,3,269,6,NA
fcp-trial,305,1013778,0.0-280.0-0.0,voc_e2,12002,"[{""event"":""fullscreenenter"",""trial"":1,""time"":1460}]",NA,NA,NA,NA,NA,6,#3386FF,#D89F1C,10,0,1,40,0,704.2999999970198,37,1,567.2999999970198,10,1,experiment,NA,NA,1,0.7,0.3,2,3,270,6,NA
fcp-trial,306,1017349,0.0-281.0-0.0,voc_e2,12002,"[{""event"":""fullscreenenter"",""trial"":1,""time"":1460}]",NA,NA,NA,NA,NA,1,#D8271C,#741CD8,0,10,0,38,1,1607.5,39,0,456.40000000596046,10,1,experiment,NA,NA,0,0.1,0.9,1,0,271,7,NA
fcp-trial,307,1019883,0.0-282.0-0.0,voc_e2,12002,"[{""event"":""fullscreenenter"",""trial"":1,""time"":1460}]",NA,NA,NA,NA,NA,4,#1CD855,#FA92F8,0,10,1,40,0,556.0999999940395,37,1,468.70000000298023,0,1,experiment,NA,NA,2,0.5,0.5,4,5,272,7,NA
fcp-trial,308,1022754,0.0-283.0-0.0,voc_e2,12002,"[{""event"":""fullscreenenter"",""trial"":1,""time"":1460}]",NA,NA,NA,NA,NA,3,#D89F1C,#3386FF,0,0,0,40,0,688.5999999940395,37,1,675.2000000029802,0,0,experiment,NA,NA,1,0.3,0.7,3,2,273,7,NA
fcp-trial,309,1025448,0.0-284.0-0.0,voc_e2,12002,"[{""event"":""fullscreenenter"",""trial"":1,""time"":1460}]",NA,NA,NA,NA,NA,6,#D8271C,#741CD8,0,10,0,40,0,635.1000000089407,39,0,550.2999999970198,10,1,experiment,NA,NA,0,0.1,0.9,1,0,274,7,NA
fcp-trial,310,1028562,0.0-285.0-0.0,voc_e2,12002,"[{""event"":""fullscreenenter"",""trial"":1,""time"":1460}]",NA,NA,NA,NA,NA,2,#D89F1C,#3386FF,10,0,0,40,0,882.2000000029802,37,1,724.5999999940395,10,0,experiment,NA,NA,1,0.3,0.7,3,2,275,7,NA
fcp-trial,311,1031550,0.0-286.0-0.0,voc_e2,12002,"[{""event"":""fullscreenenter"",""trial"":1,""time"":1460}]",NA,NA,NA,NA,NA,3,#D8271C,#741CD8,0,10,0,40,0,636.2999999970198,37,1,845.2999999970198,0,0,experiment,NA,NA,0,0.1,0.9,1,0,276,7,NA
fcp-trial,312,1034826,0.0-287.0-0.0,voc_e2,12002,"[{""event"":""fullscreenenter"",""trial"":1,""time"":1460}]",NA,NA,NA,NA,NA,1,#D89F1C,#3386FF,0,10,0,40,0,668.1000000089407,37,1,1099.5,0,0,experiment,NA,NA,1,0.3,0.7,3,2,277,7,NA
fcp-trial,313,1037347,0.0-288.0-0.0,voc_e2,12002,"[{""event"":""fullscreenenter"",""trial"":1,""time"":1460}]",NA,NA,NA,NA,NA,2,#FA92F8,#1CD855,10,10,0,40,0,600,39,0,411.5,10,1,experiment,NA,NA,2,0.5,0.5,5,4,278,7,NA
fcp-trial,314,1039845,0.0-289.0-0.0,voc_e2,12002,"[{""event"":""fullscreenenter"",""trial"":1,""time"":1460}]",NA,NA,NA,NA,NA,4,#D89F1C,#3386FF,0,10,0,40,0,553,37,1,439.300000011921,0,0,experiment,NA,NA,1,0.3,0.7,3,2,279,7,NA
fcp-trial,315,1042532,0.0-290.0-0.0,voc_e2,12002,"[{""event"":""fullscreenenter"",""trial"":1,""time"":1460}]",NA,NA,NA,NA,NA,6,#D89F1C,#3386FF,0,10,0,40,0,604.1000000089407,39,0,577.7000000029802,10,1,experiment,NA,NA,1,0.3,0.7,3,2,280,7,NA
fcp-trial,316,1045810,0.0-291.0-0.0,voc_e2,12002,"[{""event"":""fullscreenenter"",""trial"":1,""time"":1460}]",NA,NA,NA,NA,NA,0,#D8271C,#741CD8,0,10,0,40,0,525.4000000059605,39,0,1243.2000000029802,10,1,experiment,NA,NA,0,0.1,0.9,1,0,281,7,NA
fcp-trial,317,1048493,0.0-292.0-0.0,voc_e2,12002,"[{""event"":""fullscreenenter"",""trial"":1,""time"":1460}]",NA,NA,NA,NA,NA,5,#1CD855,#FA92F8,10,0,1,40,0,739.7999999970198,37,1,434.800000011921,10,1,experiment,NA,NA,2,0.5,0.5,4,5,282,7,NA
fcp-trial,318,1050893,0.0-293.0-0.0,voc_e2,12002,"[{""event"":""fullscreenenter"",""trial"":1,""time"":1460}]",NA,NA,NA,NA,NA,4,#D8271C,#741CD8,10,10,0,38,1,464.1000000089407,39,0,426.1000000089407,10,1,experiment,NA,NA,0,0.1,0.9,1,0,283,7,NA
fcp-trial,319,1053852,0.0-294.0-0.0,voc_e2,12002,"[{""event"":""fullscreenenter"",""trial"":1,""time"":1460}]",NA,NA,NA,NA,NA,0,#3386FF,#D89F1C,10,0,1,38,1,1085.5,37,1,366.199999988079,10,1,experiment,NA,NA,1,0.7,0.3,2,3,284,7,NA
fcp-trial,320,1056822,0.0-295.0-0.0,voc_e2,12002,"[{""event"":""fullscreenenter"",""trial"":1,""time"":1460}]",NA,NA,NA,NA,NA,1,#FA92F8,#1CD855,10,10,0,38,1,954.2000000029802,39,0,507.59999999403954,10,1,experiment,NA,NA,2,0.5,0.5,5,4,285,7,NA
fcp-trial,321,1059717,0.0-296.0-0.0,voc_e2,12002,"[{""event"":""fullscreenenter"",""trial"":1,""time"":1460}]",NA,NA,NA,NA,NA,5,#D8271C,#741CD8,0,10,0,38,1,869.4000000059605,37,1,518.6000000089407,0,0,experiment,NA,NA,0,0.1,0.9,1,0,286,7,NA
fcp-trial,322,1062632,0.0-297.0-0.0,voc_e2,12002,"[{""event"":""fullscreenenter"",""trial"":1,""time"":1460}]",NA,NA,NA,NA,NA,3,#1CD855,#FA92F8,0,10,1,38,1,994.5,39,0,408.90000000596046,10,0,experiment,NA,NA,2,0.5,0.5,4,5,287,7,NA
fcp-trial,323,1065643,0.0-298.0-0.0,voc_e2,12002,"[{""event"":""fullscreenenter"",""trial"":1,""time"":1460}]",NA,NA,NA,NA,NA,3,#3386FF,#D89F1C,0,0,1,38,1,896.7999999970198,37,1,605.5999999940395,0,1,experiment,NA,NA,1,0.7,0.3,2,3,288,7,NA
fcp-trial,324,1068528,0.0-299.0-0.0,voc_e2,12002,"[{""event"":""fullscreenenter"",""trial"":1,""time"":1460}]",NA,NA,NA,NA,NA,4,#1CD855,#FA92F8,0,10,1,38,1,1003.2000000029802,39,0,375.3999999910593,10,0,experiment,NA,NA,2,0.5,0.5,4,5,289,7,NA
fcp-trial,325,1072445,0.0-300.0-0.0,voc_e2,12002,"[{""event"":""fullscreenenter"",""trial"":1,""time"":1460}]",NA,NA,NA,NA,NA,1,#741CD8,#D8271C,10,0,1,38,1,1904.0999999940395,37,1,506.5,10,1,experiment,NA,NA,0,0.9,0.1,0,1,290,7,NA
fcp-trial,326,1076136,0.0-301.0-0.0,voc_e2,12002,"[{""event"":""fullscreenenter"",""trial"":1,""time"":1460}]",NA,NA,NA,NA,NA,6,#FA92F8,#1CD855,0,0,0,40,0,1692.2000000029802,39,0,493.79999999701977,0,1,experiment,NA,NA,2,0.5,0.5,5,4,291,7,NA
fcp-trial,327,1079458,0.0-302.0-0.0,voc_e2,12002,"[{""event"":""fullscreenenter"",""trial"":1,""time"":1460}]",NA,NA,NA,NA,NA,0,#1CD855,#FA92F8,10,10,1,38,1,1161.7000000029802,37,1,655.2999999970198,10,1,experiment,NA,NA,2,0.5,0.5,4,5,292,7,NA
fcp-trial,328,1082923,0.0-303.0-0.0,voc_e2,12002,"[{""event"":""fullscreenenter"",""trial"":1,""time"":1460}]",NA,NA,NA,NA,NA,5,#D89F1C,#3386FF,0,10,0,40,0,1335.0999999940395,37,1,620.7999999970198,0,0,experiment,NA,NA,1,0.3,0.7,3,2,293,7,NA
fcp-trial,329,1085851,0.0-304.0-0.0,voc_e2,12002,"[{""event"":""fullscreenenter"",""trial"":1,""time"":1460}]",NA,NA,NA,NA,NA,2,#D8271C,#741CD8,0,10,0,40,0,884.3999999910593,39,0,534.2000000029802,10,1,experiment,NA,NA,0,0.1,0.9,1,0,294,7,NA
fcp-trial,330,1088788,0.0-305.0-0.0,voc_e2,12002,"[{""event"":""fullscreenenter"",""trial"":1,""time"":1460}]",NA,NA,NA,NA,NA,2,#FA92F8,#1CD855,10,0,0,40,0,729.5999999940395,37,1,698.9000000059605,10,0,experiment,NA,NA,2,0.5,0.5,5,4,295,7,NA
fcp-trial,331,1091595,0.0-306.0-0.0,voc_e2,12002,"[{""event"":""fullscreenenter"",""trial"":1,""time"":1460}]",NA,NA,NA,NA,NA,4,#1CD855,#FA92F8,0,10,1,40,0,811.6999999880791,39,0,487.70000000298023,10,0,experiment,NA,NA,2,0.5,0.5,4,5,296,7,NA
fcp-trial,332,1094457,0.0-307.0-0.0,voc_e2,12002,"[{""event"":""fullscreenenter"",""trial"":1,""time"":1460}]",NA,NA,NA,NA,NA,6,#1CD855,#FA92F8,0,0,1,40,0,665.7999999970198,39,0,686.7999999970198,0,0,experiment,NA,NA,2,0.5,0.5,4,5,297,7,NA
fcp-trial,333,1097472,0.0-308.0-0.0,voc_e2,12002,"[{""event"":""fullscreenenter"",""trial"":1,""time"":1460}]",NA,NA,NA,NA,NA,2,#D8271C,#741CD8,0,10,0,40,0,802.6000000089407,37,1,703.8999999910593,0,0,experiment,NA,NA,0,0.1,0.9,1,0,298,7,NA
fcp-trial,334,1100516,0.0-309.0-0.0,voc_e2,12002,"[{""event"":""fullscreenenter"",""trial"":1,""time"":1460}]",NA,NA,NA,NA,NA,3,#D89F1C,#3386FF,0,10,0,40,0,727.2000000029802,37,1,808,0,0,experiment,NA,NA,1,0.3,0.7,3,2,299,7,NA
fcp-trial,335,1103336,0.0-310.0-0.0,voc_e2,12002,"[{""event"":""fullscreenenter"",""trial"":1,""time"":1460}]",NA,NA,NA,NA,NA,3,#741CD8,#D8271C,10,0,1,40,0,751.6999999880791,39,0,561.2999999970198,0,0,experiment,NA,NA,0,0.9,0.1,0,1,300,7,NA
fcp-trial,336,1106082,0.0-311.0-0.0,voc_e2,12002,"[{""event"":""fullscreenenter"",""trial"":1,""time"":1460}]",NA,NA,NA,NA,NA,3,#1CD855,#FA92F8,0,10,1,40,0,704.2999999970198,39,0,535.8999999910593,10,0,experiment,NA,NA,2,0.5,0.5,4,5,301,7,NA
fcp-trial,337,1108871,0.0-312.0-0.0,voc_e2,12002,"[{""event"":""fullscreenenter"",""trial"":1,""time"":1460}]",NA,NA,NA,NA,NA,6,#D8271C,#741CD8,0,10,0,40,0,661.9000000059605,37,1,621.2999999970198,0,0,experiment,NA,NA,0,0.1,0.9,1,0,302,7,NA
fcp-trial,338,1111519,0.0-313.0-0.0,voc_e2,12002,"[{""event"":""fullscreenenter"",""trial"":1,""time"":1460}]",NA,NA,NA,NA,NA,1,#1CD855,#FA92F8,10,0,1,40,0,594.2999999970198,39,0,548.8000000119209,0,0,experiment,NA,NA,2,0.5,0.5,4,5,303,7,NA
fcp-trial,339,1114301,0.0-314.0-0.0,voc_e2,12002,"[{""event"":""fullscreenenter"",""trial"":1,""time"":1460}]",NA,NA,NA,NA,NA,4,#D89F1C,#3386FF,0,10,0,40,0,750.0999999940395,39,0,524.0999999940395,10,1,experiment,NA,NA,1,0.3,0.7,3,2,304,7,NA
fcp-trial,340,1117428,0.0-315.0-0.0,voc_e2,12002,"[{""event"":""fullscreenenter"",""trial"":1,""time"":1460}]",NA,NA,NA,NA,NA,1,#3386FF,#D89F1C,10,10,1,38,1,1061.4000000059605,37,1,555.6000000089407,10,1,experiment,NA,NA,1,0.7,0.3,2,3,305,7,NA
fcp-trial,341,1120353,0.0-316.0-0.0,voc_e2,12002,"[{""event"":""fullscreenenter"",""trial"":1,""time"":1460}]",NA,NA,NA,NA,NA,6,#3386FF,#D89F1C,0,10,1,40,0,690.6999999880791,37,1,726.6999999880791,0,1,experiment,NA,NA,1,0.7,0.3,2,3,306,7,NA
fcp-trial,342,1123484,0.0-317.0-0.0,voc_e2,12002,"[{""event"":""fullscreenenter"",""trial"":1,""time"":1460}]",NA,NA,NA,NA,NA,4,#741CD8,#D8271C,10,0,1,40,0,802.8999999910593,39,0,822,0,0,experiment,NA,NA,0,0.9,0.1,0,1,307,7,NA
fcp-trial,343,1126294,0.0-318.0-0.0,voc_e2,12002,"[{""event"":""fullscreenenter"",""trial"":1,""time"":1460}]",NA,NA,NA,NA,NA,5,#1CD855,#FA92F8,10,0,1,40,0,655.5999999940395,37,1,649.0999999940395,10,1,experiment,NA,NA,2,0.5,0.5,4,5,308,7,NA
fcp-trial,344,1129215,0.0-319.0-0.0,voc_e2,12002,"[{""event"":""fullscreenenter"",""trial"":1,""time"":1460}]",NA,NA,NA,NA,NA,1,#D8271C,#741CD8,0,0,0,40,0,884.4000000059605,39,0,531.2999999970198,0,1,experiment,NA,NA,0,0.1,0.9,1,0,309,7,NA
fcp-trial,345,1132612,0.0-320.0-0.0,voc_e2,12002,"[{""event"":""fullscreenenter"",""trial"":1,""time"":1460}]",NA,NA,NA,NA,NA,0,#D89F1C,#3386FF,0,0,0,38,1,1075,39,0,815.2999999970198,0,1,experiment,NA,NA,1,0.3,0.7,3,2,310,7,NA
fcp-trial,346,1135230,0.0-321.0-0.0,voc_e2,12002,"[{""event"":""fullscreenenter"",""trial"":1,""time"":1460}]",NA,NA,NA,NA,NA,5,#3386FF,#D89F1C,10,10,1,40,0,495,39,0,615.7999999970198,10,0,experiment,NA,NA,1,0.7,0.3,2,3,311,7,NA
fcp-trial,347,1138239,0.0-322.0-0.0,voc_e2,12002,"[{""event"":""fullscreenenter"",""trial"":1,""time"":1460}]",NA,NA,NA,NA,NA,0,#1CD855,#FA92F8,0,0,1,38,1,959.2000000029802,37,1,539.8000000119209,0,1,experiment,NA,NA,2,0.5,0.5,4,5,312,7,NA
fcp-trial,348,1141524,0.0-323.0-0.0,voc_e2,12002,"[{""event"":""fullscreenenter"",""trial"":1,""time"":1460}]",NA,NA,NA,NA,NA,2,#D89F1C,#3386FF,10,10,0,40,0,1111.2000000029802,37,1,666.9000000059605,10,0,experiment,NA,NA,1,0.3,0.7,3,2,313,7,NA
fcp-trial,349,1144123,0.0-324.0-0.0,voc_e2,12002,"[{""event"":""fullscreenenter"",""trial"":1,""time"":1460}]",NA,NA,NA,NA,NA,5,#741CD8,#D8271C,10,0,1,40,0,677.5999999940395,39,0,415.5,0,0,experiment,NA,NA,0,0.9,0.1,0,1,314,7,NA
fcp-trial,350,1147112,0.0-325.0-0.0,voc_e2,12002,"[{""event"":""fullscreenenter"",""trial"":1,""time"":1460}]",NA,NA,NA,NA,NA,0,#D8271C,#741CD8,0,10,0,38,1,853.2999999970198,37,1,626.5,0,0,experiment,NA,NA,0,0.1,0.9,1,0,315,7,NA
audio-instructions,351,1153673,0.0-326.0,voc_e2,12002,"[{""event"":""fullscreenenter"",""trial"":1,""time"":1460}]",NA,910,static/audio/finished.wav,NA,0,NA,NA,NA,NA,NA,NA,NA,NA,NA,NA,NA,NA,NA,NA,NA,NA,NA,NA,NA,NA,NA,NA,NA,NA,NA
audio-instructions,352,1165346,0.0-327.0-0.0,voc_e2,12002,"[{""event"":""fullscreenenter"",""trial"":1,""time"":1460}]",NA,832.9000000059605,static/audio/explicit1.wav,NA,0,NA,NA,NA,NA,NA,NA,NA,NA,NA,NA,NA,NA,NA,NA,NA,NA,NA,NA,NA,NA,NA,NA,NA,NA,NA
audio-instructions,353,1174166,0.0-327.0-1.0,voc_e2,12002,"[{""event"":""fullscreenenter"",""trial"":1,""time"":1460}]",NA,1223.2999999970198,static/audio/explicit2.wav,NA,0,NA,NA,NA,NA,NA,NA,NA,NA,NA,NA,NA,NA,NA,NA,NA,NA,NA,NA,NA,NA,NA,NA,NA,NA,NA
image-slider-response,354,1180281,0.0-328.0,voc_e2,12002,"[{""event"":""fullscreenenter"",""trial"":1,""time"":1460}]",NA,6112.600000008941,static/img/machines/machine5.png,NA,NA,NA,NA,NA,NA,NA,NA,NA,NA,NA,NA,NA,NA,NA,NA,explicit,NA,NA,NA,NA,NA,NA,NA,NA,NA,7
image-slider-response,355,1183902,0.0-329.0,voc_e2,12002,"[{""event"":""fullscreenenter"",""trial"":1,""time"":1460}]",NA,3619,static/img/machines/machine3.png,NA,NA,NA,NA,NA,NA,NA,NA,NA,NA,NA,NA,NA,NA,NA,NA,explicit,NA,NA,NA,NA,NA,NA,NA,NA,NA,7
image-slider-response,356,1187289,0.0-330.0,voc_e2,12002,"[{""event"":""fullscreenenter"",""trial"":1,""time"":1460}]",NA,3384.9000000059605,static/img/machines/machine2.png,NA,NA,NA,NA,NA,NA,NA,NA,NA,NA,NA,NA,NA,NA,NA,NA,explicit,NA,NA,NA,NA,NA,NA,NA,NA,NA,8
image-slider-response,357,1189987,0.0-331.0,voc_e2,12002,"[{""event"":""fullscreenenter"",""trial"":1,""time"":1460}]",NA,2695.29999999702,static/img/machines/machine4.png,NA,NA,NA,NA,NA,NA,NA,NA,NA,NA,NA,NA,NA,NA,NA,NA,explicit,NA,NA,NA,NA,NA,NA,NA,NA,NA,9
image-slider-response,358,1192756,0.0-332.0,voc_e2,12002,"[{""event"":""fullscreenenter"",""trial"":1,""time"":1460}]",NA,2766.79999999702,static/img/machines/machine6.png,NA,NA,NA,NA,NA,NA,NA,NA,NA,NA,NA,NA,NA,NA,NA,NA,explicit,NA,NA,NA,NA,NA,NA,NA,NA,NA,7
image-slider-response,359,1195875,0.0-333.0,voc_e2,12002,"[{""event"":""fullscreenenter"",""trial"":1,""time"":1460}]",NA,3116.29999999702,static/img/machines/machine1.png,NA,NA,NA,NA,NA,NA,NA,NA,NA,NA,NA,NA,NA,NA,NA,NA,explicit,NA,NA,NA,NA,NA,NA,NA,NA,NA,8
