trial_type,trial_index,time_elapsed,internal_node_id,task_version,subject_id,interactions,success,rt,stimulus,key_press,button_pressed,offer,arcade_color_L,arcade_color_R,arcade_outcome_L,arcade_outcome_R,correct,stage_1_key,stage_1_choice,stage_1_rt,stage_2_key,stage_2_choice,stage_2_rt,stage_3_outcome,accuracy,phase,responses,num_errors,context,reward_prob_L,reward_prob_R,arcade_id_L,arcade_id_R,trial,block,response
pavlovia,0,6,0.0-0.0,voc_e2,11945,[],NA,NA,NA,NA,NA,NA,NA,NA,NA,NA,NA,NA,NA,NA,NA,NA,NA,NA,NA,NA,NA,NA,NA,NA,NA,NA,NA,NA,NA,NA
fullscreen,1,4705,0.0-1.0,voc_e2,11945,"[{""event"":""fullscreenenter"",""trial"":1,""time"":3724}]",TRUE,NA,NA,NA,NA,NA,NA,NA,NA,NA,NA,NA,NA,NA,NA,NA,NA,NA,NA,NA,NA,NA,NA,NA,NA,NA,NA,NA,NA,NA
audio-keyboard-response,2,9537,0.0-2.0,voc_e2,11945,"[{""event"":""fullscreenenter"",""trial"":1,""time"":3724}]",NA,4520,static/audio/beep_loop.wav,174,NA,NA,NA,NA,NA,NA,NA,NA,NA,NA,NA,NA,NA,NA,NA,NA,NA,NA,NA,NA,NA,NA,NA,NA,NA,NA
audio-test,3,11997,0.0-3.0,voc_e2,11945,"[{""event"":""fullscreenenter"",""trial"":1,""time"":3724}]",NA,NA,static/audio/turtle.wav,NA,3,NA,NA,NA,NA,NA,NA,NA,NA,NA,NA,NA,NA,NA,NA,NA,NA,NA,NA,NA,NA,NA,NA,NA,NA,NA
audio-test,4,14585,0.0-4.0,voc_e2,11945,"[{""event"":""fullscreenenter"",""trial"":1,""time"":3724}]",NA,NA,static/audio/shark.wav,NA,2,NA,NA,NA,NA,NA,NA,NA,NA,NA,NA,NA,NA,NA,NA,NA,NA,NA,NA,NA,NA,NA,NA,NA,NA,NA
audio-instructions,5,22405,0.0-5.0-0.0,voc_e2,11945,"[{""event"":""fullscreenenter"",""trial"":1,""time"":3724}]",NA,2038.7999999523165,static/audio/instructions1.wav,NA,0,NA,NA,NA,NA,NA,NA,NA,NA,NA,NA,NA,NA,NA,NA,NA,NA,NA,NA,NA,NA,NA,NA,NA,NA,NA
audio-instructions,6,30748,0.0-5.0-1.0,voc_e2,11945,"[{""event"":""fullscreenenter"",""trial"":1,""time"":3724}]",NA,1600.4000000953674,static/audio/instructions2.wav,NA,0,NA,NA,NA,NA,NA,NA,NA,NA,NA,NA,NA,NA,NA,NA,NA,NA,NA,NA,NA,NA,NA,NA,NA,NA,NA
audio-instructions,7,39573,0.0-5.0-2.0,voc_e2,11945,"[{""event"":""fullscreenenter"",""trial"":1,""time"":3724}]",NA,3015,static/audio/instructions3.wav,NA,0,NA,NA,NA,NA,NA,NA,NA,NA,NA,NA,NA,NA,NA,NA,NA,NA,NA,NA,NA,NA,NA,NA,NA,NA,NA
audio-instructions,8,55426,0.0-5.0-3.0,voc_e2,11945,"[{""event"":""fullscreenenter"",""trial"":1,""time"":3724}]",NA,2628.2999999523163,static/audio/instructions4.wav,NA,0,NA,NA,NA,NA,NA,NA,NA,NA,NA,NA,NA,NA,NA,NA,NA,NA,NA,NA,NA,NA,NA,NA,NA,NA,NA
audio-instructions,9,65664,0.0-5.0-4.0,voc_e2,11945,"[{""event"":""fullscreenenter"",""trial"":1,""time"":3724}]",NA,846.4000000953674,static/audio/instructions5.wav,NA,0,NA,NA,NA,NA,NA,NA,NA,NA,NA,NA,NA,NA,NA,NA,NA,NA,NA,NA,NA,NA,NA,NA,NA,NA,NA
fcp-practice,10,69068,0.0-5.0-5.0-0.0,voc_e2,11945,"[{""event"":""fullscreenenter"",""trial"":1,""time"":3724}]",NA,NA,NA,NA,NA,NA,#EDC948,#46d3c8,10,0,1,null,null,null,37,1,1893.5999999046326,10,1,practice,NA,NA,NA,NA,NA,NA,NA,NA,NA,NA
fcp-practice,11,71316,0.0-5.0-5.0-1.0,voc_e2,11945,"[{""event"":""fullscreenenter"",""trial"":1,""time"":3724}]",NA,NA,NA,NA,NA,NA,#EDC948,#46d3c8,10,0,1,null,null,null,37,1,732.4000000953674,10,1,practice,NA,NA,NA,NA,NA,NA,NA,NA,NA,NA
fcp-practice,12,73397,0.0-5.0-5.0-2.0,voc_e2,11945,"[{""event"":""fullscreenenter"",""trial"":1,""time"":3724}]",NA,NA,NA,NA,NA,NA,#EDC948,#46d3c8,0,10,1,null,null,null,37,1,568.5,0,1,practice,NA,NA,NA,NA,NA,NA,NA,NA,NA,NA
fcp-practice,13,75495,0.0-5.0-5.0-3.0,voc_e2,11945,"[{""event"":""fullscreenenter"",""trial"":1,""time"":3724}]",NA,NA,NA,NA,NA,NA,#EDC948,#46d3c8,10,0,1,null,null,null,37,1,589.6000001430511,10,1,practice,NA,NA,NA,NA,NA,NA,NA,NA,NA,NA
fcp-practice,14,77775,0.0-5.0-5.0-4.0,voc_e2,11945,"[{""event"":""fullscreenenter"",""trial"":1,""time"":3724}]",NA,NA,NA,NA,NA,NA,#EDC948,#46d3c8,10,0,1,null,null,null,37,1,765.5,10,1,practice,NA,NA,NA,NA,NA,NA,NA,NA,NA,NA
audio-instructions,15,98025,0.0-5.0-6.0,voc_e2,11945,"[{""event"":""fullscreenenter"",""trial"":1,""time"":3724}]",NA,2246.7999999523163,static/audio/instructions6.wav,NA,0,NA,NA,NA,NA,NA,NA,NA,NA,NA,NA,NA,NA,NA,NA,NA,NA,NA,NA,NA,NA,NA,NA,NA,NA,NA
audio-instructions,16,118801,0.0-5.0-7.0,voc_e2,11945,"[{""event"":""fullscreenenter"",""trial"":1,""time"":3724}]",NA,1582.4000000953674,static/audio/instructions7.wav,NA,0,NA,NA,NA,NA,NA,NA,NA,NA,NA,NA,NA,NA,NA,NA,NA,NA,NA,NA,NA,NA,NA,NA,NA,NA,NA
audio-instructions,17,131616,0.0-5.0-8.0,voc_e2,11945,"[{""event"":""fullscreenenter"",""trial"":1,""time"":3724}]",NA,3336.899999856949,static/audio/instructions8.wav,NA,0,NA,NA,NA,NA,NA,NA,NA,NA,NA,NA,NA,NA,NA,NA,NA,NA,NA,NA,NA,NA,NA,NA,NA,NA,NA
fcp-comprehension,18,165621,0.0-5.0-9.0,voc_e2,11945,"[{""event"":""fullscreenenter"",""trial"":1,""time"":3724}]",NA,34002.10000014305,NA,NA,NA,NA,NA,NA,NA,NA,NA,NA,NA,NA,NA,NA,NA,NA,NA,NA,"true,true",0,NA,NA,NA,NA,NA,NA,NA,NA
audio-instructions,19,174024,0.0-6.0-0.0,voc_e2,11945,"[{""event"":""fullscreenenter"",""trial"":1,""time"":3724}]",NA,2668.2000000476837,static/audio/instructions9.wav,NA,0,NA,NA,NA,NA,NA,NA,NA,NA,NA,NA,NA,NA,NA,NA,NA,NA,NA,NA,NA,NA,NA,NA,NA,NA,NA
audio-instructions,20,188746,0.0-6.0-1.0,voc_e2,11945,"[{""event"":""fullscreenenter"",""trial"":1,""time"":3724}]",NA,2610.5,static/audio/instructions10.wav,NA,0,NA,NA,NA,NA,NA,NA,NA,NA,NA,NA,NA,NA,NA,NA,NA,NA,NA,NA,NA,NA,NA,NA,NA,NA,NA
fcp-trial,21,193758,0.0-6.0-2.0,voc_e2,11945,"[{""event"":""fullscreenenter"",""trial"":1,""time"":3724}]",NA,NA,NA,NA,NA,0,#EDC948,#46d3c8,10,10,1,38,1,2083.5999999046326,39,0,1405.9000000953674,10,0,practice,NA,NA,NA,NA,NA,NA,NA,NA,NA,NA
audio-instructions,22,206723,0.0-6.0-3.0,voc_e2,11945,"[{""event"":""fullscreenenter"",""trial"":1,""time"":3724}]",NA,1955.7999999523165,static/audio/instructions11.wav,NA,0,NA,NA,NA,NA,NA,NA,NA,NA,NA,NA,NA,NA,NA,NA,NA,NA,NA,NA,NA,NA,NA,NA,NA,NA,NA
fcp-trial,23,211654,0.0-6.0-4.0,voc_e2,11945,"[{""event"":""fullscreenenter"",""trial"":1,""time"":3724}]",NA,NA,NA,NA,NA,6,#EDC948,#46d3c8,10,10,1,40,0,1374.4000000953674,37,1,2038.3999998569489,10,1,practice,NA,NA,NA,NA,NA,NA,NA,NA,NA,NA
audio-instructions,24,232590,0.0-6.0-5.0,voc_e2,11945,"[{""event"":""fullscreenenter"",""trial"":1,""time"":3724}]",NA,2254,static/audio/instructions12.wav,NA,0,NA,NA,NA,NA,NA,NA,NA,NA,NA,NA,NA,NA,NA,NA,NA,NA,NA,NA,NA,NA,NA,NA,NA,NA,NA
audio-instructions,25,244631,0.0-6.0-6.0,voc_e2,11945,"[{""event"":""fullscreenenter"",""trial"":1,""time"":3724}]",NA,4443.900000095367,static/audio/instructions13.wav,NA,0,NA,NA,NA,NA,NA,NA,NA,NA,NA,NA,NA,NA,NA,NA,NA,NA,NA,NA,NA,NA,NA,NA,NA,NA,NA
audio-instructions,26,254158,0.0-6.0-7.0,voc_e2,11945,"[{""event"":""fullscreenenter"",""trial"":1,""time"":3724}]",NA,1082.7999999523165,static/audio/instructions14.wav,NA,0,NA,NA,NA,NA,NA,NA,NA,NA,NA,NA,NA,NA,NA,NA,NA,NA,NA,NA,NA,NA,NA,NA,NA,NA,NA
audio-instructions,27,262069,0.0-7.0-0.0,voc_e2,11945,"[{""event"":""fullscreenenter"",""trial"":1,""time"":3724}]",NA,993.2000000476836,static/audio/instructions15.wav,NA,0,NA,NA,NA,NA,NA,NA,NA,NA,NA,NA,NA,NA,NA,NA,NA,NA,NA,NA,NA,NA,NA,NA,NA,NA,NA
audio-instructions,28,270023,0.0-7.0-1.0,voc_e2,11945,"[{""event"":""fullscreenenter"",""trial"":1,""time"":3724}]",NA,1127.5999999046326,static/audio/instructions16.wav,NA,0,NA,NA,NA,NA,NA,NA,NA,NA,NA,NA,NA,NA,NA,NA,NA,NA,NA,NA,NA,NA,NA,NA,NA,NA,NA
audio-instructions,29,278580,0.0-7.0-2.0,voc_e2,11945,"[{""event"":""fullscreenenter"",""trial"":1,""time"":3724}]",NA,883.8999998569489,static/audio/instructions17.wav,NA,0,NA,NA,NA,NA,NA,NA,NA,NA,NA,NA,NA,NA,NA,NA,NA,NA,NA,NA,NA,NA,NA,NA,NA,NA,NA
audio-instructions,30,288629,0.0-7.0-3.0,voc_e2,11945,"[{""event"":""fullscreenenter"",""trial"":1,""time"":3724}]",NA,2283.699999809265,static/audio/instructions18.wav,NA,0,NA,NA,NA,NA,NA,NA,NA,NA,NA,NA,NA,NA,NA,NA,NA,NA,NA,NA,NA,NA,NA,NA,NA,NA,NA
audio-instructions,31,297943,0.0-7.0-4.0,voc_e2,11945,"[{""event"":""fullscreenenter"",""trial"":1,""time"":3724}]",NA,2578.400000095367,static/audio/instructions19.wav,NA,0,NA,NA,NA,NA,NA,NA,NA,NA,NA,NA,NA,NA,NA,NA,NA,NA,NA,NA,NA,NA,NA,NA,NA,NA,NA
fcp-comprehension,32,334727,0.0-7.0-5.0,voc_e2,11945,"[{""event"":""fullscreenenter"",""trial"":1,""time"":3724}]",NA,36782.89999985695,NA,NA,NA,NA,NA,NA,NA,NA,NA,NA,NA,NA,NA,NA,NA,NA,NA,NA,"false,false,false,true",0,NA,NA,NA,NA,NA,NA,NA,NA
audio-instructions,33,345531,0.0-8.0,voc_e2,11945,"[{""event"":""fullscreenenter"",""trial"":1,""time"":3724}]",NA,1425.5999999046326,static/audio/ready.wav,NA,0,NA,NA,NA,NA,NA,NA,NA,NA,NA,NA,NA,NA,NA,NA,NA,NA,NA,NA,NA,NA,NA,NA,NA,NA,NA
fcp-trial,34,351538,0.0-9.0-0.0,voc_e2,11945,"[{""event"":""fullscreenenter"",""trial"":1,""time"":3724}]",NA,NA,NA,NA,NA,3,#D89F1C,#3386FF,10,0,1,38,1,3437.7000000476837,37,1,1052.5999999046326,10,1,experiment,NA,NA,0,0.9,0.1,0,1,1,1,NA
fcp-trial,35,362528,0.0-10.0-0.0,voc_e2,11945,"[{""event"":""fullscreenenter"",""trial"":1,""time"":3724}]",NA,NA,NA,NA,NA,3,#D8271C,#741CD8,10,10,0,38,1,7438,39,0,2020.2999999523163,10,1,experiment,NA,NA,1,0.3,0.7,3,2,2,1,NA
fcp-trial,36,368357,0.0-11.0-0.0,voc_e2,11945,"[{""event"":""fullscreenenter"",""trial"":1,""time"":3724}]",NA,NA,NA,NA,NA,2,#741CD8,#D8271C,10,10,1,40,0,3304.5,37,1,1004.6999998092651,10,1,experiment,NA,NA,1,0.7,0.3,2,3,3,1,NA
fcp-trial,37,377131,0.0-12.0-0.0,voc_e2,11945,"[{""event"":""fullscreenenter"",""trial"":1,""time"":3724}]",NA,NA,NA,NA,NA,6,#FA92F8,#1CD855,10,0,0,40,0,6538.600000143051,37,1,728.5999999046326,10,0,experiment,NA,NA,2,0.5,0.5,5,4,4,1,NA
fcp-trial,38,383617,0.0-13.0-0.0,voc_e2,11945,"[{""event"":""fullscreenenter"",""trial"":1,""time"":3724}]",NA,NA,NA,NA,NA,1,#D89F1C,#3386FF,10,0,1,38,1,4084.7000000476837,39,0,891,0,0,experiment,NA,NA,0,0.9,0.1,0,1,5,1,NA
fcp-trial,39,390042,0.0-14.0-0.0,voc_e2,11945,"[{""event"":""fullscreenenter"",""trial"":1,""time"":3724}]",NA,NA,NA,NA,NA,6,#D8271C,#741CD8,0,0,0,40,0,4202.199999809265,37,1,716.7999999523163,0,0,experiment,NA,NA,1,0.3,0.7,3,2,6,1,NA
fcp-trial,40,396964,0.0-15.0-0.0,voc_e2,11945,"[{""event"":""fullscreenenter"",""trial"":1,""time"":3724}]",NA,NA,NA,NA,NA,2,#1CD855,#FA92F8,0,0,1,38,1,3594.5,39,0,1823.3999998569489,0,0,experiment,NA,NA,2,0.5,0.5,4,5,7,1,NA
fcp-trial,41,406563,0.0-16.0-0.0,voc_e2,11945,"[{""event"":""fullscreenenter"",""trial"":1,""time"":3724}]",NA,NA,NA,NA,NA,0,#D89F1C,#3386FF,0,0,1,38,1,3710.300000190735,39,0,4379.599999904633,0,0,experiment,NA,NA,0,0.9,0.1,0,1,8,1,NA
fcp-trial,42,413994,0.0-17.0-0.0,voc_e2,11945,"[{""event"":""fullscreenenter"",""trial"":1,""time"":3724}]",NA,NA,NA,NA,NA,3,#FA92F8,#1CD855,0,0,0,40,0,4429.5,39,0,1497.2999999523163,0,1,experiment,NA,NA,2,0.5,0.5,5,4,9,1,NA
fcp-trial,43,419593,0.0-18.0-0.0,voc_e2,11945,"[{""event"":""fullscreenenter"",""trial"":1,""time"":3724}]",NA,NA,NA,NA,NA,5,#3386FF,#D89F1C,0,10,0,38,1,3460.2999999523163,39,0,632.1999998092651,10,1,experiment,NA,NA,0,0.1,0.9,1,0,10,1,NA
fcp-trial,44,428735,0.0-19.0-0.0,voc_e2,11945,"[{""event"":""fullscreenenter"",""trial"":1,""time"":3724}]",NA,NA,NA,NA,NA,1,#741CD8,#D8271C,10,10,1,38,1,5109.200000047684,37,1,2527.9000000953674,10,1,experiment,NA,NA,1,0.7,0.3,2,3,11,1,NA
fcp-trial,45,432995,0.0-20.0-0.0,voc_e2,11945,"[{""event"":""fullscreenenter"",""trial"":1,""time"":3724}]",NA,NA,NA,NA,NA,4,#741CD8,#D8271C,10,0,1,40,0,2094.7000000476837,39,0,659.4000000953674,0,0,experiment,NA,NA,1,0.7,0.3,2,3,12,1,NA
fcp-trial,46,439419,0.0-21.0-0.0,voc_e2,11945,"[{""event"":""fullscreenenter"",""trial"":1,""time"":3724}]",NA,NA,NA,NA,NA,4,#FA92F8,#1CD855,10,0,0,38,1,4282.299999952316,37,1,634.5999999046326,10,0,experiment,NA,NA,2,0.5,0.5,5,4,13,1,NA
fcp-trial,47,443944,0.0-22.0-0.0,voc_e2,11945,"[{""event"":""fullscreenenter"",""trial"":1,""time"":3724}]",NA,NA,NA,NA,NA,5,#741CD8,#D8271C,10,10,1,38,1,2554.4000000953674,37,1,463.7999999523163,10,1,experiment,NA,NA,1,0.7,0.3,2,3,14,1,NA
fcp-trial,48,458948,0.0-23.0-0.0,voc_e2,11945,"[{""event"":""fullscreenenter"",""trial"":1,""time"":3724}]",NA,NA,NA,NA,NA,6,#D89F1C,#3386FF,10,0,1,null,null,null,null,null,null,NA,0,experiment,NA,NA,0,0.9,0.1,0,1,15,1,NA
fcp-trial,49,462278,0.0-24.0-0.0,voc_e2,11945,"[{""event"":""fullscreenenter"",""trial"":1,""time"":3724}]",NA,NA,NA,NA,NA,5,#1CD855,#FA92F8,0,0,1,40,0,1254.6000001430511,37,1,568.6999998092651,0,1,experiment,NA,NA,2,0.5,0.5,4,5,16,1,NA
fcp-trial,50,466237,0.0-25.0-0.0,voc_e2,11945,"[{""event"":""fullscreenenter"",""trial"":1,""time"":3724}]",NA,NA,NA,NA,NA,0,#741CD8,#D8271C,0,0,1,38,1,946.8999998569489,37,1,1505.7000000476837,0,1,experiment,NA,NA,1,0.7,0.3,2,3,17,1,NA
fcp-trial,51,472270,0.0-26.0-0.0,voc_e2,11945,"[{""event"":""fullscreenenter"",""trial"":1,""time"":3724}]",NA,NA,NA,NA,NA,0,#1CD855,#FA92F8,10,10,1,40,0,2787.600000143051,39,0,1740.4000000953674,10,0,experiment,NA,NA,2,0.5,0.5,4,5,18,1,NA
fcp-trial,52,476254,0.0-27.0-0.0,voc_e2,11945,"[{""event"":""fullscreenenter"",""trial"":1,""time"":3724}]",NA,NA,NA,NA,NA,1,#1CD855,#FA92F8,10,0,1,38,1,1201.5999999046326,37,1,1278.2000000476837,10,1,experiment,NA,NA,2,0.5,0.5,4,5,19,1,NA
fcp-trial,53,480332,0.0-28.0-0.0,voc_e2,11945,"[{""event"":""fullscreenenter"",""trial"":1,""time"":3724}]",NA,NA,NA,NA,NA,4,#3386FF,#D89F1C,0,10,0,38,1,1467.9000000953674,39,0,1104,10,1,experiment,NA,NA,0,0.1,0.9,1,0,20,1,NA
fcp-trial,54,485886,0.0-29.0-0.0,voc_e2,11945,"[{""event"":""fullscreenenter"",""trial"":1,""time"":3724}]",NA,NA,NA,NA,NA,2,#3386FF,#D89F1C,0,10,0,38,1,2113.0999999046326,39,0,1933.6000001430511,10,1,experiment,NA,NA,0,0.1,0.9,1,0,21,1,NA
fcp-trial,55,489789,0.0-30.0-0.0,voc_e2,11945,"[{""event"":""fullscreenenter"",""trial"":1,""time"":3724}]",NA,NA,NA,NA,NA,5,#741CD8,#D8271C,10,0,1,40,0,1569.5999999046326,37,1,827.8999998569489,10,1,experiment,NA,NA,1,0.7,0.3,2,3,22,1,NA
fcp-trial,56,494557,0.0-31.0-0.0,voc_e2,11945,"[{""event"":""fullscreenenter"",""trial"":1,""time"":3724}]",NA,NA,NA,NA,NA,6,#741CD8,#D8271C,10,0,1,40,0,1972.2000000476837,39,0,1291.0999999046326,0,0,experiment,NA,NA,1,0.7,0.3,2,3,23,1,NA
fcp-trial,57,498092,0.0-32.0-0.0,voc_e2,11945,"[{""event"":""fullscreenenter"",""trial"":1,""time"":3724}]",NA,NA,NA,NA,NA,4,#741CD8,#D8271C,10,0,1,40,0,983.6999998092651,39,0,1043.7000000476837,0,0,experiment,NA,NA,1,0.7,0.3,2,3,24,1,NA
fcp-trial,58,501031,0.0-33.0-0.0,voc_e2,11945,"[{""event"":""fullscreenenter"",""trial"":1,""time"":3724}]",NA,NA,NA,NA,NA,3,#3386FF,#D89F1C,0,10,0,38,1,901.0999999046326,37,1,527.2999999523163,0,0,experiment,NA,NA,0,0.1,0.9,1,0,25,1,NA
fcp-trial,59,505552,0.0-34.0-0.0,voc_e2,11945,"[{""event"":""fullscreenenter"",""trial"":1,""time"":3724}]",NA,NA,NA,NA,NA,0,#FA92F8,#1CD855,10,10,0,38,1,2275.2000000476837,37,1,742.0999999046326,10,0,experiment,NA,NA,2,0.5,0.5,5,4,26,1,NA
fcp-trial,60,510811,0.0-35.0-0.0,voc_e2,11945,"[{""event"":""fullscreenenter"",""trial"":1,""time"":3724}]",NA,NA,NA,NA,NA,5,#3386FF,#D89F1C,0,10,0,40,0,1661.6999998092651,39,0,2090.9000000953674,10,1,experiment,NA,NA,0,0.1,0.9,1,0,27,1,NA
fcp-trial,61,515549,0.0-36.0-0.0,voc_e2,11945,"[{""event"":""fullscreenenter"",""trial"":1,""time"":3724}]",NA,NA,NA,NA,NA,2,#D8271C,#741CD8,10,10,0,38,1,2140.5,39,0,1090.0999999046326,10,1,experiment,NA,NA,1,0.3,0.7,3,2,28,1,NA
fcp-trial,62,520657,0.0-37.0-0.0,voc_e2,11945,"[{""event"":""fullscreenenter"",""trial"":1,""time"":3724}]",NA,NA,NA,NA,NA,6,#FA92F8,#1CD855,0,10,0,38,1,2595.2999999523163,37,1,1008,0,0,experiment,NA,NA,2,0.5,0.5,5,4,29,1,NA
fcp-trial,63,525072,0.0-38.0-0.0,voc_e2,11945,"[{""event"":""fullscreenenter"",""trial"":1,""time"":3724}]",NA,NA,NA,NA,NA,0,#D8271C,#741CD8,10,0,0,38,1,1909.2999999523163,39,0,996.0999999046326,0,1,experiment,NA,NA,1,0.3,0.7,3,2,30,1,NA
fcp-trial,64,529018,0.0-39.0-0.0,voc_e2,11945,"[{""event"":""fullscreenenter"",""trial"":1,""time"":3724}]",NA,NA,NA,NA,NA,2,#1CD855,#FA92F8,10,10,1,38,1,1760.9000000953674,37,1,679.5,10,1,experiment,NA,NA,2,0.5,0.5,4,5,31,1,NA
fcp-trial,65,533048,0.0-40.0-0.0,voc_e2,11945,"[{""event"":""fullscreenenter"",""trial"":1,""time"":3724}]",NA,NA,NA,NA,NA,2,#3386FF,#D89F1C,0,10,0,38,1,1130,39,0,1393,10,1,experiment,NA,NA,0,0.1,0.9,1,0,32,1,NA
fcp-trial,66,536880,0.0-41.0-0.0,voc_e2,11945,"[{""event"":""fullscreenenter"",""trial"":1,""time"":3724}]",NA,NA,NA,NA,NA,3,#741CD8,#D8271C,10,10,1,40,0,1709.5,37,1,618,10,1,experiment,NA,NA,1,0.7,0.3,2,3,33,1,NA
fcp-trial,67,540451,0.0-42.0-0.0,voc_e2,11945,"[{""event"":""fullscreenenter"",""trial"":1,""time"":3724}]",NA,NA,NA,NA,NA,5,#FA92F8,#1CD855,0,0,0,38,1,1359.0999999046326,37,1,708.4000000953674,0,0,experiment,NA,NA,2,0.5,0.5,5,4,34,1,NA
fcp-trial,68,545219,0.0-43.0-0.0,voc_e2,11945,"[{""event"":""fullscreenenter"",""trial"":1,""time"":3724}]",NA,NA,NA,NA,NA,1,#3386FF,#D89F1C,0,10,0,38,1,2355.2999999523163,39,0,904.7999999523163,10,1,experiment,NA,NA,0,0.1,0.9,1,0,35,1,NA
fcp-trial,69,549029,0.0-44.0-0.0,voc_e2,11945,"[{""event"":""fullscreenenter"",""trial"":1,""time"":3724}]",NA,NA,NA,NA,NA,3,#1CD855,#FA92F8,0,10,1,38,1,1709.5,39,0,592.2000000476837,10,0,experiment,NA,NA,2,0.5,0.5,4,5,36,1,NA
fcp-trial,70,554520,0.0-45.0-0.0,voc_e2,11945,"[{""event"":""fullscreenenter"",""trial"":1,""time"":3724}]",NA,NA,NA,NA,NA,6,#3386FF,#D89F1C,0,10,0,38,1,1922.9000000953674,39,0,2063.800000190735,10,1,experiment,NA,NA,0,0.1,0.9,1,0,37,1,NA
fcp-trial,71,559396,0.0-46.0-0.0,voc_e2,11945,"[{""event"":""fullscreenenter"",""trial"":1,""time"":3724}]",NA,NA,NA,NA,NA,1,#741CD8,#D8271C,10,0,1,38,1,2326.699999809265,37,1,1042.9000000953674,10,1,experiment,NA,NA,1,0.7,0.3,2,3,38,1,NA
fcp-trial,72,563788,0.0-47.0-0.0,voc_e2,11945,"[{""event"":""fullscreenenter"",""trial"":1,""time"":3724}]",NA,NA,NA,NA,NA,1,#1CD855,#FA92F8,10,10,1,40,0,1544.5999999046326,39,0,1340.7999999523163,10,0,experiment,NA,NA,2,0.5,0.5,4,5,39,1,NA
fcp-trial,73,567851,0.0-48.0-0.0,voc_e2,11945,"[{""event"":""fullscreenenter"",""trial"":1,""time"":3724}]",NA,NA,NA,NA,NA,0,#3386FF,#D89F1C,0,10,0,38,1,1260.5,37,1,1296.0999999046326,0,0,experiment,NA,NA,0,0.1,0.9,1,0,40,1,NA
fcp-trial,74,572489,0.0-49.0-0.0,voc_e2,11945,"[{""event"":""fullscreenenter"",""trial"":1,""time"":3724}]",NA,NA,NA,NA,NA,4,#D89F1C,#3386FF,10,0,1,40,0,2193.0999999046326,37,1,940.6000001430511,10,1,experiment,NA,NA,0,0.9,0.1,0,1,41,1,NA
fcp-trial,75,576989,0.0-50.0-0.0,voc_e2,11945,"[{""event"":""fullscreenenter"",""trial"":1,""time"":3724}]",NA,NA,NA,NA,NA,4,#1CD855,#FA92F8,10,0,1,40,0,2095.4000000953674,39,0,897.4000000953674,0,0,experiment,NA,NA,2,0.5,0.5,4,5,42,1,NA
fcp-trial,76,581569,0.0-51.0-0.0,voc_e2,11945,"[{""event"":""fullscreenenter"",""trial"":1,""time"":3724}]",NA,NA,NA,NA,NA,6,#FA92F8,#1CD855,0,10,0,38,1,1630.6999998092651,37,1,1440.6000001430511,0,0,experiment,NA,NA,2,0.5,0.5,5,4,43,1,NA
fcp-trial,77,586294,0.0-52.0-0.0,voc_e2,11945,"[{""event"":""fullscreenenter"",""trial"":1,""time"":3724}]",NA,NA,NA,NA,NA,0,#FA92F8,#1CD855,0,10,0,38,1,1587.9000000953674,37,1,1627.5999999046326,0,0,experiment,NA,NA,2,0.5,0.5,5,4,44,1,NA
fcp-trial,78,591792,0.0-53.0-0.0,voc_e2,11945,"[{""event"":""fullscreenenter"",""trial"":1,""time"":3724}]",NA,NA,NA,NA,NA,2,#3386FF,#D89F1C,0,10,0,38,1,2289.0999999046326,39,0,1704.5,10,1,experiment,NA,NA,0,0.1,0.9,1,0,45,1,NA
fcp-trial,79,598188,0.0-54.0-0.0,voc_e2,11945,"[{""event"":""fullscreenenter"",""trial"":1,""time"":3724}]",NA,NA,NA,NA,NA,0,#D89F1C,#3386FF,10,10,1,38,1,3607.4000000953674,39,0,1275,10,0,experiment,NA,NA,0,0.9,0.1,0,1,46,2,NA
fcp-trial,80,603158,0.0-55.0-0.0,voc_e2,11945,"[{""event"":""fullscreenenter"",""trial"":1,""time"":3724}]",NA,NA,NA,NA,NA,1,#741CD8,#D8271C,10,10,1,38,1,2173.800000190735,37,1,1289.6000001430511,10,1,experiment,NA,NA,1,0.7,0.3,2,3,47,2,NA
fcp-trial,81,609602,0.0-56.0-0.0,voc_e2,11945,"[{""event"":""fullscreenenter"",""trial"":1,""time"":3724}]",NA,NA,NA,NA,NA,4,#3386FF,#D89F1C,0,10,0,38,1,3291.7999999523163,39,0,1645.4000000953674,10,1,experiment,NA,NA,0,0.1,0.9,1,0,48,2,NA
fcp-trial,82,615647,0.0-57.0-0.0,voc_e2,11945,"[{""event"":""fullscreenenter"",""trial"":1,""time"":3724}]",NA,NA,NA,NA,NA,1,#FA92F8,#1CD855,10,10,0,38,1,2064.699999809265,37,1,2475.9000000953674,10,0,experiment,NA,NA,2,0.5,0.5,5,4,49,2,NA
fcp-trial,83,620243,0.0-58.0-0.0,voc_e2,11945,"[{""event"":""fullscreenenter"",""trial"":1,""time"":3724}]",NA,NA,NA,NA,NA,6,#D89F1C,#3386FF,10,0,1,40,0,1966.8999998569489,39,0,1124.7000000476837,0,0,experiment,NA,NA,0,0.9,0.1,0,1,50,2,NA
fcp-trial,84,623790,0.0-59.0-0.0,voc_e2,11945,"[{""event"":""fullscreenenter"",""trial"":1,""time"":3724}]",NA,NA,NA,NA,NA,6,#741CD8,#D8271C,0,10,1,38,1,1543.4000000953674,37,1,498.2999999523163,0,1,experiment,NA,NA,1,0.7,0.3,2,3,51,2,NA
fcp-trial,85,628700,0.0-60.0-0.0,voc_e2,11945,"[{""event"":""fullscreenenter"",""trial"":1,""time"":3724}]",NA,NA,NA,NA,NA,4,#1CD855,#FA92F8,0,10,1,40,0,2452.899999856949,39,0,951.5,10,0,experiment,NA,NA,2,0.5,0.5,4,5,52,2,NA
fcp-trial,86,632468,0.0-61.0-0.0,voc_e2,11945,"[{""event"":""fullscreenenter"",""trial"":1,""time"":3724}]",NA,NA,NA,NA,NA,0,#741CD8,#D8271C,10,0,1,38,1,1729.5999999046326,37,1,531.9000000953674,10,1,experiment,NA,NA,1,0.7,0.3,2,3,53,2,NA
fcp-trial,87,637718,0.0-62.0-0.0,voc_e2,11945,"[{""event"":""fullscreenenter"",""trial"":1,""time"":3724}]",NA,NA,NA,NA,NA,1,#D89F1C,#3386FF,10,0,1,38,1,2927.7999999523163,37,1,815.7999999523163,10,1,experiment,NA,NA,0,0.9,0.1,0,1,54,2,NA
fcp-trial,88,643862,0.0-63.0-0.0,voc_e2,11945,"[{""event"":""fullscreenenter"",""trial"":1,""time"":3724}]",NA,NA,NA,NA,NA,5,#FA92F8,#1CD855,0,0,0,40,0,2875,39,0,1762.3000001907349,0,1,experiment,NA,NA,2,0.5,0.5,5,4,55,2,NA
fcp-trial,89,648101,0.0-64.0-0.0,voc_e2,11945,"[{""event"":""fullscreenenter"",""trial"":1,""time"":3724}]",NA,NA,NA,NA,NA,4,#741CD8,#D8271C,0,0,1,38,1,2208.2999999523163,37,1,521.1999998092651,0,1,experiment,NA,NA,1,0.7,0.3,2,3,56,2,NA
fcp-trial,90,651741,0.0-65.0-0.0,voc_e2,11945,"[{""event"":""fullscreenenter"",""trial"":1,""time"":3724}]",NA,NA,NA,NA,NA,3,#D8271C,#741CD8,0,10,0,38,1,1608.2000000476837,39,0,526.0999999046326,10,1,experiment,NA,NA,1,0.3,0.7,3,2,57,2,NA
fcp-trial,91,655983,0.0-66.0-0.0,voc_e2,11945,"[{""event"":""fullscreenenter"",""trial"":1,""time"":3724}]",NA,NA,NA,NA,NA,2,#D8271C,#741CD8,0,10,0,38,1,2312.4000000953674,39,0,420.89999985694885,10,1,experiment,NA,NA,1,0.3,0.7,3,2,58,2,NA
fcp-trial,92,659664,0.0-67.0-0.0,voc_e2,11945,"[{""event"":""fullscreenenter"",""trial"":1,""time"":3724}]",NA,NA,NA,NA,NA,3,#D89F1C,#3386FF,10,0,1,38,1,1603.4000000953674,37,1,572.2000000476837,10,1,experiment,NA,NA,0,0.9,0.1,0,1,59,2,NA
fcp-trial,93,663869,0.0-68.0-0.0,voc_e2,11945,"[{""event"":""fullscreenenter"",""trial"":1,""time"":3724}]",NA,NA,NA,NA,NA,2,#FA92F8,#1CD855,0,10,0,38,1,2016.3000001907349,37,1,683.9000000953674,0,0,experiment,NA,NA,2,0.5,0.5,5,4,60,2,NA
fcp-trial,94,669638,0.0-69.0-0.0,voc_e2,11945,"[{""event"":""fullscreenenter"",""trial"":1,""time"":3724}]",NA,NA,NA,NA,NA,5,#D8271C,#741CD8,0,10,0,40,0,3357.5,39,0,905.7999999523163,10,1,experiment,NA,NA,1,0.3,0.7,3,2,61,2,NA
fcp-trial,95,676195,0.0-70.0-0.0,voc_e2,11945,"[{""event"":""fullscreenenter"",""trial"":1,""time"":3724}]",NA,NA,NA,NA,NA,5,#D89F1C,#3386FF,10,0,1,38,1,4239.600000143051,39,0,810.5999999046326,0,0,experiment,NA,NA,0,0.9,0.1,0,1,62,2,NA
fcp-trial,96,681302,0.0-71.0-0.0,voc_e2,11945,"[{""event"":""fullscreenenter"",""trial"":1,""time"":3724}]",NA,NA,NA,NA,NA,3,#1CD855,#FA92F8,0,0,1,40,0,2780.7999999523163,39,0,819.5999999046326,0,0,experiment,NA,NA,2,0.5,0.5,4,5,63,2,NA
fcp-trial,97,686699,0.0-72.0-0.0,voc_e2,11945,"[{""event"":""fullscreenenter"",""trial"":1,""time"":3724}]",NA,NA,NA,NA,NA,4,#1CD855,#FA92F8,10,10,1,40,0,2706.5,37,1,1182.6000001430511,10,1,experiment,NA,NA,2,0.5,0.5,4,5,64,2,NA
fcp-trial,98,693024,0.0-73.0-0.0,voc_e2,11945,"[{""event"":""fullscreenenter"",""trial"":1,""time"":3724}]",NA,NA,NA,NA,NA,5,#FA92F8,#1CD855,10,0,0,38,1,4003.7999999523163,37,1,815.9000000953674,10,0,experiment,NA,NA,2,0.5,0.5,5,4,65,2,NA
fcp-trial,99,698118,0.0-74.0-0.0,voc_e2,11945,"[{""event"":""fullscreenenter"",""trial"":1,""time"":3724}]",NA,NA,NA,NA,NA,4,#D89F1C,#3386FF,10,0,1,40,0,1615.9000000953674,39,0,1972.3999998569489,0,0,experiment,NA,NA,0,0.9,0.1,0,1,66,2,NA
fcp-trial,100,703339,0.0-75.0-0.0,voc_e2,11945,"[{""event"":""fullscreenenter"",""trial"":1,""time"":3724}]",NA,NA,NA,NA,NA,1,#741CD8,#D8271C,10,0,1,38,1,3101.5999999046326,37,1,610.2999999523163,10,1,experiment,NA,NA,1,0.7,0.3,2,3,67,2,NA
fcp-trial,101,710310,0.0-76.0-0.0,voc_e2,11945,"[{""event"":""fullscreenenter"",""trial"":1,""time"":3724}]",NA,NA,NA,NA,NA,3,#1CD855,#FA92F8,10,10,1,38,1,3308.399999856949,39,0,2154.2000000476837,10,0,experiment,NA,NA,2,0.5,0.5,4,5,68,2,NA
fcp-trial,102,714370,0.0-77.0-0.0,voc_e2,11945,"[{""event"":""fullscreenenter"",""trial"":1,""time"":3724}]",NA,NA,NA,NA,NA,5,#D89F1C,#3386FF,10,0,1,40,0,1272.6000001430511,39,0,1280.9000000953674,0,0,experiment,NA,NA,0,0.9,0.1,0,1,69,2,NA
fcp-trial,103,719806,0.0-78.0-0.0,voc_e2,11945,"[{""event"":""fullscreenenter"",""trial"":1,""time"":3724}]",NA,NA,NA,NA,NA,1,#D89F1C,#3386FF,10,0,1,40,0,2197.4000000953674,37,1,1729.7000000476837,10,1,experiment,NA,NA,0,0.9,0.1,0,1,70,2,NA
fcp-trial,104,726298,0.0-79.0-0.0,voc_e2,11945,"[{""event"":""fullscreenenter"",""trial"":1,""time"":3724}]",NA,NA,NA,NA,NA,6,#D89F1C,#3386FF,0,0,1,40,0,4099.899999856949,37,1,887.3999998569489,0,1,experiment,NA,NA,0,0.9,0.1,0,1,71,2,NA
fcp-trial,105,730563,0.0-80.0-0.0,voc_e2,11945,"[{""event"":""fullscreenenter"",""trial"":1,""time"":3724}]",NA,NA,NA,NA,NA,2,#741CD8,#D8271C,10,10,1,38,1,2251.2999999523163,37,1,508.39999985694885,10,1,experiment,NA,NA,1,0.7,0.3,2,3,72,2,NA
fcp-trial,106,735562,0.0-81.0-0.0,voc_e2,11945,"[{""event"":""fullscreenenter"",""trial"":1,""time"":3724}]",NA,NA,NA,NA,NA,0,#FA92F8,#1CD855,10,10,0,38,1,2479.2999999523163,37,1,1010,10,0,experiment,NA,NA,2,0.5,0.5,5,4,73,2,NA
fcp-trial,107,740792,0.0-82.0-0.0,voc_e2,11945,"[{""event"":""fullscreenenter"",""trial"":1,""time"":3724}]",NA,NA,NA,NA,NA,3,#741CD8,#D8271C,0,10,1,38,1,2755.0999999046326,37,1,968.7000000476837,0,1,experiment,NA,NA,1,0.7,0.3,2,3,74,2,NA
fcp-trial,108,745834,0.0-83.0-0.0,voc_e2,11945,"[{""event"":""fullscreenenter"",""trial"":1,""time"":3724}]",NA,NA,NA,NA,NA,2,#D89F1C,#3386FF,10,0,1,40,0,2365.600000143051,39,0,1172,0,0,experiment,NA,NA,0,0.9,0.1,0,1,75,2,NA
fcp-trial,109,751228,0.0-84.0-0.0,voc_e2,11945,"[{""event"":""fullscreenenter"",""trial"":1,""time"":3724}]",NA,NA,NA,NA,NA,0,#D8271C,#741CD8,0,10,0,38,1,2677.2999999523163,39,0,1211.5,10,1,experiment,NA,NA,1,0.3,0.7,3,2,76,2,NA
fcp-trial,110,755961,0.0-85.0-0.0,voc_e2,11945,"[{""event"":""fullscreenenter"",""trial"":1,""time"":3724}]",NA,NA,NA,NA,NA,2,#1CD855,#FA92F8,0,0,1,38,1,2183.2000000476837,39,0,1042.9000000953674,0,0,experiment,NA,NA,2,0.5,0.5,4,5,77,2,NA
fcp-trial,111,761508,0.0-86.0-0.0,voc_e2,11945,"[{""event"":""fullscreenenter"",""trial"":1,""time"":3724}]",NA,NA,NA,NA,NA,4,#D8271C,#741CD8,0,0,0,38,1,3358.100000143051,39,0,682.6000001430511,0,1,experiment,NA,NA,1,0.3,0.7,3,2,78,2,NA
fcp-trial,112,765521,0.0-87.0-0.0,voc_e2,11945,"[{""event"":""fullscreenenter"",""trial"":1,""time"":3724}]",NA,NA,NA,NA,NA,5,#741CD8,#D8271C,0,10,1,40,0,1534,39,0,974.2999999523163,10,0,experiment,NA,NA,1,0.7,0.3,2,3,79,2,NA
fcp-trial,113,770018,0.0-88.0-0.0,voc_e2,11945,"[{""event"":""fullscreenenter"",""trial"":1,""time"":3724}]",NA,NA,NA,NA,NA,3,#3386FF,#D89F1C,0,10,0,38,1,1804.9000000953674,39,0,1185.5999999046326,10,1,experiment,NA,NA,0,0.1,0.9,1,0,80,2,NA
fcp-trial,114,775392,0.0-89.0-0.0,voc_e2,11945,"[{""event"":""fullscreenenter"",""trial"":1,""time"":3724}]",NA,NA,NA,NA,NA,1,#FA92F8,#1CD855,0,0,0,38,1,3019.300000190735,37,1,850.6000001430511,0,0,experiment,NA,NA,2,0.5,0.5,5,4,81,2,NA
fcp-trial,115,780199,0.0-90.0-0.0,voc_e2,11945,"[{""event"":""fullscreenenter"",""trial"":1,""time"":3724}]",NA,NA,NA,NA,NA,0,#D89F1C,#3386FF,10,0,1,38,1,1667.1999998092651,37,1,1635,10,1,experiment,NA,NA,0,0.9,0.1,0,1,82,2,NA
fcp-trial,116,786782,0.0-91.0-0.0,voc_e2,11945,"[{""event"":""fullscreenenter"",""trial"":1,""time"":3724}]",NA,NA,NA,NA,NA,6,#1CD855,#FA92F8,10,0,1,38,1,3536.2999999523163,39,0,1542.7999999523163,0,0,experiment,NA,NA,2,0.5,0.5,4,5,83,2,NA
fcp-trial,117,790649,0.0-92.0-0.0,voc_e2,11945,"[{""event"":""fullscreenenter"",""trial"":1,""time"":3724}]",NA,NA,NA,NA,NA,6,#D8271C,#741CD8,10,10,0,40,0,1706.7000000476837,39,0,655.6000001430511,10,1,experiment,NA,NA,1,0.3,0.7,3,2,84,2,NA
fcp-trial,118,795299,0.0-93.0-0.0,voc_e2,11945,"[{""event"":""fullscreenenter"",""trial"":1,""time"":3724}]",NA,NA,NA,NA,NA,5,#741CD8,#D8271C,0,0,1,40,0,2174,39,0,970.2999999523163,0,0,experiment,NA,NA,1,0.7,0.3,2,3,85,2,NA
fcp-trial,119,799552,0.0-94.0-0.0,voc_e2,11945,"[{""event"":""fullscreenenter"",""trial"":1,""time"":3724}]",NA,NA,NA,NA,NA,6,#741CD8,#D8271C,10,0,1,40,0,2110.399999856949,37,1,633.0999999046326,10,1,experiment,NA,NA,1,0.7,0.3,2,3,86,2,NA
fcp-trial,120,803173,0.0-95.0-0.0,voc_e2,11945,"[{""event"":""fullscreenenter"",""trial"":1,""time"":3724}]",NA,NA,NA,NA,NA,1,#D8271C,#741CD8,0,10,0,38,1,1545.7000000476837,39,0,568.6999998092651,10,1,experiment,NA,NA,1,0.3,0.7,3,2,87,2,NA
fcp-trial,121,809353,0.0-96.0-0.0,voc_e2,11945,"[{""event"":""fullscreenenter"",""trial"":1,""time"":3724}]",NA,NA,NA,NA,NA,6,#1CD855,#FA92F8,0,10,1,38,1,2421,37,1,2253.9000000953674,0,1,experiment,NA,NA,2,0.5,0.5,4,5,88,2,NA
fcp-trial,122,813780,0.0-97.0-0.0,voc_e2,11945,"[{""event"":""fullscreenenter"",""trial"":1,""time"":3724}]",NA,NA,NA,NA,NA,4,#D89F1C,#3386FF,10,0,1,40,0,2232.2000000476837,37,1,689.4000000953674,10,1,experiment,NA,NA,0,0.9,0.1,0,1,89,2,NA
fcp-trial,123,817765,0.0-98.0-0.0,voc_e2,11945,"[{""event"":""fullscreenenter"",""trial"":1,""time"":3724}]",NA,NA,NA,NA,NA,5,#3386FF,#D89F1C,0,0,0,40,0,1748.8999998569489,39,0,730.2999999523163,0,1,experiment,NA,NA,0,0.1,0.9,1,0,90,2,NA
fcp-trial,124,822844,0.0-99.0-0.0,voc_e2,11945,"[{""event"":""fullscreenenter"",""trial"":1,""time"":3724}]",NA,NA,NA,NA,NA,3,#FA92F8,#1CD855,10,10,0,38,1,2283.4000000953674,37,1,1290.9000000953674,10,0,experiment,NA,NA,2,0.5,0.5,5,4,91,3,NA
fcp-trial,125,827132,0.0-100.0-0.0,voc_e2,11945,"[{""event"":""fullscreenenter"",""trial"":1,""time"":3724}]",NA,NA,NA,NA,NA,3,#D8271C,#741CD8,0,10,0,38,1,1988.6000001430511,39,0,793.8999998569489,10,1,experiment,NA,NA,1,0.3,0.7,3,2,92,3,NA
fcp-trial,126,830435,0.0-101.0-0.0,voc_e2,11945,"[{""event"":""fullscreenenter"",""trial"":1,""time"":3724}]",NA,NA,NA,NA,NA,0,#741CD8,#D8271C,0,10,1,38,1,1160.4000000953674,37,1,638,0,1,experiment,NA,NA,1,0.7,0.3,2,3,93,3,NA
fcp-trial,127,834735,0.0-102.0-0.0,voc_e2,11945,"[{""event"":""fullscreenenter"",""trial"":1,""time"":3724}]",NA,NA,NA,NA,NA,1,#FA92F8,#1CD855,0,10,0,38,1,1556.5,37,1,1238.5,0,0,experiment,NA,NA,2,0.5,0.5,5,4,94,3,NA
fcp-trial,128,839179,0.0-103.0-0.0,voc_e2,11945,"[{""event"":""fullscreenenter"",""trial"":1,""time"":3724}]",NA,NA,NA,NA,NA,1,#D89F1C,#3386FF,10,0,1,38,1,1196,37,1,1737.8000001907349,10,1,experiment,NA,NA,0,0.9,0.1,0,1,95,3,NA
fcp-trial,129,845792,0.0-104.0-0.0,voc_e2,11945,"[{""event"":""fullscreenenter"",""trial"":1,""time"":3724}]",NA,NA,NA,NA,NA,2,#3386FF,#D89F1C,0,10,0,38,1,3330.100000143051,39,0,1765.7999999523163,10,1,experiment,NA,NA,0,0.1,0.9,1,0,96,3,NA
fcp-trial,130,851825,0.0-105.0-0.0,voc_e2,11945,"[{""event"":""fullscreenenter"",""trial"":1,""time"":3724}]",NA,NA,NA,NA,NA,2,#FA92F8,#1CD855,0,0,0,38,1,2948,37,1,1577.2999999523163,0,0,experiment,NA,NA,2,0.5,0.5,5,4,97,3,NA
fcp-trial,131,854828,0.0-106.0-0.0,voc_e2,11945,"[{""event"":""fullscreenenter"",""trial"":1,""time"":3724}]",NA,NA,NA,NA,NA,4,#741CD8,#D8271C,10,0,1,38,1,893.2000000476837,37,1,603.2999999523163,10,1,experiment,NA,NA,1,0.7,0.3,2,3,98,3,NA
fcp-trial,132,858575,0.0-107.0-0.0,voc_e2,11945,"[{""event"":""fullscreenenter"",""trial"":1,""time"":3724}]",NA,NA,NA,NA,NA,6,#D89F1C,#3386FF,10,0,1,40,0,1364,39,0,874.7999999523163,0,0,experiment,NA,NA,0,0.9,0.1,0,1,99,3,NA
fcp-trial,133,863284,0.0-108.0-0.0,voc_e2,11945,"[{""event"":""fullscreenenter"",""trial"":1,""time"":3724}]",NA,NA,NA,NA,NA,4,#1CD855,#FA92F8,0,0,1,40,0,2282.600000143051,39,0,921.5,0,0,experiment,NA,NA,2,0.5,0.5,4,5,100,3,NA
fcp-trial,134,867081,0.0-109.0-0.0,voc_e2,11945,"[{""event"":""fullscreenenter"",""trial"":1,""time"":3724}]",NA,NA,NA,NA,NA,3,#3386FF,#D89F1C,10,0,0,38,1,1605.2000000476837,37,1,686.0999999046326,10,0,experiment,NA,NA,0,0.1,0.9,1,0,101,3,NA
fcp-trial,135,871098,0.0-110.0-0.0,voc_e2,11945,"[{""event"":""fullscreenenter"",""trial"":1,""time"":3724}]",NA,NA,NA,NA,NA,2,#D8271C,#741CD8,0,10,0,38,1,2007.7000000476837,39,0,503.09999990463257,10,1,experiment,NA,NA,1,0.3,0.7,3,2,102,3,NA
fcp-trial,136,874902,0.0-111.0-0.0,voc_e2,11945,"[{""event"":""fullscreenenter"",""trial"":1,""time"":3724}]",NA,NA,NA,NA,NA,5,#FA92F8,#1CD855,0,0,0,40,0,1598.1999998092651,37,1,698.0999999046326,0,0,experiment,NA,NA,2,0.5,0.5,5,4,103,3,NA
fcp-trial,137,879206,0.0-112.0-0.0,voc_e2,11945,"[{""event"":""fullscreenenter"",""trial"":1,""time"":3724}]",NA,NA,NA,NA,NA,0,#3386FF,#D89F1C,0,10,0,38,1,1028.5999999046326,37,1,1771.7999999523163,0,0,experiment,NA,NA,0,0.1,0.9,1,0,104,3,NA
fcp-trial,138,883305,0.0-113.0-0.0,voc_e2,11945,"[{""event"":""fullscreenenter"",""trial"":1,""time"":3724}]",NA,NA,NA,NA,NA,0,#1CD855,#FA92F8,10,0,1,38,1,1392,37,1,1201.7000000476837,10,1,experiment,NA,NA,2,0.5,0.5,4,5,105,3,NA
audio-instructions,139,928811,0.0-114.0,voc_e2,11945,"[{""event"":""fullscreenenter"",""trial"":1,""time"":3724}]",NA,40712.79999995232,static/audio/pause.wav,NA,0,NA,NA,NA,NA,NA,NA,NA,NA,NA,NA,NA,NA,NA,NA,NA,NA,NA,NA,NA,NA,NA,NA,NA,NA,NA
fcp-trial,140,934013,0.0-115.0-0.0,voc_e2,11945,"[{""event"":""fullscreenenter"",""trial"":1,""time"":3724}]",NA,NA,NA,NA,NA,1,#741CD8,#D8271C,0,0,1,38,1,2898,37,1,796.9000000953674,0,1,experiment,NA,NA,1,0.7,0.3,2,3,106,3,NA
fcp-trial,141,937710,0.0-116.0-0.0,voc_e2,11945,"[{""event"":""fullscreenenter"",""trial"":1,""time"":3724}]",NA,NA,NA,NA,NA,2,#741CD8,#D8271C,10,0,1,38,1,1635.9000000953674,37,1,553.8999998569489,10,1,experiment,NA,NA,1,0.7,0.3,2,3,107,3,NA
fcp-trial,142,941449,0.0-117.0-0.0,voc_e2,11945,"[{""event"":""fullscreenenter"",""trial"":1,""time"":3724}]",NA,NA,NA,NA,NA,2,#FA92F8,#1CD855,0,0,0,40,0,1732.2999999523163,39,0,495.7999999523163,0,1,experiment,NA,NA,2,0.5,0.5,5,4,108,3,NA
fcp-trial,143,944945,0.0-118.0-0.0,voc_e2,11945,"[{""event"":""fullscreenenter"",""trial"":1,""time"":3724}]",NA,NA,NA,NA,NA,2,#D89F1C,#3386FF,10,0,1,38,1,1292.4000000953674,39,0,696.3999998569489,0,0,experiment,NA,NA,0,0.9,0.1,0,1,109,3,NA
fcp-trial,144,949293,0.0-119.0-0.0,voc_e2,11945,"[{""event"":""fullscreenenter"",""trial"":1,""time"":3724}]",NA,NA,NA,NA,NA,3,#1CD855,#FA92F8,10,0,1,38,1,1400.6000001430511,39,0,1443.5,0,0,experiment,NA,NA,2,0.5,0.5,4,5,110,3,NA
fcp-trial,145,952596,0.0-120.0-0.0,voc_e2,11945,"[{""event"":""fullscreenenter"",""trial"":1,""time"":3724}]",NA,NA,NA,NA,NA,3,#D8271C,#741CD8,0,0,0,40,0,1229.8999998569489,37,1,567.2000000476837,0,0,experiment,NA,NA,1,0.3,0.7,3,2,111,3,NA
fcp-trial,146,956433,0.0-121.0-0.0,voc_e2,11945,"[{""event"":""fullscreenenter"",""trial"":1,""time"":3724}]",NA,NA,NA,NA,NA,0,#D89F1C,#3386FF,10,10,1,38,1,1555.7000000476837,37,1,773,10,1,experiment,NA,NA,0,0.9,0.1,0,1,112,3,NA
fcp-trial,147,960021,0.0-122.0-0.0,voc_e2,11945,"[{""event"":""fullscreenenter"",""trial"":1,""time"":3724}]",NA,NA,NA,NA,NA,6,#1CD855,#FA92F8,10,10,1,38,1,1327.2000000476837,39,0,756.7999999523163,10,0,experiment,NA,NA,2,0.5,0.5,4,5,113,3,NA
fcp-trial,148,964561,0.0-123.0-0.0,voc_e2,11945,"[{""event"":""fullscreenenter"",""trial"":1,""time"":3724}]",NA,NA,NA,NA,NA,6,#D8271C,#741CD8,0,10,0,40,0,2288.5999999046326,37,1,744.5999999046326,0,0,experiment,NA,NA,1,0.3,0.7,3,2,114,3,NA
fcp-trial,149,970707,0.0-124.0-0.0,voc_e2,11945,"[{""event"":""fullscreenenter"",""trial"":1,""time"":3724}]",NA,NA,NA,NA,NA,4,#3386FF,#D89F1C,0,10,0,38,1,3249.2999999523163,39,0,1388.5,10,1,experiment,NA,NA,0,0.1,0.9,1,0,115,3,NA
fcp-trial,150,975333,0.0-125.0-0.0,voc_e2,11945,"[{""event"":""fullscreenenter"",""trial"":1,""time"":3724}]",NA,NA,NA,NA,NA,0,#1CD855,#FA92F8,10,10,1,40,0,2270.2000000476837,37,1,849.5,10,1,experiment,NA,NA,2,0.5,0.5,4,5,116,3,NA
fcp-trial,151,981035,0.0-126.0-0.0,voc_e2,11945,"[{""event"":""fullscreenenter"",""trial"":1,""time"":3724}]",NA,NA,NA,NA,NA,4,#FA92F8,#1CD855,0,0,0,38,1,1900.1000001430511,37,1,2296.7000000476837,0,0,experiment,NA,NA,2,0.5,0.5,5,4,117,3,NA
fcp-trial,152,984485,0.0-127.0-0.0,voc_e2,11945,"[{""event"":""fullscreenenter"",""trial"":1,""time"":3724}]",NA,NA,NA,NA,NA,0,#D8271C,#741CD8,0,10,0,38,1,1481,39,0,461.59999990463257,10,1,experiment,NA,NA,1,0.3,0.7,3,2,118,3,NA
fcp-trial,153,990872,0.0-128.0-0.0,voc_e2,11945,"[{""event"":""fullscreenenter"",""trial"":1,""time"":3724}]",NA,NA,NA,NA,NA,1,#3386FF,#D89F1C,0,10,0,38,1,2989.5,39,0,1888.5,10,1,experiment,NA,NA,0,0.1,0.9,1,0,119,3,NA
fcp-trial,154,994537,0.0-129.0-0.0,voc_e2,11945,"[{""event"":""fullscreenenter"",""trial"":1,""time"":3724}]",NA,NA,NA,NA,NA,5,#1CD855,#FA92F8,10,10,1,40,0,1587.1000001430511,39,0,572.1000001430511,10,0,experiment,NA,NA,2,0.5,0.5,4,5,120,3,NA
fcp-trial,155,999935,0.0-130.0-0.0,voc_e2,11945,"[{""event"":""fullscreenenter"",""trial"":1,""time"":3724}]",NA,NA,NA,NA,NA,5,#741CD8,#D8271C,10,10,1,38,1,3281.9000000953674,37,1,608.5,10,1,experiment,NA,NA,1,0.7,0.3,2,3,121,3,NA
fcp-trial,156,1005032,0.0-131.0-0.0,voc_e2,11945,"[{""event"":""fullscreenenter"",""trial"":1,""time"":3724}]",NA,NA,NA,NA,NA,5,#D89F1C,#3386FF,10,0,1,40,0,2934.7999999523163,37,1,659.3999998569489,10,1,experiment,NA,NA,0,0.9,0.1,0,1,122,3,NA
fcp-trial,157,1008374,0.0-132.0-0.0,voc_e2,11945,"[{""event"":""fullscreenenter"",""trial"":1,""time"":3724}]",NA,NA,NA,NA,NA,1,#1CD855,#FA92F8,0,10,1,38,1,1157.8999998569489,39,0,677,10,0,experiment,NA,NA,2,0.5,0.5,4,5,123,3,NA
fcp-trial,158,1012786,0.0-133.0-0.0,voc_e2,11945,"[{""event"":""fullscreenenter"",""trial"":1,""time"":3724}]",NA,NA,NA,NA,NA,6,#3386FF,#D89F1C,10,10,0,40,0,2407.2999999523163,37,1,500.5,10,0,experiment,NA,NA,0,0.1,0.9,1,0,124,3,NA
fcp-trial,159,1016527,0.0-134.0-0.0,voc_e2,11945,"[{""event"":""fullscreenenter"",""trial"":1,""time"":3724}]",NA,NA,NA,NA,NA,4,#741CD8,#D8271C,10,10,1,40,0,1760.7999999523163,37,1,472.89999985694885,10,1,experiment,NA,NA,1,0.7,0.3,2,3,125,3,NA
fcp-trial,160,1020650,0.0-135.0-0.0,voc_e2,11945,"[{""event"":""fullscreenenter"",""trial"":1,""time"":3724}]",NA,NA,NA,NA,NA,3,#D89F1C,#3386FF,10,0,1,38,1,1529.6000001430511,37,1,1086.5,10,1,experiment,NA,NA,0,0.9,0.1,0,1,126,3,NA
fcp-trial,161,1024051,0.0-136.0-0.0,voc_e2,11945,"[{""event"":""fullscreenenter"",""trial"":1,""time"":3724}]",NA,NA,NA,NA,NA,2,#3386FF,#D89F1C,0,0,0,38,1,1423,39,0,473.5,0,1,experiment,NA,NA,0,0.1,0.9,1,0,127,3,NA
fcp-trial,162,1029284,0.0-137.0-0.0,voc_e2,11945,"[{""event"":""fullscreenenter"",""trial"":1,""time"":3724}]",NA,NA,NA,NA,NA,4,#FA92F8,#1CD855,0,10,0,38,1,2105.4000000953674,37,1,1619.7999999523163,0,0,experiment,NA,NA,2,0.5,0.5,5,4,128,3,NA
fcp-trial,163,1033923,0.0-138.0-0.0,voc_e2,11945,"[{""event"":""fullscreenenter"",""trial"":1,""time"":3724}]",NA,NA,NA,NA,NA,5,#D89F1C,#3386FF,10,10,1,40,0,1500.2000000476837,37,1,1633.7999999523163,10,1,experiment,NA,NA,0,0.9,0.1,0,1,129,3,NA
fcp-trial,164,1038459,0.0-139.0-0.0,voc_e2,11945,"[{""event"":""fullscreenenter"",""trial"":1,""time"":3724}]",NA,NA,NA,NA,NA,1,#1CD855,#FA92F8,0,10,1,38,1,2249.5999999046326,39,0,779.2000000476837,10,0,experiment,NA,NA,2,0.5,0.5,4,5,130,3,NA
fcp-trial,165,1043196,0.0-140.0-0.0,voc_e2,11945,"[{""event"":""fullscreenenter"",""trial"":1,""time"":3724}]",NA,NA,NA,NA,NA,3,#741CD8,#D8271C,0,10,1,38,1,2784.5,37,1,446.2000000476837,0,1,experiment,NA,NA,1,0.7,0.3,2,3,131,3,NA
fcp-trial,166,1048555,0.0-141.0-0.0,voc_e2,11945,"[{""event"":""fullscreenenter"",""trial"":1,""time"":3724}]",NA,NA,NA,NA,NA,0,#3386FF,#D89F1C,0,10,0,38,1,3196.899999856949,37,1,657.8000001907349,0,0,experiment,NA,NA,0,0.1,0.9,1,0,132,3,NA
fcp-trial,167,1053002,0.0-142.0-0.0,voc_e2,11945,"[{""event"":""fullscreenenter"",""trial"":1,""time"":3724}]",NA,NA,NA,NA,NA,2,#741CD8,#D8271C,0,10,1,38,1,2145.0999999046326,37,1,795.7000000476837,0,1,experiment,NA,NA,1,0.7,0.3,2,3,133,3,NA
fcp-trial,168,1058966,0.0-143.0-0.0,voc_e2,11945,"[{""event"":""fullscreenenter"",""trial"":1,""time"":3724}]",NA,NA,NA,NA,NA,2,#FA92F8,#1CD855,10,0,0,38,1,1972.3999998569489,37,1,2485.600000143051,10,0,experiment,NA,NA,2,0.5,0.5,5,4,134,3,NA
fcp-trial,169,1064659,0.0-144.0-0.0,voc_e2,11945,"[{""event"":""fullscreenenter"",""trial"":1,""time"":3724}]",NA,NA,NA,NA,NA,3,#FA92F8,#1CD855,0,0,0,38,1,2211.5,37,1,1976.9000000953674,0,0,experiment,NA,NA,2,0.5,0.5,5,4,135,3,NA
fcp-trial,170,1070713,0.0-145.0-0.0,voc_e2,11945,"[{""event"":""fullscreenenter"",""trial"":1,""time"":3724}]",NA,NA,NA,NA,NA,1,#3386FF,#D89F1C,10,10,0,38,1,2486.4000000953674,37,1,2061.7999999523163,10,0,experiment,NA,NA,0,0.1,0.9,1,0,136,4,NA
fcp-trial,171,1075801,0.0-146.0-0.0,voc_e2,11945,"[{""event"":""fullscreenenter"",""trial"":1,""time"":3724}]",NA,NA,NA,NA,NA,1,#741CD8,#D8271C,10,0,1,38,1,2967.5,37,1,614.7000000476837,10,1,experiment,NA,NA,1,0.7,0.3,2,3,137,4,NA
fcp-trial,172,1079247,0.0-147.0-0.0,voc_e2,11945,"[{""event"":""fullscreenenter"",""trial"":1,""time"":3724}]",NA,NA,NA,NA,NA,4,#D8271C,#741CD8,0,0,0,40,0,1420.1000001430511,39,0,519,0,1,experiment,NA,NA,1,0.3,0.7,3,2,138,4,NA
fcp-trial,173,1083031,0.0-148.0-0.0,voc_e2,11945,"[{""event"":""fullscreenenter"",""trial"":1,""time"":3724}]",NA,NA,NA,NA,NA,6,#1CD855,#FA92F8,10,0,1,40,0,1683.6000001430511,37,1,593.3999998569489,10,1,experiment,NA,NA,2,0.5,0.5,4,5,139,4,NA
fcp-trial,174,1088106,0.0-149.0-0.0,voc_e2,11945,"[{""event"":""fullscreenenter"",""trial"":1,""time"":3724}]",NA,NA,NA,NA,NA,3,#3386FF,#D89F1C,0,10,0,38,1,1972.4000000953674,39,0,1597.2999999523163,10,1,experiment,NA,NA,0,0.1,0.9,1,0,140,4,NA
fcp-trial,175,1092331,0.0-150.0-0.0,voc_e2,11945,"[{""event"":""fullscreenenter"",""trial"":1,""time"":3724}]",NA,NA,NA,NA,NA,6,#D8271C,#741CD8,10,10,0,40,0,2132.5,37,1,588.6000001430511,10,0,experiment,NA,NA,1,0.3,0.7,3,2,141,4,NA
fcp-trial,176,1096782,0.0-151.0-0.0,voc_e2,11945,"[{""event"":""fullscreenenter"",""trial"":1,""time"":3724}]",NA,NA,NA,NA,NA,4,#D89F1C,#3386FF,10,0,1,38,1,1987.5,39,0,958.7999999523163,0,0,experiment,NA,NA,0,0.9,0.1,0,1,142,4,NA
fcp-trial,177,1101216,0.0-152.0-0.0,voc_e2,11945,"[{""event"":""fullscreenenter"",""trial"":1,""time"":3724}]",NA,NA,NA,NA,NA,6,#D89F1C,#3386FF,10,0,1,40,0,2234.899999856949,39,0,693.6000001430511,0,0,experiment,NA,NA,0,0.9,0.1,0,1,143,4,NA
fcp-trial,178,1104753,0.0-153.0-0.0,voc_e2,11945,"[{""event"":""fullscreenenter"",""trial"":1,""time"":3724}]",NA,NA,NA,NA,NA,5,#FA92F8,#1CD855,10,0,0,40,0,1499.9000000953674,37,1,532.7000000476837,10,0,experiment,NA,NA,2,0.5,0.5,5,4,144,4,NA
fcp-trial,179,1108392,0.0-154.0-0.0,voc_e2,11945,"[{""event"":""fullscreenenter"",""trial"":1,""time"":3724}]",NA,NA,NA,NA,NA,5,#741CD8,#D8271C,10,10,1,40,0,1439.7000000476837,39,0,694.5,10,0,experiment,NA,NA,1,0.7,0.3,2,3,145,4,NA
fcp-trial,180,1111979,0.0-155.0-0.0,voc_e2,11945,"[{""event"":""fullscreenenter"",""trial"":1,""time"":3724}]",NA,NA,NA,NA,NA,0,#741CD8,#D8271C,10,0,1,38,1,1503.3999998569489,37,1,575.9000000953674,10,1,experiment,NA,NA,1,0.7,0.3,2,3,146,4,NA
fcp-trial,181,1115812,0.0-156.0-0.0,voc_e2,11945,"[{""event"":""fullscreenenter"",""trial"":1,""time"":3724}]",NA,NA,NA,NA,NA,0,#1CD855,#FA92F8,10,0,1,38,1,1230.9000000953674,39,0,1094.0999999046326,0,0,experiment,NA,NA,2,0.5,0.5,4,5,147,4,NA
fcp-trial,182,1120378,0.0-157.0-0.0,voc_e2,11945,"[{""event"":""fullscreenenter"",""trial"":1,""time"":3724}]",NA,NA,NA,NA,NA,3,#741CD8,#D8271C,0,0,1,38,1,1813,37,1,1246.1000001430511,0,1,experiment,NA,NA,1,0.7,0.3,2,3,148,4,NA
fcp-trial,183,1126138,0.0-158.0-0.0,voc_e2,11945,"[{""event"":""fullscreenenter"",""trial"":1,""time"":3724}]",NA,NA,NA,NA,NA,3,#FA92F8,#1CD855,0,0,0,38,1,2613.9000000953674,37,1,1639.2000000476837,0,0,experiment,NA,NA,2,0.5,0.5,5,4,149,4,NA
fcp-trial,184,1130973,0.0-159.0-0.0,voc_e2,11945,"[{""event"":""fullscreenenter"",""trial"":1,""time"":3724}]",NA,NA,NA,NA,NA,5,#FA92F8,#1CD855,0,0,0,40,0,1894.2000000476837,39,0,1436.8999998569489,0,1,experiment,NA,NA,2,0.5,0.5,5,4,150,4,NA
fcp-trial,185,1135646,0.0-160.0-0.0,voc_e2,11945,"[{""event"":""fullscreenenter"",""trial"":1,""time"":3724}]",NA,NA,NA,NA,NA,1,#3386FF,#D89F1C,0,10,0,38,1,2338.4000000953674,37,1,828.7999999523163,0,0,experiment,NA,NA,0,0.1,0.9,1,0,151,4,NA
fcp-trial,186,1139049,0.0-161.0-0.0,voc_e2,11945,"[{""event"":""fullscreenenter"",""trial"":1,""time"":3724}]",NA,NA,NA,NA,NA,4,#741CD8,#D8271C,10,0,1,40,0,1491,37,1,405.19999980926514,10,1,experiment,NA,NA,1,0.7,0.3,2,3,152,4,NA
fcp-trial,187,1142972,0.0-162.0-0.0,voc_e2,11945,"[{""event"":""fullscreenenter"",""trial"":1,""time"":3724}]",NA,NA,NA,NA,NA,4,#3386FF,#D89F1C,0,10,0,40,0,1684.2000000476837,37,1,728.2999999523163,0,0,experiment,NA,NA,0,0.1,0.9,1,0,153,4,NA
fcp-trial,188,1146626,0.0-163.0-0.0,voc_e2,11945,"[{""event"":""fullscreenenter"",""trial"":1,""time"":3724}]",NA,NA,NA,NA,NA,1,#1CD855,#FA92F8,10,10,1,40,0,1374.3999998569489,39,0,775.1000001430511,10,0,experiment,NA,NA,2,0.5,0.5,4,5,154,4,NA
fcp-trial,189,1150569,0.0-164.0-0.0,voc_e2,11945,"[{""event"":""fullscreenenter"",""trial"":1,""time"":3724}]",NA,NA,NA,NA,NA,2,#D8271C,#741CD8,0,0,0,40,0,1816.7000000476837,37,1,615.6000001430511,0,0,experiment,NA,NA,1,0.3,0.7,3,2,155,4,NA
fcp-trial,190,1154190,0.0-165.0-0.0,voc_e2,11945,"[{""event"":""fullscreenenter"",""trial"":1,""time"":3724}]",NA,NA,NA,NA,NA,6,#3386FF,#D89F1C,0,10,0,40,0,1592.8999998569489,39,0,522.5999999046326,10,1,experiment,NA,NA,0,0.1,0.9,1,0,156,4,NA
fcp-trial,191,1158696,0.0-166.0-0.0,voc_e2,11945,"[{""event"":""fullscreenenter"",""trial"":1,""time"":3724}]",NA,NA,NA,NA,NA,0,#1CD855,#FA92F8,10,0,1,38,1,1913.5,39,0,1087,0,0,experiment,NA,NA,2,0.5,0.5,4,5,157,4,NA
fcp-trial,192,1163580,0.0-167.0-0.0,voc_e2,11945,"[{""event"":""fullscreenenter"",""trial"":1,""time"":3724}]",NA,NA,NA,NA,NA,0,#D89F1C,#3386FF,0,0,1,38,1,1771.7000000476837,39,0,1603.5,0,0,experiment,NA,NA,0,0.9,0.1,0,1,158,4,NA
fcp-trial,193,1167468,0.0-168.0-0.0,voc_e2,11945,"[{""event"":""fullscreenenter"",""trial"":1,""time"":3724}]",NA,NA,NA,NA,NA,1,#D8271C,#741CD8,0,10,0,38,1,1457.1000001430511,37,1,923.7999999523163,0,0,experiment,NA,NA,1,0.3,0.7,3,2,159,4,NA
fcp-trial,194,1171044,0.0-169.0-0.0,voc_e2,11945,"[{""event"":""fullscreenenter"",""trial"":1,""time"":3724}]",NA,NA,NA,NA,NA,6,#D8271C,#741CD8,0,10,0,40,0,1371.0999999046326,39,0,699.0999999046326,10,1,experiment,NA,NA,1,0.3,0.7,3,2,160,4,NA
fcp-trial,195,1174360,0.0-170.0-0.0,voc_e2,11945,"[{""event"":""fullscreenenter"",""trial"":1,""time"":3724}]",NA,NA,NA,NA,NA,5,#3386FF,#D89F1C,0,0,0,40,0,1229.3999998569489,37,1,580.7999999523163,0,0,experiment,NA,NA,0,0.1,0.9,1,0,161,4,NA
fcp-trial,196,1177891,0.0-171.0-0.0,voc_e2,11945,"[{""event"":""fullscreenenter"",""trial"":1,""time"":3724}]",NA,NA,NA,NA,NA,2,#FA92F8,#1CD855,10,10,0,38,1,1393.2999999523163,37,1,634.5,10,0,experiment,NA,NA,2,0.5,0.5,5,4,162,4,NA
fcp-trial,197,1181553,0.0-172.0-0.0,voc_e2,11945,"[{""event"":""fullscreenenter"",""trial"":1,""time"":3724}]",NA,NA,NA,NA,NA,2,#D89F1C,#3386FF,10,0,1,40,0,1673.0999999046326,37,1,483.40000009536743,10,1,experiment,NA,NA,0,0.9,0.1,0,1,163,4,NA
fcp-trial,198,1185389,0.0-173.0-0.0,voc_e2,11945,"[{""event"":""fullscreenenter"",""trial"":1,""time"":3724}]",NA,NA,NA,NA,NA,0,#741CD8,#D8271C,0,0,1,38,1,1717.9000000953674,37,1,611.2000000476837,0,1,experiment,NA,NA,1,0.7,0.3,2,3,164,4,NA
fcp-trial,199,1189699,0.0-174.0-0.0,voc_e2,11945,"[{""event"":""fullscreenenter"",""trial"":1,""time"":3724}]",NA,NA,NA,NA,NA,6,#1CD855,#FA92F8,10,0,1,40,0,2331.600000143051,37,1,471.7000000476837,10,1,experiment,NA,NA,2,0.5,0.5,4,5,165,4,NA
fcp-trial,200,1194008,0.0-175.0-0.0,voc_e2,11945,"[{""event"":""fullscreenenter"",""trial"":1,""time"":3724}]",NA,NA,NA,NA,NA,4,#FA92F8,#1CD855,10,10,0,40,0,2317.7999999523163,37,1,482.90000009536743,10,0,experiment,NA,NA,2,0.5,0.5,5,4,166,4,NA
fcp-trial,201,1198006,0.0-176.0-0.0,voc_e2,11945,"[{""event"":""fullscreenenter"",""trial"":1,""time"":3724}]",NA,NA,NA,NA,NA,3,#D89F1C,#3386FF,10,0,1,38,1,1897.2999999523163,37,1,596.3999998569489,10,1,experiment,NA,NA,0,0.9,0.1,0,1,167,4,NA
fcp-trial,202,1202843,0.0-177.0-0.0,voc_e2,11945,"[{""event"":""fullscreenenter"",""trial"":1,""time"":3724}]",NA,NA,NA,NA,NA,5,#D8271C,#741CD8,0,10,0,40,0,2830.100000143051,39,0,502,10,1,experiment,NA,NA,1,0.3,0.7,3,2,168,4,NA
fcp-trial,203,1206344,0.0-178.0-0.0,voc_e2,11945,"[{""event"":""fullscreenenter"",""trial"":1,""time"":3724}]",NA,NA,NA,NA,NA,4,#D89F1C,#3386FF,10,0,1,40,0,1461.7999999523163,37,1,529,10,1,experiment,NA,NA,0,0.9,0.1,0,1,169,4,NA
fcp-trial,204,1210292,0.0-179.0-0.0,voc_e2,11945,"[{""event"":""fullscreenenter"",""trial"":1,""time"":3724}]",NA,NA,NA,NA,NA,4,#741CD8,#D8271C,10,0,1,38,1,1992.9000000953674,37,1,451.2000000476837,10,1,experiment,NA,NA,1,0.7,0.3,2,3,170,4,NA
fcp-trial,205,1215029,0.0-180.0-0.0,voc_e2,11945,"[{""event"":""fullscreenenter"",""trial"":1,""time"":3724}]",NA,NA,NA,NA,NA,1,#FA92F8,#1CD855,10,0,0,38,1,2141.5999999046326,37,1,1091.7999999523163,10,0,experiment,NA,NA,2,0.5,0.5,5,4,171,4,NA
fcp-trial,206,1220242,0.0-181.0-0.0,voc_e2,11945,"[{""event"":""fullscreenenter"",""trial"":1,""time"":3724}]",NA,NA,NA,NA,NA,3,#D89F1C,#3386FF,0,0,1,38,1,2967.7000000476837,37,1,738.4000000953674,0,1,experiment,NA,NA,0,0.9,0.1,0,1,172,4,NA
fcp-trial,207,1224321,0.0-182.0-0.0,voc_e2,11945,"[{""event"":""fullscreenenter"",""trial"":1,""time"":3724}]",NA,NA,NA,NA,NA,3,#D8271C,#741CD8,10,0,0,38,1,1918.4000000953674,39,0,656.2000000476837,0,1,experiment,NA,NA,1,0.3,0.7,3,2,173,4,NA
fcp-trial,208,1228544,0.0-183.0-0.0,voc_e2,11945,"[{""event"":""fullscreenenter"",""trial"":1,""time"":3724}]",NA,NA,NA,NA,NA,6,#1CD855,#FA92F8,0,10,1,40,0,2143.7000000476837,37,1,574.7999999523163,0,1,experiment,NA,NA,2,0.5,0.5,4,5,174,4,NA
fcp-trial,209,1232343,0.0-184.0-0.0,voc_e2,11945,"[{""event"":""fullscreenenter"",""trial"":1,""time"":3724}]",NA,NA,NA,NA,NA,2,#1CD855,#FA92F8,0,0,1,40,0,1522.9000000953674,39,0,772.5,0,0,experiment,NA,NA,2,0.5,0.5,4,5,175,4,NA
fcp-trial,210,1235726,0.0-185.0-0.0,voc_e2,11945,"[{""event"":""fullscreenenter"",""trial"":1,""time"":3724}]",NA,NA,NA,NA,NA,0,#3386FF,#D89F1C,0,10,0,38,1,1068.7999999523163,37,1,810.6000001430511,0,0,experiment,NA,NA,0,0.1,0.9,1,0,176,4,NA
fcp-trial,211,1239273,0.0-186.0-0.0,voc_e2,11945,"[{""event"":""fullscreenenter"",""trial"":1,""time"":3724}]",NA,NA,NA,NA,NA,1,#D8271C,#741CD8,0,0,0,38,1,1545.1000001430511,39,0,493.7999999523163,0,1,experiment,NA,NA,1,0.3,0.7,3,2,177,4,NA
fcp-trial,212,1242817,0.0-187.0-0.0,voc_e2,11945,"[{""event"":""fullscreenenter"",""trial"":1,""time"":3724}]",NA,NA,NA,NA,NA,4,#1CD855,#FA92F8,10,0,1,40,0,1578.5,39,0,462.40000009536743,0,0,experiment,NA,NA,2,0.5,0.5,4,5,178,4,NA
fcp-trial,213,1247434,0.0-188.0-0.0,voc_e2,11945,"[{""event"":""fullscreenenter"",""trial"":1,""time"":3724}]",NA,NA,NA,NA,NA,6,#D89F1C,#3386FF,10,0,1,40,0,2569.7000000476837,37,1,542.0999999046326,10,1,experiment,NA,NA,0,0.9,0.1,0,1,179,4,NA
fcp-trial,214,1251674,0.0-189.0-0.0,voc_e2,11945,"[{""event"":""fullscreenenter"",""trial"":1,""time"":3724}]",NA,NA,NA,NA,NA,6,#741CD8,#D8271C,0,0,1,38,1,1216.7000000476837,37,1,1516.8999998569489,0,1,experiment,NA,NA,1,0.7,0.3,2,3,180,4,NA
fcp-trial,215,1255818,0.0-190.0-0.0,voc_e2,11945,"[{""event"":""fullscreenenter"",""trial"":1,""time"":3724}]",NA,NA,NA,NA,NA,3,#1CD855,#FA92F8,10,0,1,38,1,1784.5999999046326,39,0,854.7000000476837,0,0,experiment,NA,NA,2,0.5,0.5,4,5,181,5,NA
fcp-trial,216,1259718,0.0-191.0-0.0,voc_e2,11945,"[{""event"":""fullscreenenter"",""trial"":1,""time"":3724}]",NA,NA,NA,NA,NA,2,#D89F1C,#3386FF,0,0,1,38,1,1332,37,1,1061.7000000476837,0,1,experiment,NA,NA,0,0.9,0.1,0,1,182,5,NA
fcp-trial,217,1263747,0.0-192.0-0.0,voc_e2,11945,"[{""event"":""fullscreenenter"",""trial"":1,""time"":3724}]",NA,NA,NA,NA,NA,0,#D8271C,#741CD8,10,0,0,38,1,1859.5,39,0,664.3000001907349,0,1,experiment,NA,NA,1,0.3,0.7,3,2,183,5,NA
fcp-trial,218,1269256,0.0-193.0-0.0,voc_e2,11945,"[{""event"":""fullscreenenter"",""trial"":1,""time"":3724}]",NA,NA,NA,NA,NA,1,#3386FF,#D89F1C,0,10,0,38,1,2071.7999999523163,39,0,1932.6000001430511,10,1,experiment,NA,NA,0,0.1,0.9,1,0,184,5,NA
fcp-trial,219,1274264,0.0-194.0-0.0,voc_e2,11945,"[{""event"":""fullscreenenter"",""trial"":1,""time"":3724}]",NA,NA,NA,NA,NA,0,#1CD855,#FA92F8,10,0,1,40,0,2799,39,0,701.2999999523163,0,0,experiment,NA,NA,2,0.5,0.5,4,5,185,5,NA
fcp-trial,220,1279494,0.0-195.0-0.0,voc_e2,11945,"[{""event"":""fullscreenenter"",""trial"":1,""time"":3724}]",NA,NA,NA,NA,NA,2,#D8271C,#741CD8,0,10,0,38,1,2753.4000000953674,37,1,969.5,0,0,experiment,NA,NA,1,0.3,0.7,3,2,186,5,NA
fcp-trial,221,1283741,0.0-196.0-0.0,voc_e2,11945,"[{""event"":""fullscreenenter"",""trial"":1,""time"":3724}]",NA,NA,NA,NA,NA,5,#1CD855,#FA92F8,0,10,1,40,0,2234,37,1,504.19999980926514,0,1,experiment,NA,NA,2,0.5,0.5,4,5,187,5,NA
fcp-trial,222,1287116,0.0-197.0-0.0,voc_e2,11945,"[{""event"":""fullscreenenter"",""trial"":1,""time"":3724}]",NA,NA,NA,NA,NA,5,#741CD8,#D8271C,0,0,1,40,0,1411.1000001430511,37,1,453.80000019073486,0,1,experiment,NA,NA,1,0.7,0.3,2,3,188,5,NA
fcp-trial,223,1291482,0.0-198.0-0.0,voc_e2,11945,"[{""event"":""fullscreenenter"",""trial"":1,""time"":3724}]",NA,NA,NA,NA,NA,5,#3386FF,#D89F1C,0,10,0,38,1,1547.7000000476837,39,0,1312.7999999523163,10,1,experiment,NA,NA,0,0.1,0.9,1,0,189,5,NA
fcp-trial,224,1294945,0.0-199.0-0.0,voc_e2,11945,"[{""event"":""fullscreenenter"",""trial"":1,""time"":3724}]",NA,NA,NA,NA,NA,6,#3386FF,#D89F1C,0,0,0,38,1,1342,39,0,614.7999999523163,0,1,experiment,NA,NA,0,0.1,0.9,1,0,190,5,NA
fcp-trial,225,1300348,0.0-200.0-0.0,voc_e2,11945,"[{""event"":""fullscreenenter"",""trial"":1,""time"":3724}]",NA,NA,NA,NA,NA,3,#D89F1C,#3386FF,10,0,1,38,1,1829,37,1,2071.2000000476837,10,1,experiment,NA,NA,0,0.9,0.1,0,1,191,5,NA
fcp-trial,226,1304019,0.0-201.0-0.0,voc_e2,11945,"[{""event"":""fullscreenenter"",""trial"":1,""time"":3724}]",NA,NA,NA,NA,NA,6,#D8271C,#741CD8,0,10,0,40,0,1543.2000000476837,37,1,621.5999999046326,0,0,experiment,NA,NA,1,0.3,0.7,3,2,192,5,NA
fcp-trial,227,1307673,0.0-202.0-0.0,voc_e2,11945,"[{""event"":""fullscreenenter"",""trial"":1,""time"":3724}]",NA,NA,NA,NA,NA,5,#741CD8,#D8271C,10,10,1,40,0,1467.4000000953674,37,1,678.6000001430511,10,1,experiment,NA,NA,1,0.7,0.3,2,3,193,5,NA
fcp-trial,228,1313148,0.0-203.0-0.0,voc_e2,11945,"[{""event"":""fullscreenenter"",""trial"":1,""time"":3724}]",NA,NA,NA,NA,NA,2,#741CD8,#D8271C,10,0,1,38,1,3351.0999999046326,37,1,618,10,1,experiment,NA,NA,1,0.7,0.3,2,3,194,5,NA
fcp-trial,229,1317760,0.0-204.0-0.0,voc_e2,11945,"[{""event"":""fullscreenenter"",""trial"":1,""time"":3724}]",NA,NA,NA,NA,NA,0,#D89F1C,#3386FF,10,0,1,40,0,2145,37,1,959.5,10,1,experiment,NA,NA,0,0.9,0.1,0,1,195,5,NA
fcp-trial,230,1321551,0.0-205.0-0.0,voc_e2,11945,"[{""event"":""fullscreenenter"",""trial"":1,""time"":3724}]",NA,NA,NA,NA,NA,5,#1CD855,#FA92F8,10,0,1,40,0,1802.3000001907349,37,1,479.09999990463257,10,1,experiment,NA,NA,2,0.5,0.5,4,5,196,5,NA
fcp-trial,231,1325081,0.0-206.0-0.0,voc_e2,11945,"[{""event"":""fullscreenenter"",""trial"":1,""time"":3724}]",NA,NA,NA,NA,NA,0,#741CD8,#D8271C,0,0,1,38,1,1430,37,1,596.7999999523163,0,1,experiment,NA,NA,1,0.7,0.3,2,3,197,5,NA
fcp-trial,232,1329450,0.0-207.0-0.0,voc_e2,11945,"[{""event"":""fullscreenenter"",""trial"":1,""time"":3724}]",NA,NA,NA,NA,NA,2,#D89F1C,#3386FF,10,0,1,38,1,1605,37,1,1260.2999999523163,10,1,experiment,NA,NA,0,0.9,0.1,0,1,198,5,NA
fcp-trial,233,1333414,0.0-208.0-0.0,voc_e2,11945,"[{""event"":""fullscreenenter"",""trial"":1,""time"":3724}]",NA,NA,NA,NA,NA,6,#FA92F8,#1CD855,10,0,0,40,0,1841.5,39,0,615.6999998092651,0,1,experiment,NA,NA,2,0.5,0.5,5,4,199,5,NA
fcp-trial,234,1337770,0.0-209.0-0.0,voc_e2,11945,"[{""event"":""fullscreenenter"",""trial"":1,""time"":3724}]",NA,NA,NA,NA,NA,3,#FA92F8,#1CD855,10,10,0,40,0,1762.2000000476837,39,0,1083.5,10,1,experiment,NA,NA,2,0.5,0.5,5,4,200,5,NA
fcp-trial,235,1341152,0.0-210.0-0.0,voc_e2,11945,"[{""event"":""fullscreenenter"",""trial"":1,""time"":3724}]",NA,NA,NA,NA,NA,4,#D8271C,#741CD8,0,10,0,40,0,1338.8999998569489,39,0,536.5,10,1,experiment,NA,NA,1,0.3,0.7,3,2,201,5,NA
fcp-trial,236,1345506,0.0-211.0-0.0,voc_e2,11945,"[{""event"":""fullscreenenter"",""trial"":1,""time"":3724}]",NA,NA,NA,NA,NA,1,#3386FF,#D89F1C,0,10,0,38,1,1341.7999999523163,39,0,1504.5,10,1,experiment,NA,NA,0,0.1,0.9,1,0,202,5,NA
fcp-trial,237,1350266,0.0-212.0-0.0,voc_e2,11945,"[{""event"":""fullscreenenter"",""trial"":1,""time"":3724}]",NA,NA,NA,NA,NA,4,#D89F1C,#3386FF,10,0,1,40,0,2160.2000000476837,37,1,1092.6000001430511,10,1,experiment,NA,NA,0,0.9,0.1,0,1,203,5,NA
fcp-trial,238,1354074,0.0-213.0-0.0,voc_e2,11945,"[{""event"":""fullscreenenter"",""trial"":1,""time"":3724}]",NA,NA,NA,NA,NA,3,#741CD8,#D8271C,10,0,1,40,0,1614.7999999523163,39,0,686,0,0,experiment,NA,NA,1,0.7,0.3,2,3,204,5,NA
fcp-trial,239,1358731,0.0-214.0-0.0,voc_e2,11945,"[{""event"":""fullscreenenter"",""trial"":1,""time"":3724}]",NA,NA,NA,NA,NA,4,#1CD855,#FA92F8,10,0,1,38,1,1348.7999999523163,39,0,1803,0,0,experiment,NA,NA,2,0.5,0.5,4,5,205,5,NA
fcp-trial,240,1363799,0.0-215.0-0.0,voc_e2,11945,"[{""event"":""fullscreenenter"",""trial"":1,""time"":3724}]",NA,NA,NA,NA,NA,0,#1CD855,#FA92F8,10,10,1,38,1,1680.2000000476837,39,0,1882,10,0,experiment,NA,NA,2,0.5,0.5,4,5,206,5,NA
fcp-trial,241,1369602,0.0-216.0-0.0,voc_e2,11945,"[{""event"":""fullscreenenter"",""trial"":1,""time"":3724}]",NA,NA,NA,NA,NA,2,#FA92F8,#1CD855,10,0,0,40,0,3531,37,1,766.5,10,0,experiment,NA,NA,2,0.5,0.5,5,4,207,5,NA
fcp-trial,242,1374135,0.0-217.0-0.0,voc_e2,11945,"[{""event"":""fullscreenenter"",""trial"":1,""time"":3724}]",NA,NA,NA,NA,NA,5,#D89F1C,#3386FF,10,0,1,38,1,2264.2000000476837,39,0,764,0,0,experiment,NA,NA,0,0.9,0.1,0,1,208,5,NA
fcp-trial,243,1377489,0.0-218.0-0.0,voc_e2,11945,"[{""event"":""fullscreenenter"",""trial"":1,""time"":3724}]",NA,NA,NA,NA,NA,1,#741CD8,#D8271C,0,0,1,38,1,1300.7999999523163,37,1,546.8000001907349,0,1,experiment,NA,NA,1,0.7,0.3,2,3,209,5,NA
fcp-trial,244,1381152,0.0-219.0-0.0,voc_e2,11945,"[{""event"":""fullscreenenter"",""trial"":1,""time"":3724}]",NA,NA,NA,NA,NA,1,#FA92F8,#1CD855,10,0,0,40,0,1434.7999999523163,37,1,721.5,10,0,experiment,NA,NA,2,0.5,0.5,5,4,210,5,NA
audio-instructions,245,1441560,0.0-220.0,voc_e2,11945,"[{""event"":""fullscreenenter"",""trial"":1,""time"":3724}]",NA,55446.79999995232,static/audio/pause.wav,NA,0,NA,NA,NA,NA,NA,NA,NA,NA,NA,NA,NA,NA,NA,NA,NA,NA,NA,NA,NA,NA,NA,NA,NA,NA,NA
fcp-trial,246,1445743,0.0-221.0-0.0,voc_e2,11945,"[{""event"":""fullscreenenter"",""trial"":1,""time"":3724}]",NA,NA,NA,NA,NA,5,#3386FF,#D89F1C,10,10,0,40,0,2076.2000000476837,37,1,598.2000000476837,10,0,experiment,NA,NA,0,0.1,0.9,1,0,211,5,NA
fcp-trial,247,1449148,0.0-222.0-0.0,voc_e2,11945,"[{""event"":""fullscreenenter"",""trial"":1,""time"":3724}]",NA,NA,NA,NA,NA,6,#D8271C,#741CD8,0,10,0,38,1,1099.2999999523163,39,0,794.2999999523163,10,1,experiment,NA,NA,1,0.3,0.7,3,2,212,5,NA
fcp-trial,248,1452951,0.0-223.0-0.0,voc_e2,11945,"[{""event"":""fullscreenenter"",""trial"":1,""time"":3724}]",NA,NA,NA,NA,NA,2,#3386FF,#D89F1C,0,10,0,38,1,1386,37,1,908.4000000953674,0,0,experiment,NA,NA,0,0.1,0.9,1,0,213,5,NA
fcp-trial,249,1456310,0.0-224.0-0.0,voc_e2,11945,"[{""event"":""fullscreenenter"",""trial"":1,""time"":3724}]",NA,NA,NA,NA,NA,1,#1CD855,#FA92F8,10,10,1,38,1,1311.5,39,0,540.5,10,0,experiment,NA,NA,2,0.5,0.5,4,5,214,5,NA
fcp-trial,250,1459442,0.0-225.0-0.0,voc_e2,11945,"[{""event"":""fullscreenenter"",""trial"":1,""time"":3724}]",NA,NA,NA,NA,NA,3,#741CD8,#D8271C,10,0,1,40,0,1136.1999998092651,37,1,489.7999999523163,10,1,experiment,NA,NA,1,0.7,0.3,2,3,215,5,NA
fcp-trial,251,1462855,0.0-226.0-0.0,voc_e2,11945,"[{""event"":""fullscreenenter"",""trial"":1,""time"":3724}]",NA,NA,NA,NA,NA,4,#1CD855,#FA92F8,0,0,1,38,1,1121.4000000953674,39,0,784.2000000476837,0,0,experiment,NA,NA,2,0.5,0.5,4,5,216,5,NA
fcp-trial,252,1467353,0.0-227.0-0.0,voc_e2,11945,"[{""event"":""fullscreenenter"",""trial"":1,""time"":3724}]",NA,NA,NA,NA,NA,3,#3386FF,#D89F1C,0,10,0,38,1,1927.5,37,1,1065.0999999046326,0,0,experiment,NA,NA,0,0.1,0.9,1,0,217,5,NA
fcp-trial,253,1470928,0.0-228.0-0.0,voc_e2,11945,"[{""event"":""fullscreenenter"",""trial"":1,""time"":3724}]",NA,NA,NA,NA,NA,0,#D89F1C,#3386FF,10,0,1,38,1,1248.5,37,1,822.5999999046326,10,1,experiment,NA,NA,0,0.9,0.1,0,1,218,5,NA
fcp-trial,254,1474241,0.0-229.0-0.0,voc_e2,11945,"[{""event"":""fullscreenenter"",""trial"":1,""time"":3724}]",NA,NA,NA,NA,NA,4,#741CD8,#D8271C,10,0,1,38,1,1159.1999998092651,37,1,647.6000001430511,10,1,experiment,NA,NA,1,0.7,0.3,2,3,219,5,NA
fcp-trial,255,1477162,0.0-230.0-0.0,voc_e2,11945,"[{""event"":""fullscreenenter"",""trial"":1,""time"":3724}]",NA,NA,NA,NA,NA,0,#D8271C,#741CD8,0,10,0,38,1,902.0999999046326,39,0,510.2999999523163,10,1,experiment,NA,NA,1,0.3,0.7,3,2,220,5,NA
fcp-trial,256,1480623,0.0-231.0-0.0,voc_e2,11945,"[{""event"":""fullscreenenter"",""trial"":1,""time"":3724}]",NA,NA,NA,NA,NA,0,#1CD855,#FA92F8,10,10,1,38,1,888.7999999523163,39,0,1065.9000000953674,10,0,experiment,NA,NA,2,0.5,0.5,4,5,221,5,NA
fcp-trial,257,1486154,0.0-232.0-0.0,voc_e2,11945,"[{""event"":""fullscreenenter"",""trial"":1,""time"":3724}]",NA,NA,NA,NA,NA,3,#1CD855,#FA92F8,10,10,1,38,1,2118.7000000476837,39,0,1906.4000000953674,10,0,experiment,NA,NA,2,0.5,0.5,4,5,222,5,NA
fcp-trial,258,1491048,0.0-233.0-0.0,voc_e2,11945,"[{""event"":""fullscreenenter"",""trial"":1,""time"":3724}]",NA,NA,NA,NA,NA,4,#D89F1C,#3386FF,10,0,1,38,1,2477.5999999046326,37,1,911.7999999523163,10,1,experiment,NA,NA,0,0.9,0.1,0,1,223,5,NA
fcp-trial,259,1494045,0.0-234.0-0.0,voc_e2,11945,"[{""event"":""fullscreenenter"",""trial"":1,""time"":3724}]",NA,NA,NA,NA,NA,5,#D8271C,#741CD8,0,10,0,38,1,1034.2999999523163,39,0,458.09999990463257,10,1,experiment,NA,NA,1,0.3,0.7,3,2,224,5,NA
fcp-trial,260,1497774,0.0-235.0-0.0,voc_e2,11945,"[{""event"":""fullscreenenter"",""trial"":1,""time"":3724}]",NA,NA,NA,NA,NA,2,#1CD855,#FA92F8,0,10,1,40,0,1512,39,0,711.7000000476837,10,0,experiment,NA,NA,2,0.5,0.5,4,5,225,5,NA
fcp-trial,261,1501245,0.0-236.0-0.0,voc_e2,11945,"[{""event"":""fullscreenenter"",""trial"":1,""time"":3724}]",NA,NA,NA,NA,NA,2,#741CD8,#D8271C,10,0,1,40,0,1449.2999999523163,37,1,517.7999999523163,10,1,experiment,NA,NA,1,0.7,0.3,2,3,226,6,NA
fcp-trial,262,1504417,0.0-237.0-0.0,voc_e2,11945,"[{""event"":""fullscreenenter"",""trial"":1,""time"":3724}]",NA,NA,NA,NA,NA,1,#D8271C,#741CD8,0,10,0,38,1,1274.6000001430511,39,0,390.10000014305115,10,1,experiment,NA,NA,1,0.3,0.7,3,2,227,6,NA
fcp-trial,263,1508564,0.0-238.0-0.0,voc_e2,11945,"[{""event"":""fullscreenenter"",""trial"":1,""time"":3724}]",NA,NA,NA,NA,NA,1,#D89F1C,#3386FF,10,0,1,38,1,1031.0999999046326,37,1,1611.7000000476837,10,1,experiment,NA,NA,0,0.9,0.1,0,1,228,6,NA
fcp-trial,264,1512145,0.0-239.0-0.0,voc_e2,11945,"[{""event"":""fullscreenenter"",""trial"":1,""time"":3724}]",NA,NA,NA,NA,NA,5,#FA92F8,#1CD855,0,0,0,40,0,1556.7000000476837,37,1,519.0999999046326,0,0,experiment,NA,NA,2,0.5,0.5,5,4,229,6,NA
fcp-trial,265,1515853,0.0-240.0-0.0,voc_e2,11945,"[{""event"":""fullscreenenter"",""trial"":1,""time"":3724}]",NA,NA,NA,NA,NA,6,#D89F1C,#3386FF,10,0,1,40,0,1456.7000000476837,39,0,745.2999999523163,0,0,experiment,NA,NA,0,0.9,0.1,0,1,230,6,NA
fcp-trial,266,1520408,0.0-241.0-0.0,voc_e2,11945,"[{""event"":""fullscreenenter"",""trial"":1,""time"":3724}]",NA,NA,NA,NA,NA,6,#FA92F8,#1CD855,10,0,0,40,0,2423.5,37,1,623.4000000953674,10,0,experiment,NA,NA,2,0.5,0.5,5,4,231,6,NA
fcp-trial,267,1523917,0.0-242.0-0.0,voc_e2,11945,"[{""event"":""fullscreenenter"",""trial"":1,""time"":3724}]",NA,NA,NA,NA,NA,3,#1CD855,#FA92F8,0,10,1,38,1,1092,39,0,912.1999998092651,10,0,experiment,NA,NA,2,0.5,0.5,4,5,232,6,NA
fcp-trial,268,1527115,0.0-243.0-0.0,voc_e2,11945,"[{""event"":""fullscreenenter"",""trial"":1,""time"":3724}]",NA,NA,NA,NA,NA,1,#D8271C,#741CD8,0,10,0,38,1,1197.8999998569489,37,1,495.59999990463257,0,0,experiment,NA,NA,1,0.3,0.7,3,2,233,6,NA
fcp-trial,269,1530048,0.0-244.0-0.0,voc_e2,11945,"[{""event"":""fullscreenenter"",""trial"":1,""time"":3724}]",NA,NA,NA,NA,NA,3,#741CD8,#D8271C,10,0,1,38,1,929.7999999523163,37,1,497.60000014305115,10,1,experiment,NA,NA,1,0.7,0.3,2,3,234,6,NA
fcp-trial,270,1532995,0.0-245.0-0.0,voc_e2,11945,"[{""event"":""fullscreenenter"",""trial"":1,""time"":3724}]",NA,NA,NA,NA,NA,0,#741CD8,#D8271C,10,10,1,38,1,969.2999999523163,37,1,472.09999990463257,10,1,experiment,NA,NA,1,0.7,0.3,2,3,235,6,NA
fcp-trial,271,1537035,0.0-246.0-0.0,voc_e2,11945,"[{""event"":""fullscreenenter"",""trial"":1,""time"":3724}]",NA,NA,NA,NA,NA,3,#D89F1C,#3386FF,10,10,1,38,1,1018,37,1,1514.7000000476837,10,1,experiment,NA,NA,0,0.9,0.1,0,1,236,6,NA
fcp-trial,272,1541000,0.0-247.0-0.0,voc_e2,11945,"[{""event"":""fullscreenenter"",""trial"":1,""time"":3724}]",NA,NA,NA,NA,NA,1,#FA92F8,#1CD855,10,10,0,40,0,1868.1000001430511,39,0,592.5,10,1,experiment,NA,NA,2,0.5,0.5,5,4,237,6,NA
fcp-trial,273,1545203,0.0-248.0-0.0,voc_e2,11945,"[{""event"":""fullscreenenter"",""trial"":1,""time"":3724}]",NA,NA,NA,NA,NA,2,#D89F1C,#3386FF,0,0,1,38,1,1606.5,37,1,1090.8999998569489,0,1,experiment,NA,NA,0,0.9,0.1,0,1,238,6,NA
fcp-trial,274,1548882,0.0-249.0-0.0,voc_e2,11945,"[{""event"":""fullscreenenter"",""trial"":1,""time"":3724}]",NA,NA,NA,NA,NA,4,#741CD8,#D8271C,10,0,1,40,0,1232.2000000476837,37,1,943.3000001907349,10,1,experiment,NA,NA,1,0.7,0.3,2,3,239,6,NA
fcp-trial,275,1553839,0.0-250.0-0.0,voc_e2,11945,"[{""event"":""fullscreenenter"",""trial"":1,""time"":3724}]",NA,NA,NA,NA,NA,2,#1CD855,#FA92F8,10,10,1,38,1,2401.2999999523163,37,1,1049.8000001907349,10,1,experiment,NA,NA,2,0.5,0.5,4,5,240,6,NA
fcp-trial,276,1558064,0.0-251.0-0.0,voc_e2,11945,"[{""event"":""fullscreenenter"",""trial"":1,""time"":3724}]",NA,NA,NA,NA,NA,5,#D89F1C,#3386FF,10,10,1,40,0,1680,37,1,1037.9000000953674,10,1,experiment,NA,NA,0,0.9,0.1,0,1,241,6,NA
fcp-trial,277,1562377,0.0-252.0-0.0,voc_e2,11945,"[{""event"":""fullscreenenter"",""trial"":1,""time"":3724}]",NA,NA,NA,NA,NA,0,#1CD855,#FA92F8,0,0,1,38,1,1361.0999999046326,39,0,1445.7999999523163,0,0,experiment,NA,NA,2,0.5,0.5,4,5,242,6,NA
fcp-trial,278,1566221,0.0-253.0-0.0,voc_e2,11945,"[{""event"":""fullscreenenter"",""trial"":1,""time"":3724}]",NA,NA,NA,NA,NA,2,#741CD8,#D8271C,10,0,1,40,0,1820.0999999046326,37,1,519.4000000953674,10,1,experiment,NA,NA,1,0.7,0.3,2,3,243,6,NA
fcp-trial,279,1571217,0.0-254.0-0.0,voc_e2,11945,"[{""event"":""fullscreenenter"",""trial"":1,""time"":3724}]",NA,NA,NA,NA,NA,4,#D89F1C,#3386FF,0,0,1,40,0,2963.2999999523163,39,0,526.7000000476837,0,0,experiment,NA,NA,0,0.9,0.1,0,1,244,6,NA
fcp-trial,280,1575971,0.0-255.0-0.0,voc_e2,11945,"[{""event"":""fullscreenenter"",""trial"":1,""time"":3724}]",NA,NA,NA,NA,NA,4,#FA92F8,#1CD855,0,10,0,40,0,2645.7999999523163,37,1,599.0999999046326,0,0,experiment,NA,NA,2,0.5,0.5,5,4,245,6,NA
fcp-trial,281,1579772,0.0-256.0-0.0,voc_e2,11945,"[{""event"":""fullscreenenter"",""trial"":1,""time"":3724}]",NA,NA,NA,NA,NA,6,#D89F1C,#3386FF,10,0,1,40,0,1709.9000000953674,37,1,586.5999999046326,10,1,experiment,NA,NA,0,0.9,0.1,0,1,246,6,NA
fcp-trial,282,1585096,0.0-257.0-0.0,voc_e2,11945,"[{""event"":""fullscreenenter"",""trial"":1,""time"":3724}]",NA,NA,NA,NA,NA,1,#D89F1C,#3386FF,10,0,1,38,1,2881.7000000476837,37,1,936.2999999523163,10,1,experiment,NA,NA,0,0.9,0.1,0,1,247,6,NA
fcp-trial,283,1588897,0.0-258.0-0.0,voc_e2,11945,"[{""event"":""fullscreenenter"",""trial"":1,""time"":3724}]",NA,NA,NA,NA,NA,5,#D8271C,#741CD8,0,0,0,40,0,1620.5999999046326,37,1,673.7999999523163,0,0,experiment,NA,NA,1,0.3,0.7,3,2,248,6,NA
fcp-trial,284,1593030,0.0-259.0-0.0,voc_e2,11945,"[{""event"":""fullscreenenter"",""trial"":1,""time"":3724}]",NA,NA,NA,NA,NA,0,#D89F1C,#3386FF,0,0,1,38,1,1580,37,1,1047.7999999523163,0,1,experiment,NA,NA,0,0.9,0.1,0,1,249,6,NA
fcp-trial,285,1596244,0.0-260.0-0.0,voc_e2,11945,"[{""event"":""fullscreenenter"",""trial"":1,""time"":3724}]",NA,NA,NA,NA,NA,6,#FA92F8,#1CD855,10,0,0,40,0,1163.2999999523163,39,0,544.8999998569489,0,1,experiment,NA,NA,2,0.5,0.5,5,4,250,6,NA
fcp-trial,286,1603709,0.0-261.0-0.0,voc_e2,11945,"[{""event"":""fullscreenenter"",""trial"":1,""time"":3724}]",NA,NA,NA,NA,NA,5,#1CD855,#FA92F8,0,0,1,38,1,3758.5999999046326,37,1,2199.7999999523163,0,1,experiment,NA,NA,2,0.5,0.5,4,5,251,6,NA
fcp-trial,287,1607049,0.0-262.0-0.0,voc_e2,11945,"[{""event"":""fullscreenenter"",""trial"":1,""time"":3724}]",NA,NA,NA,NA,NA,6,#741CD8,#D8271C,0,0,1,40,0,1210,39,0,622.2999999523163,0,0,experiment,NA,NA,1,0.7,0.3,2,3,252,6,NA
fcp-trial,288,1610936,0.0-263.0-0.0,voc_e2,11945,"[{""event"":""fullscreenenter"",""trial"":1,""time"":3724}]",NA,NA,NA,NA,NA,5,#741CD8,#D8271C,10,0,1,40,0,1688.7999999523163,39,0,691.5,0,0,experiment,NA,NA,1,0.7,0.3,2,3,253,6,NA
fcp-trial,289,1615059,0.0-264.0-0.0,voc_e2,11945,"[{""event"":""fullscreenenter"",""trial"":1,""time"":3724}]",NA,NA,NA,NA,NA,6,#3386FF,#D89F1C,0,10,0,40,0,1780,39,0,839.1000001430511,10,1,experiment,NA,NA,0,0.1,0.9,1,0,254,6,NA
fcp-trial,290,1619697,0.0-265.0-0.0,voc_e2,11945,"[{""event"":""fullscreenenter"",""trial"":1,""time"":3724}]",NA,NA,NA,NA,NA,3,#1CD855,#FA92F8,0,0,1,38,1,1736,39,0,1395.5,0,0,experiment,NA,NA,2,0.5,0.5,4,5,255,6,NA
fcp-trial,291,1622856,0.0-266.0-0.0,voc_e2,11945,"[{""event"":""fullscreenenter"",""trial"":1,""time"":3724}]",NA,NA,NA,NA,NA,4,#741CD8,#D8271C,10,0,1,38,1,1239.2000000476837,37,1,410.90000009536743,10,1,experiment,NA,NA,1,0.7,0.3,2,3,256,6,NA
fcp-trial,292,1627434,0.0-267.0-0.0,voc_e2,11945,"[{""event"":""fullscreenenter"",""trial"":1,""time"":3724}]",NA,NA,NA,NA,NA,1,#FA92F8,#1CD855,10,10,0,38,1,2562.100000143051,37,1,508.2000000476837,10,0,experiment,NA,NA,2,0.5,0.5,5,4,257,6,NA
fcp-trial,293,1630982,0.0-268.0-0.0,voc_e2,11945,"[{""event"":""fullscreenenter"",""trial"":1,""time"":3724}]",NA,NA,NA,NA,NA,2,#D89F1C,#3386FF,10,0,1,38,1,1450.5,37,1,591.8000001907349,10,1,experiment,NA,NA,0,0.9,0.1,0,1,258,6,NA
fcp-trial,294,1634910,0.0-269.0-0.0,voc_e2,11945,"[{""event"":""fullscreenenter"",""trial"":1,""time"":3724}]",NA,NA,NA,NA,NA,4,#1CD855,#FA92F8,0,10,1,38,1,1597.5999999046326,39,0,825.6000001430511,10,0,experiment,NA,NA,2,0.5,0.5,4,5,259,6,NA
fcp-trial,295,1637868,0.0-270.0-0.0,voc_e2,11945,"[{""event"":""fullscreenenter"",""trial"":1,""time"":3724}]",NA,NA,NA,NA,NA,1,#D8271C,#741CD8,0,10,0,38,1,861.2999999523163,39,0,591,10,1,experiment,NA,NA,1,0.3,0.7,3,2,260,6,NA
fcp-trial,296,1641000,0.0-271.0-0.0,voc_e2,11945,"[{""event"":""fullscreenenter"",""trial"":1,""time"":3724}]",NA,NA,NA,NA,NA,3,#D8271C,#741CD8,10,0,0,38,1,1118.7999999523163,39,0,506.90000009536743,0,1,experiment,NA,NA,1,0.3,0.7,3,2,261,6,NA
fcp-trial,297,1644861,0.0-272.0-0.0,voc_e2,11945,"[{""event"":""fullscreenenter"",""trial"":1,""time"":3724}]",NA,NA,NA,NA,NA,4,#D89F1C,#3386FF,10,0,1,40,0,1847.2999999523163,39,0,507.30000019073486,0,0,experiment,NA,NA,0,0.9,0.1,0,1,262,6,NA
fcp-trial,298,1648622,0.0-273.0-0.0,voc_e2,11945,"[{""event"":""fullscreenenter"",""trial"":1,""time"":3724}]",NA,NA,NA,NA,NA,2,#D8271C,#741CD8,0,10,0,40,0,1531.8000001907349,39,0,724,10,1,experiment,NA,NA,1,0.3,0.7,3,2,263,6,NA
fcp-trial,299,1654178,0.0-274.0-0.0,voc_e2,11945,"[{""event"":""fullscreenenter"",""trial"":1,""time"":3724}]",NA,NA,NA,NA,NA,0,#FA92F8,#1CD855,10,0,0,38,1,2882.7999999523163,39,0,1164.3000001907349,0,1,experiment,NA,NA,2,0.5,0.5,5,4,264,6,NA
fcp-trial,300,1658373,0.0-275.0-0.0,voc_e2,11945,"[{""event"":""fullscreenenter"",""trial"":1,""time"":3724}]",NA,NA,NA,NA,NA,2,#1CD855,#FA92F8,0,0,1,38,1,1932.2999999523163,39,0,756.4000000953674,0,0,experiment,NA,NA,2,0.5,0.5,4,5,265,6,NA
fcp-trial,301,1663127,0.0-276.0-0.0,voc_e2,11945,"[{""event"":""fullscreenenter"",""trial"":1,""time"":3724}]",NA,NA,NA,NA,NA,0,#3386FF,#D89F1C,0,10,0,38,1,2162.399999856949,39,0,1086,10,1,experiment,NA,NA,0,0.1,0.9,1,0,266,6,NA
fcp-trial,302,1668594,0.0-277.0-0.0,voc_e2,11945,"[{""event"":""fullscreenenter"",""trial"":1,""time"":3724}]",NA,NA,NA,NA,NA,0,#741CD8,#D8271C,0,0,1,38,1,2303,37,1,1655.7000000476837,0,1,experiment,NA,NA,1,0.7,0.3,2,3,267,6,NA
fcp-trial,303,1672067,0.0-278.0-0.0,voc_e2,11945,"[{""event"":""fullscreenenter"",""trial"":1,""time"":3724}]",NA,NA,NA,NA,NA,1,#3386FF,#D89F1C,0,10,0,40,0,1339.7000000476837,39,0,628.8999998569489,10,1,experiment,NA,NA,0,0.1,0.9,1,0,268,6,NA
fcp-trial,304,1675693,0.0-279.0-0.0,voc_e2,11945,"[{""event"":""fullscreenenter"",""trial"":1,""time"":3724}]",NA,NA,NA,NA,NA,6,#FA92F8,#1CD855,10,0,0,40,0,1499.7000000476837,37,1,618.9000000953674,10,0,experiment,NA,NA,2,0.5,0.5,5,4,269,6,NA
fcp-trial,305,1680410,0.0-280.0-0.0,voc_e2,11945,"[{""event"":""fullscreenenter"",""trial"":1,""time"":3724}]",NA,NA,NA,NA,NA,3,#3386FF,#D89F1C,0,10,0,40,0,2588.4000000953674,39,0,620.8999998569489,10,1,experiment,NA,NA,0,0.1,0.9,1,0,270,6,NA
fcp-trial,306,1684079,0.0-281.0-0.0,voc_e2,11945,"[{""event"":""fullscreenenter"",""trial"":1,""time"":3724}]",NA,NA,NA,NA,NA,5,#3386FF,#D89F1C,0,10,0,40,0,1494.7999999523163,39,0,666,10,1,experiment,NA,NA,0,0.1,0.9,1,0,271,7,NA
fcp-trial,307,1687434,0.0-282.0-0.0,voc_e2,11945,"[{""event"":""fullscreenenter"",""trial"":1,""time"":3724}]",NA,NA,NA,NA,NA,6,#741CD8,#D8271C,10,0,1,40,0,1360.6000001430511,37,1,489.2999999523163,10,1,experiment,NA,NA,1,0.7,0.3,2,3,272,7,NA
fcp-trial,308,1691364,0.0-283.0-0.0,voc_e2,11945,"[{""event"":""fullscreenenter"",""trial"":1,""time"":3724}]",NA,NA,NA,NA,NA,5,#FA92F8,#1CD855,10,0,0,40,0,1560.4000000953674,39,0,863.7000000476837,0,1,experiment,NA,NA,2,0.5,0.5,5,4,273,7,NA
fcp-trial,309,1695545,0.0-284.0-0.0,voc_e2,11945,"[{""event"":""fullscreenenter"",""trial"":1,""time"":3724}]",NA,NA,NA,NA,NA,3,#D89F1C,#3386FF,10,0,1,40,0,1848.8999998569489,37,1,828.3999998569489,10,1,experiment,NA,NA,0,0.9,0.1,0,1,274,7,NA
fcp-trial,310,1699163,0.0-285.0-0.0,voc_e2,11945,"[{""event"":""fullscreenenter"",""trial"":1,""time"":3724}]",NA,NA,NA,NA,NA,0,#1CD855,#FA92F8,10,10,1,38,1,1009.5,39,0,1102.9000000953674,10,0,experiment,NA,NA,2,0.5,0.5,4,5,275,7,NA
fcp-trial,311,1702812,0.0-286.0-0.0,voc_e2,11945,"[{""event"":""fullscreenenter"",""trial"":1,""time"":3724}]",NA,NA,NA,NA,NA,4,#D89F1C,#3386FF,10,0,1,40,0,1192.9000000953674,39,0,949.5999999046326,0,0,experiment,NA,NA,0,0.9,0.1,0,1,276,7,NA
fcp-trial,312,1707478,0.0-287.0-0.0,voc_e2,11945,"[{""event"":""fullscreenenter"",""trial"":1,""time"":3724}]",NA,NA,NA,NA,NA,4,#D8271C,#741CD8,10,10,0,40,0,2100.7000000476837,37,1,1059.5,10,0,experiment,NA,NA,1,0.3,0.7,3,2,277,7,NA
fcp-trial,313,1711108,0.0-288.0-0.0,voc_e2,11945,"[{""event"":""fullscreenenter"",""trial"":1,""time"":3724}]",NA,NA,NA,NA,NA,3,#741CD8,#D8271C,10,0,1,40,0,1430.0999999046326,37,1,694.4000000953674,10,1,experiment,NA,NA,1,0.7,0.3,2,3,278,7,NA
fcp-trial,314,1715448,0.0-289.0-0.0,voc_e2,11945,"[{""event"":""fullscreenenter"",""trial"":1,""time"":3724}]",NA,NA,NA,NA,NA,2,#3386FF,#D89F1C,10,10,0,40,0,1895.5,37,1,938.9000000953674,10,0,experiment,NA,NA,0,0.1,0.9,1,0,279,7,NA
fcp-trial,315,1718977,0.0-290.0-0.0,voc_e2,11945,"[{""event"":""fullscreenenter"",""trial"":1,""time"":3724}]",NA,NA,NA,NA,NA,4,#1CD855,#FA92F8,0,10,1,38,1,1292.0999999046326,39,0,725.7999999523163,10,0,experiment,NA,NA,2,0.5,0.5,4,5,280,7,NA
fcp-trial,316,1722328,0.0-291.0-0.0,voc_e2,11945,"[{""event"":""fullscreenenter"",""trial"":1,""time"":3724}]",NA,NA,NA,NA,NA,5,#D8271C,#741CD8,0,10,0,40,0,1374.7000000476837,39,0,466.7000000476837,10,1,experiment,NA,NA,1,0.3,0.7,3,2,281,7,NA
fcp-trial,317,1725525,0.0-292.0-0.0,voc_e2,11945,"[{""event"":""fullscreenenter"",""trial"":1,""time"":3724}]",NA,NA,NA,NA,NA,3,#FA92F8,#1CD855,0,0,0,40,0,1169.7000000476837,39,0,520.9000000953674,0,1,experiment,NA,NA,2,0.5,0.5,5,4,282,7,NA
fcp-trial,318,1729267,0.0-293.0-0.0,voc_e2,11945,"[{""event"":""fullscreenenter"",""trial"":1,""time"":3724}]",NA,NA,NA,NA,NA,0,#D89F1C,#3386FF,10,0,1,38,1,1367.9000000953674,37,1,867.9000000953674,10,1,experiment,NA,NA,0,0.9,0.1,0,1,283,7,NA
fcp-trial,319,1732378,0.0-294.0-0.0,voc_e2,11945,"[{""event"":""fullscreenenter"",""trial"":1,""time"":3724}]",NA,NA,NA,NA,NA,6,#D8271C,#741CD8,0,0,0,40,0,1012,39,0,593,0,1,experiment,NA,NA,1,0.3,0.7,3,2,284,7,NA
fcp-trial,320,1737139,0.0-295.0-0.0,voc_e2,11945,"[{""event"":""fullscreenenter"",""trial"":1,""time"":3724}]",NA,NA,NA,NA,NA,1,#D89F1C,#3386FF,10,0,1,38,1,1826.7999999523163,37,1,1428.7000000476837,10,1,experiment,NA,NA,0,0.9,0.1,0,1,285,7,NA
fcp-trial,321,1740468,0.0-296.0-0.0,voc_e2,11945,"[{""event"":""fullscreenenter"",""trial"":1,""time"":3724}]",NA,NA,NA,NA,NA,5,#FA92F8,#1CD855,0,0,0,40,0,1198.7999999523163,37,1,623.6000001430511,0,0,experiment,NA,NA,2,0.5,0.5,5,4,286,7,NA
fcp-trial,322,1743876,0.0-297.0-0.0,voc_e2,11945,"[{""event"":""fullscreenenter"",""trial"":1,""time"":3724}]",NA,NA,NA,NA,NA,1,#FA92F8,#1CD855,0,0,0,38,1,1157.7000000476837,37,1,747.2999999523163,0,0,experiment,NA,NA,2,0.5,0.5,5,4,287,7,NA
fcp-trial,323,1748745,0.0-298.0-0.0,voc_e2,11945,"[{""event"":""fullscreenenter"",""trial"":1,""time"":3724}]",NA,NA,NA,NA,NA,2,#1CD855,#FA92F8,0,0,1,38,1,2200.100000143051,39,0,1162.5,0,0,experiment,NA,NA,2,0.5,0.5,4,5,288,7,NA
fcp-trial,324,1752099,0.0-299.0-0.0,voc_e2,11945,"[{""event"":""fullscreenenter"",""trial"":1,""time"":3724}]",NA,NA,NA,NA,NA,1,#741CD8,#D8271C,0,10,1,38,1,1342.0999999046326,37,1,505.30000019073486,0,1,experiment,NA,NA,1,0.7,0.3,2,3,289,7,NA
fcp-trial,325,1755970,0.0-300.0-0.0,voc_e2,11945,"[{""event"":""fullscreenenter"",""trial"":1,""time"":3724}]",NA,NA,NA,NA,NA,5,#3386FF,#D89F1C,0,10,0,40,0,1639.5999999046326,39,0,725,10,1,experiment,NA,NA,0,0.1,0.9,1,0,290,7,NA
fcp-trial,326,1759259,0.0-301.0-0.0,voc_e2,11945,"[{""event"":""fullscreenenter"",""trial"":1,""time"":3724}]",NA,NA,NA,NA,NA,0,#741CD8,#D8271C,10,0,1,38,1,1326.7000000476837,37,1,458.2000000476837,10,1,experiment,NA,NA,1,0.7,0.3,2,3,291,7,NA
fcp-trial,327,1762965,0.0-302.0-0.0,voc_e2,11945,"[{""event"":""fullscreenenter"",""trial"":1,""time"":3724}]",NA,NA,NA,NA,NA,2,#D8271C,#741CD8,0,10,0,40,0,1541.5999999046326,37,1,656.8000001907349,0,0,experiment,NA,NA,1,0.3,0.7,3,2,292,7,NA
fcp-trial,328,1766348,0.0-303.0-0.0,voc_e2,11945,"[{""event"":""fullscreenenter"",""trial"":1,""time"":3724}]",NA,NA,NA,NA,NA,6,#FA92F8,#1CD855,10,0,0,40,0,1208,39,0,670.5999999046326,0,1,experiment,NA,NA,2,0.5,0.5,5,4,293,7,NA
fcp-trial,329,1769699,0.0-304.0-0.0,voc_e2,11945,"[{""event"":""fullscreenenter"",""trial"":1,""time"":3724}]",NA,NA,NA,NA,NA,6,#3386FF,#D89F1C,0,10,0,40,0,1324,37,1,521,0,0,experiment,NA,NA,0,0.1,0.9,1,0,294,7,NA
fcp-trial,330,1773265,0.0-305.0-0.0,voc_e2,11945,"[{""event"":""fullscreenenter"",""trial"":1,""time"":3724}]",NA,NA,NA,NA,NA,6,#FA92F8,#1CD855,0,10,0,38,1,982.4000000953674,37,1,1075,0,0,experiment,NA,NA,2,0.5,0.5,5,4,295,7,NA
fcp-trial,331,1778290,0.0-306.0-0.0,voc_e2,11945,"[{""event"":""fullscreenenter"",""trial"":1,""time"":3724}]",NA,NA,NA,NA,NA,1,#FA92F8,#1CD855,10,0,0,38,1,1783.2000000476837,37,1,1733.2000000476837,10,0,experiment,NA,NA,2,0.5,0.5,5,4,296,7,NA
fcp-trial,332,1781926,0.0-307.0-0.0,voc_e2,11945,"[{""event"":""fullscreenenter"",""trial"":1,""time"":3724}]",NA,NA,NA,NA,NA,2,#741CD8,#D8271C,10,0,1,40,0,1304.8000001907349,39,0,824.3999998569489,0,0,experiment,NA,NA,1,0.7,0.3,2,3,297,7,NA
fcp-trial,333,1786354,0.0-308.0-0.0,voc_e2,11945,"[{""event"":""fullscreenenter"",""trial"":1,""time"":3724}]",NA,NA,NA,NA,NA,0,#741CD8,#D8271C,10,0,1,38,1,1354.4000000953674,37,1,1564.6000001430511,10,1,experiment,NA,NA,1,0.7,0.3,2,3,298,7,NA
fcp-trial,334,1791744,0.0-309.0-0.0,voc_e2,11945,"[{""event"":""fullscreenenter"",""trial"":1,""time"":3724}]",NA,NA,NA,NA,NA,6,#D89F1C,#3386FF,10,0,1,40,0,1874.5999999046326,37,1,2008.2000000476837,10,1,experiment,NA,NA,0,0.9,0.1,0,1,299,7,NA
fcp-trial,335,1795335,0.0-310.0-0.0,voc_e2,11945,"[{""event"":""fullscreenenter"",""trial"":1,""time"":3724}]",NA,NA,NA,NA,NA,3,#1CD855,#FA92F8,10,10,1,38,1,823.5,37,1,1261,10,1,experiment,NA,NA,2,0.5,0.5,4,5,300,7,NA
fcp-trial,336,1799089,0.0-311.0-0.0,voc_e2,11945,"[{""event"":""fullscreenenter"",""trial"":1,""time"":3724}]",NA,NA,NA,NA,NA,4,#741CD8,#D8271C,10,10,1,40,0,1281.2000000476837,39,0,965.5,10,0,experiment,NA,NA,1,0.7,0.3,2,3,301,7,NA
fcp-trial,337,1802900,0.0-312.0-0.0,voc_e2,11945,"[{""event"":""fullscreenenter"",""trial"":1,""time"":3724}]",NA,NA,NA,NA,NA,0,#D89F1C,#3386FF,10,0,1,38,1,918.2999999523163,37,1,1387.7999999523163,10,1,experiment,NA,NA,0,0.9,0.1,0,1,302,7,NA
fcp-trial,338,1806722,0.0-313.0-0.0,voc_e2,11945,"[{""event"":""fullscreenenter"",""trial"":1,""time"":3724}]",NA,NA,NA,NA,NA,0,#1CD855,#FA92F8,0,10,1,38,1,1605.7000000476837,39,0,710.5,10,0,experiment,NA,NA,2,0.5,0.5,4,5,303,7,NA
fcp-trial,339,1810354,0.0-314.0-0.0,voc_e2,11945,"[{""event"":""fullscreenenter"",""trial"":1,""time"":3724}]",NA,NA,NA,NA,NA,5,#741CD8,#D8271C,10,10,1,40,0,1069.2999999523163,39,0,1056.5,10,0,experiment,NA,NA,1,0.7,0.3,2,3,304,7,NA
fcp-trial,340,1814085,0.0-315.0-0.0,voc_e2,11945,"[{""event"":""fullscreenenter"",""trial"":1,""time"":3724}]",NA,NA,NA,NA,NA,2,#3386FF,#D89F1C,0,10,0,38,1,1376.7000000476837,37,1,848.7000000476837,0,0,experiment,NA,NA,0,0.1,0.9,1,0,305,7,NA
fcp-trial,341,1817712,0.0-316.0-0.0,voc_e2,11945,"[{""event"":""fullscreenenter"",""trial"":1,""time"":3724}]",NA,NA,NA,NA,NA,3,#D8271C,#741CD8,0,10,0,40,0,1371.2000000476837,39,0,749.7000000476837,10,1,experiment,NA,NA,1,0.3,0.7,3,2,306,7,NA
fcp-trial,342,1821523,0.0-317.0-0.0,voc_e2,11945,"[{""event"":""fullscreenenter"",""trial"":1,""time"":3724}]",NA,NA,NA,NA,NA,5,#1CD855,#FA92F8,0,0,1,38,1,787.5999999046326,39,0,1515.5999999046326,0,0,experiment,NA,NA,2,0.5,0.5,4,5,307,7,NA
fcp-trial,343,1825113,0.0-318.0-0.0,voc_e2,11945,"[{""event"":""fullscreenenter"",""trial"":1,""time"":3724}]",NA,NA,NA,NA,NA,1,#D8271C,#741CD8,10,10,0,38,1,991.3000001907349,39,0,1090.7999999523163,10,1,experiment,NA,NA,1,0.3,0.7,3,2,308,7,NA
fcp-trial,344,1828324,0.0-319.0-0.0,voc_e2,11945,"[{""event"":""fullscreenenter"",""trial"":1,""time"":3724}]",NA,NA,NA,NA,NA,3,#3386FF,#D89F1C,0,10,0,40,0,1077.9000000953674,37,1,626.2000000476837,0,0,experiment,NA,NA,0,0.1,0.9,1,0,309,7,NA
fcp-trial,345,1833576,0.0-320.0-0.0,voc_e2,11945,"[{""event"":""fullscreenenter"",""trial"":1,""time"":3724}]",NA,NA,NA,NA,NA,5,#3386FF,#D89F1C,0,10,0,40,0,1759.0999999046326,39,0,1988.0999999046326,10,1,experiment,NA,NA,0,0.1,0.9,1,0,310,7,NA
fcp-trial,346,1836834,0.0-321.0-0.0,voc_e2,11945,"[{""event"":""fullscreenenter"",""trial"":1,""time"":3724}]",NA,NA,NA,NA,NA,4,#D89F1C,#3386FF,10,0,1,38,1,19.700000047683716,39,0,1729.1999998092651,0,0,experiment,NA,NA,0,0.9,0.1,0,1,311,7,NA
fcp-trial,347,1840300,0.0-322.0-0.0,voc_e2,11945,"[{""event"":""fullscreenenter"",""trial"":1,""time"":3724}]",NA,NA,NA,NA,NA,2,#1CD855,#FA92F8,0,0,1,40,0,1170,39,0,790.2999999523163,0,0,experiment,NA,NA,2,0.5,0.5,4,5,312,7,NA
fcp-trial,348,1843615,0.0-323.0-0.0,voc_e2,11945,"[{""event"":""fullscreenenter"",""trial"":1,""time"":3724}]",NA,NA,NA,NA,NA,6,#741CD8,#D8271C,10,0,1,40,0,1197,39,0,610.8000001907349,0,0,experiment,NA,NA,1,0.7,0.3,2,3,313,7,NA
fcp-trial,349,1847652,0.0-324.0-0.0,voc_e2,11945,"[{""event"":""fullscreenenter"",""trial"":1,""time"":3724}]",NA,NA,NA,NA,NA,1,#D89F1C,#3386FF,10,10,1,38,1,1629.5999999046326,37,1,901.7000000476837,10,1,experiment,NA,NA,0,0.9,0.1,0,1,314,7,NA
fcp-trial,350,1853584,0.0-325.0-0.0,voc_e2,11945,"[{""event"":""fullscreenenter"",""trial"":1,""time"":3724}]",NA,NA,NA,NA,NA,4,#1CD855,#FA92F8,10,10,1,38,1,2623.899999856949,39,0,1803.5,10,0,experiment,NA,NA,2,0.5,0.5,4,5,315,7,NA
audio-instructions,351,1864800,0.0-326.0,voc_e2,11945,"[{""event"":""fullscreenenter"",""trial"":1,""time"":3724}]",NA,5228.099999904633,static/audio/finished.wav,NA,0,NA,NA,NA,NA,NA,NA,NA,NA,NA,NA,NA,NA,NA,NA,NA,NA,NA,NA,NA,NA,NA,NA,NA,NA,NA
audio-instructions,352,1883012,0.0-327.0-0.0,voc_e2,11945,"[{""event"":""fullscreenenter"",""trial"":1,""time"":3724}]",NA,7370.799999952316,static/audio/explicit1.wav,NA,0,NA,NA,NA,NA,NA,NA,NA,NA,NA,NA,NA,NA,NA,NA,NA,NA,NA,NA,NA,NA,NA,NA,NA,NA,NA
audio-instructions,353,1892451,0.0-327.0-1.0,voc_e2,11945,"[{""event"":""fullscreenenter"",""trial"":1,""time"":3724}]",NA,1840.7000000476835,static/audio/explicit2.wav,NA,0,NA,NA,NA,NA,NA,NA,NA,NA,NA,NA,NA,NA,NA,NA,NA,NA,NA,NA,NA,NA,NA,NA,NA,NA,NA
image-slider-response,354,1898838,0.0-328.0,voc_e2,11945,"[{""event"":""fullscreenenter"",""trial"":1,""time"":3724}]",NA,6384.5,static/img/machines/machine1.png,NA,NA,NA,NA,NA,NA,NA,NA,NA,NA,NA,NA,NA,NA,NA,NA,explicit,NA,NA,NA,NA,NA,NA,NA,NA,NA,3
image-slider-response,355,1903897,0.0-329.0,voc_e2,11945,"[{""event"":""fullscreenenter"",""trial"":1,""time"":3724}]",NA,5056.799999952316,static/img/machines/machine2.png,NA,NA,NA,NA,NA,NA,NA,NA,NA,NA,NA,NA,NA,NA,NA,NA,explicit,NA,NA,NA,NA,NA,NA,NA,NA,NA,8
image-slider-response,356,1909427,0.0-330.0,voc_e2,11945,"[{""event"":""fullscreenenter"",""trial"":1,""time"":3724}]",NA,5528.400000095367,static/img/machines/machine6.png,NA,NA,NA,NA,NA,NA,NA,NA,NA,NA,NA,NA,NA,NA,NA,NA,explicit,NA,NA,NA,NA,NA,NA,NA,NA,NA,4
image-slider-response,357,1913081,0.0-331.0,voc_e2,11945,"[{""event"":""fullscreenenter"",""trial"":1,""time"":3724}]",NA,3652.099999904633,static/img/machines/machine5.png,NA,NA,NA,NA,NA,NA,NA,NA,NA,NA,NA,NA,NA,NA,NA,NA,explicit,NA,NA,NA,NA,NA,NA,NA,NA,NA,6
image-slider-response,358,1922317,0.0-332.0,voc_e2,11945,"[{""event"":""fullscreenenter"",""trial"":1,""time"":3724}]",NA,9235,static/img/machines/machine4.png,NA,NA,NA,NA,NA,NA,NA,NA,NA,NA,NA,NA,NA,NA,NA,NA,explicit,NA,NA,NA,NA,NA,NA,NA,NA,NA,8
image-slider-response,359,1926355,0.0-333.0,voc_e2,11945,"[{""event"":""fullscreenenter"",""trial"":1,""time"":3724}]",NA,4036.5,static/img/machines/machine3.png,NA,NA,NA,NA,NA,NA,NA,NA,NA,NA,NA,NA,NA,NA,NA,NA,explicit,NA,NA,NA,NA,NA,NA,NA,NA,NA,4
