trial_type,trial_index,time_elapsed,internal_node_id,task_version,subject_id,interactions,success,rt,stimulus,key_press,button_pressed,offer,arcade_color_L,arcade_color_R,arcade_outcome_L,arcade_outcome_R,correct,stage_1_key,stage_1_choice,stage_1_rt,stage_2_key,stage_2_choice,stage_2_rt,stage_3_outcome,accuracy,phase,responses,num_errors,context,reward_prob_L,reward_prob_R,arcade_id_L,arcade_id_R,trial,block,response
pavlovia,0,10,0.0-0.0,voc_e2,11895,"[{""event"":""blur"",""trial"":0,""time"":0},{""event"":""focus"",""trial"":0,""time"":0}]",NA,NA,NA,NA,NA,NA,NA,NA,NA,NA,NA,NA,NA,NA,NA,NA,NA,NA,NA,NA,NA,NA,NA,NA,NA,NA,NA,NA,NA,NA
fullscreen,1,2682,0.0-1.0,voc_e2,11895,"[{""event"":""blur"",""trial"":0,""time"":0},{""event"":""focus"",""trial"":0,""time"":0},{""event"":""fullscreenenter"",""trial"":1,""time"":1695}]",TRUE,NA,NA,NA,NA,NA,NA,NA,NA,NA,NA,NA,NA,NA,NA,NA,NA,NA,NA,NA,NA,NA,NA,NA,NA,NA,NA,NA,NA,NA
audio-keyboard-response,2,5464,0.0-2.0,voc_e2,11895,"[{""event"":""blur"",""trial"":0,""time"":0},{""event"":""focus"",""trial"":0,""time"":0},{""event"":""fullscreenenter"",""trial"":1,""time"":1695}]",NA,2389,static/audio/beep_loop.wav,32,NA,NA,NA,NA,NA,NA,NA,NA,NA,NA,NA,NA,NA,NA,NA,NA,NA,NA,NA,NA,NA,NA,NA,NA,NA,NA
audio-test,3,6964,0.0-3.0,voc_e2,11895,"[{""event"":""blur"",""trial"":0,""time"":0},{""event"":""focus"",""trial"":0,""time"":0},{""event"":""fullscreenenter"",""trial"":1,""time"":1695}]",NA,NA,static/audio/turtle.wav,NA,3,NA,NA,NA,NA,NA,NA,NA,NA,NA,NA,NA,NA,NA,NA,NA,NA,NA,NA,NA,NA,NA,NA,NA,NA,NA
audio-test,4,9165,0.0-4.0,voc_e2,11895,"[{""event"":""blur"",""trial"":0,""time"":0},{""event"":""focus"",""trial"":0,""time"":0},{""event"":""fullscreenenter"",""trial"":1,""time"":1695}]",NA,NA,static/audio/shark.wav,NA,2,NA,NA,NA,NA,NA,NA,NA,NA,NA,NA,NA,NA,NA,NA,NA,NA,NA,NA,NA,NA,NA,NA,NA,NA,NA
audio-instructions,5,16069,0.0-5.0-0.0,voc_e2,11895,"[{""event"":""blur"",""trial"":0,""time"":0},{""event"":""focus"",""trial"":0,""time"":0},{""event"":""fullscreenenter"",""trial"":1,""time"":1695}]",NA,1115.600000023842,static/audio/instructions1.wav,NA,0,NA,NA,NA,NA,NA,NA,NA,NA,NA,NA,NA,NA,NA,NA,NA,NA,NA,NA,NA,NA,NA,NA,NA,NA,NA
audio-instructions,6,25089,0.0-5.0-1.0,voc_e2,11895,"[{""event"":""blur"",""trial"":0,""time"":0},{""event"":""focus"",""trial"":0,""time"":0},{""event"":""fullscreenenter"",""trial"":1,""time"":1695}]",NA,2275.2999999523163,static/audio/instructions2.wav,NA,0,NA,NA,NA,NA,NA,NA,NA,NA,NA,NA,NA,NA,NA,NA,NA,NA,NA,NA,NA,NA,NA,NA,NA,NA,NA
audio-instructions,7,35219,0.0-5.0-2.0,voc_e2,11895,"[{""event"":""blur"",""trial"":0,""time"":0},{""event"":""focus"",""trial"":0,""time"":0},{""event"":""fullscreenenter"",""trial"":1,""time"":1695}]",NA,4320,static/audio/instructions3.wav,NA,0,NA,NA,NA,NA,NA,NA,NA,NA,NA,NA,NA,NA,NA,NA,NA,NA,NA,NA,NA,NA,NA,NA,NA,NA,NA
audio-instructions,8,51134,0.0-5.0-3.0,voc_e2,11895,"[{""event"":""blur"",""trial"":0,""time"":0},{""event"":""focus"",""trial"":0,""time"":0},{""event"":""fullscreenenter"",""trial"":1,""time"":1695}]",NA,2685.099999964237,static/audio/instructions4.wav,NA,0,NA,NA,NA,NA,NA,NA,NA,NA,NA,NA,NA,NA,NA,NA,NA,NA,NA,NA,NA,NA,NA,NA,NA,NA,NA
audio-instructions,9,61659,0.0-5.0-4.0,voc_e2,11895,"[{""event"":""blur"",""trial"":0,""time"":0},{""event"":""focus"",""trial"":0,""time"":0},{""event"":""fullscreenenter"",""trial"":1,""time"":1695}]",NA,1135.0999999642372,static/audio/instructions5.wav,NA,0,NA,NA,NA,NA,NA,NA,NA,NA,NA,NA,NA,NA,NA,NA,NA,NA,NA,NA,NA,NA,NA,NA,NA,NA,NA
fcp-practice,10,64557,0.0-5.0-5.0-0.0,voc_e2,11895,"[{""event"":""blur"",""trial"":0,""time"":0},{""event"":""focus"",""trial"":0,""time"":0},{""event"":""fullscreenenter"",""trial"":1,""time"":1695}]",NA,NA,NA,NA,NA,NA,#EDC948,#46d3c8,10,0,1,null,null,null,37,1,1378,10,1,practice,NA,NA,NA,NA,NA,NA,NA,NA,NA,NA
fcp-practice,11,66549,0.0-5.0-5.0-1.0,voc_e2,11895,"[{""event"":""blur"",""trial"":0,""time"":0},{""event"":""focus"",""trial"":0,""time"":0},{""event"":""fullscreenenter"",""trial"":1,""time"":1695}]",NA,NA,NA,NA,NA,NA,#EDC948,#46d3c8,10,0,1,null,null,null,37,1,485,10,1,practice,NA,NA,NA,NA,NA,NA,NA,NA,NA,NA
fcp-practice,12,68516,0.0-5.0-5.0-2.0,voc_e2,11895,"[{""event"":""blur"",""trial"":0,""time"":0},{""event"":""focus"",""trial"":0,""time"":0},{""event"":""fullscreenenter"",""trial"":1,""time"":1695}]",NA,NA,NA,NA,NA,NA,#EDC948,#46d3c8,0,10,1,null,null,null,37,1,455.4000000357628,0,1,practice,NA,NA,NA,NA,NA,NA,NA,NA,NA,NA
fcp-practice,13,70566,0.0-5.0-5.0-3.0,voc_e2,11895,"[{""event"":""blur"",""trial"":0,""time"":0},{""event"":""focus"",""trial"":0,""time"":0},{""event"":""fullscreenenter"",""trial"":1,""time"":1695}]",NA,NA,NA,NA,NA,NA,#EDC948,#46d3c8,10,0,1,null,null,null,37,1,543.6999999880791,10,1,practice,NA,NA,NA,NA,NA,NA,NA,NA,NA,NA
fcp-practice,14,72546,0.0-5.0-5.0-4.0,voc_e2,11895,"[{""event"":""blur"",""trial"":0,""time"":0},{""event"":""focus"",""trial"":0,""time"":0},{""event"":""fullscreenenter"",""trial"":1,""time"":1695}]",NA,NA,NA,NA,NA,NA,#EDC948,#46d3c8,10,0,1,null,null,null,37,1,474.39999997615814,10,1,practice,NA,NA,NA,NA,NA,NA,NA,NA,NA,NA
audio-instructions,15,93567,0.0-5.0-6.0,voc_e2,11895,"[{""event"":""blur"",""trial"":0,""time"":0},{""event"":""focus"",""trial"":0,""time"":0},{""event"":""fullscreenenter"",""trial"":1,""time"":1695}]",NA,3012.600000023842,static/audio/instructions6.wav,NA,0,NA,NA,NA,NA,NA,NA,NA,NA,NA,NA,NA,NA,NA,NA,NA,NA,NA,NA,NA,NA,NA,NA,NA,NA,NA
audio-instructions,16,113795,0.0-5.0-7.0,voc_e2,11895,"[{""event"":""blur"",""trial"":0,""time"":0},{""event"":""focus"",""trial"":0,""time"":0},{""event"":""fullscreenenter"",""trial"":1,""time"":1695}]",NA,1010.3000000119208,static/audio/instructions7.wav,NA,0,NA,NA,NA,NA,NA,NA,NA,NA,NA,NA,NA,NA,NA,NA,NA,NA,NA,NA,NA,NA,NA,NA,NA,NA,NA
audio-instructions,17,124250,0.0-5.0-8.0,voc_e2,11895,"[{""event"":""blur"",""trial"":0,""time"":0},{""event"":""focus"",""trial"":0,""time"":0},{""event"":""fullscreenenter"",""trial"":1,""time"":1695}]",NA,851.3999999761581,static/audio/instructions8.wav,NA,0,NA,NA,NA,NA,NA,NA,NA,NA,NA,NA,NA,NA,NA,NA,NA,NA,NA,NA,NA,NA,NA,NA,NA,NA,NA
fcp-comprehension,18,129592,0.0-5.0-9.0,voc_e2,11895,"[{""event"":""blur"",""trial"":0,""time"":0},{""event"":""focus"",""trial"":0,""time"":0},{""event"":""fullscreenenter"",""trial"":1,""time"":1695}]",NA,5339.299999952316,NA,NA,NA,NA,NA,NA,NA,NA,NA,NA,NA,NA,NA,NA,NA,NA,NA,NA,"false,true",1,NA,NA,NA,NA,NA,NA,NA,NA
audio-instructions,19,135058,0.0-5.1-0.1,voc_e2,11895,"[{""event"":""blur"",""trial"":0,""time"":0},{""event"":""focus"",""trial"":0,""time"":0},{""event"":""fullscreenenter"",""trial"":1,""time"":1695}]",NA,680.8999999761581,static/audio/instructions1.wav,NA,0,NA,NA,NA,NA,NA,NA,NA,NA,NA,NA,NA,NA,NA,NA,NA,NA,NA,NA,NA,NA,NA,NA,NA,NA,NA
audio-instructions,20,142608,0.0-5.1-1.1,voc_e2,11895,"[{""event"":""blur"",""trial"":0,""time"":0},{""event"":""focus"",""trial"":0,""time"":0},{""event"":""fullscreenenter"",""trial"":1,""time"":1695}]",NA,809.8999999761581,static/audio/instructions2.wav,NA,0,NA,NA,NA,NA,NA,NA,NA,NA,NA,NA,NA,NA,NA,NA,NA,NA,NA,NA,NA,NA,NA,NA,NA,NA,NA
audio-instructions,21,150131,0.0-5.1-2.1,voc_e2,11895,"[{""event"":""blur"",""trial"":0,""time"":0},{""event"":""focus"",""trial"":0,""time"":0},{""event"":""fullscreenenter"",""trial"":1,""time"":1695}]",NA,1719,static/audio/instructions3.wav,NA,0,NA,NA,NA,NA,NA,NA,NA,NA,NA,NA,NA,NA,NA,NA,NA,NA,NA,NA,NA,NA,NA,NA,NA,NA,NA
audio-instructions,22,175722,0.0-5.1-3.1,voc_e2,11895,"[{""event"":""blur"",""trial"":0,""time"":0},{""event"":""focus"",""trial"":0,""time"":0},{""event"":""fullscreenenter"",""trial"":1,""time"":1695}]",NA,12367.600000023842,static/audio/instructions4.wav,NA,0,NA,NA,NA,NA,NA,NA,NA,NA,NA,NA,NA,NA,NA,NA,NA,NA,NA,NA,NA,NA,NA,NA,NA,NA,NA
audio-instructions,23,186239,0.0-5.1-4.1,voc_e2,11895,"[{""event"":""blur"",""trial"":0,""time"":0},{""event"":""focus"",""trial"":0,""time"":0},{""event"":""fullscreenenter"",""trial"":1,""time"":1695}]",NA,1131.5,static/audio/instructions5.wav,NA,0,NA,NA,NA,NA,NA,NA,NA,NA,NA,NA,NA,NA,NA,NA,NA,NA,NA,NA,NA,NA,NA,NA,NA,NA,NA
fcp-practice,24,188894,0.0-5.1-5.1-0.1,voc_e2,11895,"[{""event"":""blur"",""trial"":0,""time"":0},{""event"":""focus"",""trial"":0,""time"":0},{""event"":""fullscreenenter"",""trial"":1,""time"":1695}]",NA,NA,NA,NA,NA,NA,#EDC948,#46d3c8,10,0,1,null,null,null,37,1,1146.100000023842,10,1,practice,NA,NA,NA,NA,NA,NA,NA,NA,NA,NA
fcp-practice,25,190856,0.0-5.1-5.1-1.1,voc_e2,11895,"[{""event"":""blur"",""trial"":0,""time"":0},{""event"":""focus"",""trial"":0,""time"":0},{""event"":""fullscreenenter"",""trial"":1,""time"":1695}]",NA,NA,NA,NA,NA,NA,#EDC948,#46d3c8,10,0,1,null,null,null,37,1,457.39999997615814,10,1,practice,NA,NA,NA,NA,NA,NA,NA,NA,NA,NA
fcp-practice,26,192928,0.0-5.1-5.1-2.1,voc_e2,11895,"[{""event"":""blur"",""trial"":0,""time"":0},{""event"":""focus"",""trial"":0,""time"":0},{""event"":""fullscreenenter"",""trial"":1,""time"":1695}]",NA,NA,NA,NA,NA,NA,#EDC948,#46d3c8,0,10,1,null,null,null,37,1,563,0,1,practice,NA,NA,NA,NA,NA,NA,NA,NA,NA,NA
fcp-practice,27,194643,0.0-5.1-5.1-3.1,voc_e2,11895,"[{""event"":""blur"",""trial"":0,""time"":0},{""event"":""focus"",""trial"":0,""time"":0},{""event"":""fullscreenenter"",""trial"":1,""time"":1695}]",NA,NA,NA,NA,NA,NA,#EDC948,#46d3c8,10,0,1,null,null,null,37,1,203.19999998807907,10,1,practice,NA,NA,NA,NA,NA,NA,NA,NA,NA,NA
fcp-practice,28,196451,0.0-5.1-5.1-4.1,voc_e2,11895,"[{""event"":""blur"",""trial"":0,""time"":0},{""event"":""focus"",""trial"":0,""time"":0},{""event"":""fullscreenenter"",""trial"":1,""time"":1695}]",NA,NA,NA,NA,NA,NA,#EDC948,#46d3c8,10,0,1,null,null,null,37,1,296.30000001192093,10,1,practice,NA,NA,NA,NA,NA,NA,NA,NA,NA,NA
audio-instructions,29,224312,0.0-5.1-6.1,voc_e2,11895,"[{""event"":""blur"",""trial"":0,""time"":0},{""event"":""focus"",""trial"":0,""time"":0},{""event"":""fullscreenenter"",""trial"":1,""time"":1695}]",NA,9855.5,static/audio/instructions6.wav,NA,0,NA,NA,NA,NA,NA,NA,NA,NA,NA,NA,NA,NA,NA,NA,NA,NA,NA,NA,NA,NA,NA,NA,NA,NA,NA
audio-instructions,30,244352,0.0-5.1-7.1,voc_e2,11895,"[{""event"":""blur"",""trial"":0,""time"":0},{""event"":""focus"",""trial"":0,""time"":0},{""event"":""fullscreenenter"",""trial"":1,""time"":1695}]",NA,840.6000000238419,static/audio/instructions7.wav,NA,0,NA,NA,NA,NA,NA,NA,NA,NA,NA,NA,NA,NA,NA,NA,NA,NA,NA,NA,NA,NA,NA,NA,NA,NA,NA
audio-instructions,31,260203,0.0-5.1-8.1,voc_e2,11895,"[{""event"":""blur"",""trial"":0,""time"":0},{""event"":""focus"",""trial"":0,""time"":0},{""event"":""fullscreenenter"",""trial"":1,""time"":1695}]",NA,6377,static/audio/instructions8.wav,NA,0,NA,NA,NA,NA,NA,NA,NA,NA,NA,NA,NA,NA,NA,NA,NA,NA,NA,NA,NA,NA,NA,NA,NA,NA,NA
fcp-comprehension,32,271628,0.0-5.1-9.1,voc_e2,11895,"[{""event"":""blur"",""trial"":0,""time"":0},{""event"":""focus"",""trial"":0,""time"":0},{""event"":""fullscreenenter"",""trial"":1,""time"":1695}]",NA,11422.400000035765,NA,NA,NA,NA,NA,NA,NA,NA,NA,NA,NA,NA,NA,NA,NA,NA,NA,NA,"false,true",1,NA,NA,NA,NA,NA,NA,NA,NA
audio-instructions,33,281776,0.0-5.2-0.2,voc_e2,11895,"[{""event"":""blur"",""trial"":0,""time"":0},{""event"":""focus"",""trial"":0,""time"":0},{""event"":""fullscreenenter"",""trial"":1,""time"":1695}]",NA,5364.899999976158,static/audio/instructions1.wav,NA,0,NA,NA,NA,NA,NA,NA,NA,NA,NA,NA,NA,NA,NA,NA,NA,NA,NA,NA,NA,NA,NA,NA,NA,NA,NA
audio-instructions,34,291103,0.0-5.2-1.2,voc_e2,11895,"[{""event"":""blur"",""trial"":0,""time"":0},{""event"":""focus"",""trial"":0,""time"":0},{""event"":""fullscreenenter"",""trial"":1,""time"":1695}]",NA,2586.199999988079,static/audio/instructions2.wav,NA,0,NA,NA,NA,NA,NA,NA,NA,NA,NA,NA,NA,NA,NA,NA,NA,NA,NA,NA,NA,NA,NA,NA,NA,NA,NA
audio-instructions,35,307601,0.0-5.2-2.2,voc_e2,11895,"[{""event"":""blur"",""trial"":0,""time"":0},{""event"":""focus"",""trial"":0,""time"":0},{""event"":""fullscreenenter"",""trial"":1,""time"":1695},{""event"":""fullscreenexit"",""trial"":35,""time"":292531},{""event"":""blur"",""trial"":35,""time"":296199},{""event"":""focus"",""trial"":35,""time"":306283}]",NA,10694,static/audio/instructions3.wav,NA,0,NA,NA,NA,NA,NA,NA,NA,NA,NA,NA,NA,NA,NA,NA,NA,NA,NA,NA,NA,NA,NA,NA,NA,NA,NA
audio-instructions,36,322172,0.0-5.2-3.2,voc_e2,11895,"[{""event"":""blur"",""trial"":0,""time"":0},{""event"":""focus"",""trial"":0,""time"":0},{""event"":""fullscreenenter"",""trial"":1,""time"":1695},{""event"":""fullscreenexit"",""trial"":35,""time"":292531},{""event"":""blur"",""trial"":35,""time"":296199},{""event"":""focus"",""trial"":35,""time"":306283}]",NA,1340.399999976158,static/audio/instructions4.wav,NA,0,NA,NA,NA,NA,NA,NA,NA,NA,NA,NA,NA,NA,NA,NA,NA,NA,NA,NA,NA,NA,NA,NA,NA,NA,NA
audio-instructions,37,333658,0.0-5.2-4.2,voc_e2,11895,"[{""event"":""blur"",""trial"":0,""time"":0},{""event"":""focus"",""trial"":0,""time"":0},{""event"":""fullscreenenter"",""trial"":1,""time"":1695},{""event"":""fullscreenexit"",""trial"":35,""time"":292531},{""event"":""blur"",""trial"":35,""time"":296199},{""event"":""focus"",""trial"":35,""time"":306283}]",NA,2096.399999976158,static/audio/instructions5.wav,NA,0,NA,NA,NA,NA,NA,NA,NA,NA,NA,NA,NA,NA,NA,NA,NA,NA,NA,NA,NA,NA,NA,NA,NA,NA,NA
fcp-practice,38,344594,0.0-5.2-5.2-0.2,voc_e2,11895,"[{""event"":""blur"",""trial"":0,""time"":0},{""event"":""focus"",""trial"":0,""time"":0},{""event"":""fullscreenenter"",""trial"":1,""time"":1695},{""event"":""fullscreenexit"",""trial"":35,""time"":292531},{""event"":""blur"",""trial"":35,""time"":296199},{""event"":""focus"",""trial"":35,""time"":306283}]",NA,NA,NA,NA,NA,NA,#EDC948,#46d3c8,10,0,1,null,null,null,37,1,9423.700000047684,10,1,practice,NA,NA,NA,NA,NA,NA,NA,NA,NA,NA
fcp-practice,39,347511,0.0-5.2-5.2-1.2,voc_e2,11895,"[{""event"":""blur"",""trial"":0,""time"":0},{""event"":""focus"",""trial"":0,""time"":0},{""event"":""fullscreenenter"",""trial"":1,""time"":1695},{""event"":""fullscreenexit"",""trial"":35,""time"":292531},{""event"":""blur"",""trial"":35,""time"":296199},{""event"":""focus"",""trial"":35,""time"":306283}]",NA,NA,NA,NA,NA,NA,#EDC948,#46d3c8,10,0,1,null,null,null,37,1,1409.100000023842,10,1,practice,NA,NA,NA,NA,NA,NA,NA,NA,NA,NA
fcp-practice,40,349594,0.0-5.2-5.2-2.2,voc_e2,11895,"[{""event"":""blur"",""trial"":0,""time"":0},{""event"":""focus"",""trial"":0,""time"":0},{""event"":""fullscreenenter"",""trial"":1,""time"":1695},{""event"":""fullscreenexit"",""trial"":35,""time"":292531},{""event"":""blur"",""trial"":35,""time"":296199},{""event"":""focus"",""trial"":35,""time"":306283}]",NA,NA,NA,NA,NA,NA,#EDC948,#46d3c8,0,10,1,null,null,null,37,1,576.0999999642372,0,1,practice,NA,NA,NA,NA,NA,NA,NA,NA,NA,NA
fcp-practice,41,352517,0.0-5.2-5.2-3.2,voc_e2,11895,"[{""event"":""blur"",""trial"":0,""time"":0},{""event"":""focus"",""trial"":0,""time"":0},{""event"":""fullscreenenter"",""trial"":1,""time"":1695},{""event"":""fullscreenexit"",""trial"":35,""time"":292531},{""event"":""blur"",""trial"":35,""time"":296199},{""event"":""focus"",""trial"":35,""time"":306283}]",NA,NA,NA,NA,NA,NA,#EDC948,#46d3c8,10,0,1,null,null,null,37,1,1409.800000011921,10,1,practice,NA,NA,NA,NA,NA,NA,NA,NA,NA,NA
fcp-practice,42,354403,0.0-5.2-5.2-4.2,voc_e2,11895,"[{""event"":""blur"",""trial"":0,""time"":0},{""event"":""focus"",""trial"":0,""time"":0},{""event"":""fullscreenenter"",""trial"":1,""time"":1695},{""event"":""fullscreenexit"",""trial"":35,""time"":292531},{""event"":""blur"",""trial"":35,""time"":296199},{""event"":""focus"",""trial"":35,""time"":306283}]",NA,NA,NA,NA,NA,NA,#EDC948,#46d3c8,10,0,1,null,null,null,37,1,380.199999988079,10,1,practice,NA,NA,NA,NA,NA,NA,NA,NA,NA,NA
audio-instructions,43,384523,0.0-5.2-6.2,voc_e2,11895,"[{""event"":""blur"",""trial"":0,""time"":0},{""event"":""focus"",""trial"":0,""time"":0},{""event"":""fullscreenenter"",""trial"":1,""time"":1695},{""event"":""fullscreenexit"",""trial"":35,""time"":292531},{""event"":""blur"",""trial"":35,""time"":296199},{""event"":""focus"",""trial"":35,""time"":306283}]",NA,12115.5,static/audio/instructions6.wav,NA,0,NA,NA,NA,NA,NA,NA,NA,NA,NA,NA,NA,NA,NA,NA,NA,NA,NA,NA,NA,NA,NA,NA,NA,NA,NA
audio-instructions,44,414349,0.0-5.2-7.2,voc_e2,11895,"[{""event"":""blur"",""trial"":0,""time"":0},{""event"":""focus"",""trial"":0,""time"":0},{""event"":""fullscreenenter"",""trial"":1,""time"":1695},{""event"":""fullscreenexit"",""trial"":35,""time"":292531},{""event"":""blur"",""trial"":35,""time"":296199},{""event"":""focus"",""trial"":35,""time"":306283}]",NA,10625.900000035765,static/audio/instructions7.wav,NA,0,NA,NA,NA,NA,NA,NA,NA,NA,NA,NA,NA,NA,NA,NA,NA,NA,NA,NA,NA,NA,NA,NA,NA,NA,NA
audio-instructions,45,428420,0.0-5.2-8.2,voc_e2,11895,"[{""event"":""blur"",""trial"":0,""time"":0},{""event"":""focus"",""trial"":0,""time"":0},{""event"":""fullscreenenter"",""trial"":1,""time"":1695},{""event"":""fullscreenexit"",""trial"":35,""time"":292531},{""event"":""blur"",""trial"":35,""time"":296199},{""event"":""focus"",""trial"":35,""time"":306283}]",NA,4596.5,static/audio/instructions8.wav,NA,0,NA,NA,NA,NA,NA,NA,NA,NA,NA,NA,NA,NA,NA,NA,NA,NA,NA,NA,NA,NA,NA,NA,NA,NA,NA
fcp-comprehension,46,432569,0.0-5.2-9.2,voc_e2,11895,"[{""event"":""blur"",""trial"":0,""time"":0},{""event"":""focus"",""trial"":0,""time"":0},{""event"":""fullscreenenter"",""trial"":1,""time"":1695},{""event"":""fullscreenexit"",""trial"":35,""time"":292531},{""event"":""blur"",""trial"":35,""time"":296199},{""event"":""focus"",""trial"":35,""time"":306283}]",NA,4145.400000035763,NA,NA,NA,NA,NA,NA,NA,NA,NA,NA,NA,NA,NA,NA,NA,NA,NA,NA,"true,true",0,NA,NA,NA,NA,NA,NA,NA,NA
audio-instructions,47,440084,0.0-6.0-0.0,voc_e2,11895,"[{""event"":""blur"",""trial"":0,""time"":0},{""event"":""focus"",""trial"":0,""time"":0},{""event"":""fullscreenenter"",""trial"":1,""time"":1695},{""event"":""fullscreenexit"",""trial"":35,""time"":292531},{""event"":""blur"",""trial"":35,""time"":296199},{""event"":""focus"",""trial"":35,""time"":306283}]",NA,1968.399999976158,static/audio/instructions9.wav,NA,0,NA,NA,NA,NA,NA,NA,NA,NA,NA,NA,NA,NA,NA,NA,NA,NA,NA,NA,NA,NA,NA,NA,NA,NA,NA
audio-instructions,48,454292,0.0-6.0-1.0,voc_e2,11895,"[{""event"":""blur"",""trial"":0,""time"":0},{""event"":""focus"",""trial"":0,""time"":0},{""event"":""fullscreenenter"",""trial"":1,""time"":1695},{""event"":""fullscreenexit"",""trial"":35,""time"":292531},{""event"":""blur"",""trial"":35,""time"":296199},{""event"":""focus"",""trial"":35,""time"":306283}]",NA,2088.7000000476837,static/audio/instructions10.wav,NA,0,NA,NA,NA,NA,NA,NA,NA,NA,NA,NA,NA,NA,NA,NA,NA,NA,NA,NA,NA,NA,NA,NA,NA,NA,NA
fcp-trial,49,460445,0.0-6.0-2.0,voc_e2,11895,"[{""event"":""blur"",""trial"":0,""time"":0},{""event"":""focus"",""trial"":0,""time"":0},{""event"":""fullscreenenter"",""trial"":1,""time"":1695},{""event"":""fullscreenexit"",""trial"":35,""time"":292531},{""event"":""blur"",""trial"":35,""time"":296199},{""event"":""focus"",""trial"":35,""time"":306283}]",NA,NA,NA,NA,NA,0,#EDC948,#46d3c8,10,10,1,38,1,2759.899999976158,39,0,1866.9000000357628,10,0,practice,NA,NA,NA,NA,NA,NA,NA,NA,NA,NA
audio-instructions,50,472618,0.0-6.0-3.0,voc_e2,11895,"[{""event"":""blur"",""trial"":0,""time"":0},{""event"":""focus"",""trial"":0,""time"":0},{""event"":""fullscreenenter"",""trial"":1,""time"":1695},{""event"":""fullscreenexit"",""trial"":35,""time"":292531},{""event"":""blur"",""trial"":35,""time"":296199},{""event"":""focus"",""trial"":35,""time"":306283}]",NA,1164.399999976158,static/audio/instructions11.wav,NA,0,NA,NA,NA,NA,NA,NA,NA,NA,NA,NA,NA,NA,NA,NA,NA,NA,NA,NA,NA,NA,NA,NA,NA,NA,NA
fcp-trial,51,476989,0.0-6.0-4.0,voc_e2,11895,"[{""event"":""blur"",""trial"":0,""time"":0},{""event"":""focus"",""trial"":0,""time"":0},{""event"":""fullscreenenter"",""trial"":1,""time"":1695},{""event"":""fullscreenexit"",""trial"":35,""time"":292531},{""event"":""blur"",""trial"":35,""time"":296199},{""event"":""focus"",""trial"":35,""time"":306283}]",NA,NA,NA,NA,NA,6,#EDC948,#46d3c8,10,10,1,40,0,1762.9000000357628,37,1,1095.0999999642372,10,1,practice,NA,NA,NA,NA,NA,NA,NA,NA,NA,NA
audio-instructions,52,497741,0.0-6.0-5.0,voc_e2,11895,"[{""event"":""blur"",""trial"":0,""time"":0},{""event"":""focus"",""trial"":0,""time"":0},{""event"":""fullscreenenter"",""trial"":1,""time"":1695},{""event"":""fullscreenexit"",""trial"":35,""time"":292531},{""event"":""blur"",""trial"":35,""time"":296199},{""event"":""focus"",""trial"":35,""time"":306283}]",NA,2063.699999988079,static/audio/instructions12.wav,NA,0,NA,NA,NA,NA,NA,NA,NA,NA,NA,NA,NA,NA,NA,NA,NA,NA,NA,NA,NA,NA,NA,NA,NA,NA,NA
audio-instructions,53,506651,0.0-6.0-6.0,voc_e2,11895,"[{""event"":""blur"",""trial"":0,""time"":0},{""event"":""focus"",""trial"":0,""time"":0},{""event"":""fullscreenenter"",""trial"":1,""time"":1695},{""event"":""fullscreenexit"",""trial"":35,""time"":292531},{""event"":""blur"",""trial"":35,""time"":296199},{""event"":""focus"",""trial"":35,""time"":306283}]",NA,1316.2999999523165,static/audio/instructions13.wav,NA,0,NA,NA,NA,NA,NA,NA,NA,NA,NA,NA,NA,NA,NA,NA,NA,NA,NA,NA,NA,NA,NA,NA,NA,NA,NA
audio-instructions,54,518787,0.0-6.0-7.0,voc_e2,11895,"[{""event"":""blur"",""trial"":0,""time"":0},{""event"":""focus"",""trial"":0,""time"":0},{""event"":""fullscreenenter"",""trial"":1,""time"":1695},{""event"":""fullscreenexit"",""trial"":35,""time"":292531},{""event"":""blur"",""trial"":35,""time"":296199},{""event"":""focus"",""trial"":35,""time"":306283}]",NA,3686.699999988079,static/audio/instructions14.wav,NA,0,NA,NA,NA,NA,NA,NA,NA,NA,NA,NA,NA,NA,NA,NA,NA,NA,NA,NA,NA,NA,NA,NA,NA,NA,NA
audio-instructions,55,526731,0.0-7.0-0.0,voc_e2,11895,"[{""event"":""blur"",""trial"":0,""time"":0},{""event"":""focus"",""trial"":0,""time"":0},{""event"":""fullscreenenter"",""trial"":1,""time"":1695},{""event"":""fullscreenexit"",""trial"":35,""time"":292531},{""event"":""blur"",""trial"":35,""time"":296199},{""event"":""focus"",""trial"":35,""time"":306283}]",NA,1027.5,static/audio/instructions15.wav,NA,0,NA,NA,NA,NA,NA,NA,NA,NA,NA,NA,NA,NA,NA,NA,NA,NA,NA,NA,NA,NA,NA,NA,NA,NA,NA
audio-instructions,56,534586,0.0-7.0-1.0,voc_e2,11895,"[{""event"":""blur"",""trial"":0,""time"":0},{""event"":""focus"",""trial"":0,""time"":0},{""event"":""fullscreenenter"",""trial"":1,""time"":1695},{""event"":""fullscreenexit"",""trial"":35,""time"":292531},{""event"":""blur"",""trial"":35,""time"":296199},{""event"":""focus"",""trial"":35,""time"":306283}]",NA,1027.899999976158,static/audio/instructions16.wav,NA,0,NA,NA,NA,NA,NA,NA,NA,NA,NA,NA,NA,NA,NA,NA,NA,NA,NA,NA,NA,NA,NA,NA,NA,NA,NA
audio-instructions,57,542859,0.0-7.0-2.0,voc_e2,11895,"[{""event"":""blur"",""trial"":0,""time"":0},{""event"":""focus"",""trial"":0,""time"":0},{""event"":""fullscreenenter"",""trial"":1,""time"":1695},{""event"":""fullscreenexit"",""trial"":35,""time"":292531},{""event"":""blur"",""trial"":35,""time"":296199},{""event"":""focus"",""trial"":35,""time"":306283}]",NA,592.1999999880791,static/audio/instructions17.wav,NA,0,NA,NA,NA,NA,NA,NA,NA,NA,NA,NA,NA,NA,NA,NA,NA,NA,NA,NA,NA,NA,NA,NA,NA,NA,NA
audio-instructions,58,551455,0.0-7.0-3.0,voc_e2,11895,"[{""event"":""blur"",""trial"":0,""time"":0},{""event"":""focus"",""trial"":0,""time"":0},{""event"":""fullscreenenter"",""trial"":1,""time"":1695},{""event"":""fullscreenexit"",""trial"":35,""time"":292531},{""event"":""blur"",""trial"":35,""time"":296199},{""event"":""focus"",""trial"":35,""time"":306283}]",NA,829.8000000119209,static/audio/instructions18.wav,NA,0,NA,NA,NA,NA,NA,NA,NA,NA,NA,NA,NA,NA,NA,NA,NA,NA,NA,NA,NA,NA,NA,NA,NA,NA,NA
audio-instructions,59,559731,0.0-7.0-4.0,voc_e2,11895,"[{""event"":""blur"",""trial"":0,""time"":0},{""event"":""focus"",""trial"":0,""time"":0},{""event"":""fullscreenenter"",""trial"":1,""time"":1695},{""event"":""fullscreenexit"",""trial"":35,""time"":292531},{""event"":""blur"",""trial"":35,""time"":296199},{""event"":""focus"",""trial"":35,""time"":306283}]",NA,1529.2999999523165,static/audio/instructions19.wav,NA,0,NA,NA,NA,NA,NA,NA,NA,NA,NA,NA,NA,NA,NA,NA,NA,NA,NA,NA,NA,NA,NA,NA,NA,NA,NA
fcp-comprehension,60,569453,0.0-7.0-5.0,voc_e2,11895,"[{""event"":""blur"",""trial"":0,""time"":0},{""event"":""focus"",""trial"":0,""time"":0},{""event"":""fullscreenenter"",""trial"":1,""time"":1695},{""event"":""fullscreenexit"",""trial"":35,""time"":292531},{""event"":""blur"",""trial"":35,""time"":296199},{""event"":""focus"",""trial"":35,""time"":306283}]",NA,9719.900000035765,NA,NA,NA,NA,NA,NA,NA,NA,NA,NA,NA,NA,NA,NA,NA,NA,NA,NA,"false,false,false,true",0,NA,NA,NA,NA,NA,NA,NA,NA
audio-instructions,61,579742,0.0-8.0,voc_e2,11895,"[{""event"":""blur"",""trial"":0,""time"":0},{""event"":""focus"",""trial"":0,""time"":0},{""event"":""fullscreenenter"",""trial"":1,""time"":1695},{""event"":""fullscreenexit"",""trial"":35,""time"":292531},{""event"":""blur"",""trial"":35,""time"":296199},{""event"":""focus"",""trial"":35,""time"":306283}]",NA,1071.5999999642372,static/audio/ready.wav,NA,0,NA,NA,NA,NA,NA,NA,NA,NA,NA,NA,NA,NA,NA,NA,NA,NA,NA,NA,NA,NA,NA,NA,NA,NA,NA
fcp-trial,62,584237,0.0-9.0-0.0,voc_e2,11895,"[{""event"":""blur"",""trial"":0,""time"":0},{""event"":""focus"",""trial"":0,""time"":0},{""event"":""fullscreenenter"",""trial"":1,""time"":1695},{""event"":""fullscreenexit"",""trial"":35,""time"":292531},{""event"":""blur"",""trial"":35,""time"":296199},{""event"":""focus"",""trial"":35,""time"":306283}]",NA,NA,NA,NA,NA,6,#741CD8,#D8271C,10,0,1,38,1,1767.3999999761581,37,1,1213.600000023842,10,1,experiment,NA,NA,1,0.7,0.3,2,3,1,1,NA
fcp-trial,63,588116,0.0-10.0-0.0,voc_e2,11895,"[{""event"":""blur"",""trial"":0,""time"":0},{""event"":""focus"",""trial"":0,""time"":0},{""event"":""fullscreenenter"",""trial"":1,""time"":1695},{""event"":""fullscreenexit"",""trial"":35,""time"":292531},{""event"":""blur"",""trial"":35,""time"":296199},{""event"":""focus"",""trial"":35,""time"":306283}]",NA,NA,NA,NA,NA,0,#3386FF,#D89F1C,10,0,1,38,1,1552.0999999642372,37,1,816.4000000357628,10,1,experiment,NA,NA,2,0.5,0.5,4,5,2,1,NA
fcp-trial,64,591718,0.0-11.0-0.0,voc_e2,11895,"[{""event"":""blur"",""trial"":0,""time"":0},{""event"":""focus"",""trial"":0,""time"":0},{""event"":""fullscreenenter"",""trial"":1,""time"":1695},{""event"":""fullscreenexit"",""trial"":35,""time"":292531},{""event"":""blur"",""trial"":35,""time"":296199},{""event"":""focus"",""trial"":35,""time"":306283}]",NA,NA,NA,NA,NA,0,#1CD855,#FA92F8,10,0,1,38,1,1239.3999999761581,39,0,851.5,0,0,experiment,NA,NA,0,0.9,0.1,0,1,3,1,NA
fcp-trial,65,595890,0.0-12.0-0.0,voc_e2,11895,"[{""event"":""blur"",""trial"":0,""time"":0},{""event"":""focus"",""trial"":0,""time"":0},{""event"":""fullscreenenter"",""trial"":1,""time"":1695},{""event"":""fullscreenexit"",""trial"":35,""time"":292531},{""event"":""blur"",""trial"":35,""time"":296199},{""event"":""focus"",""trial"":35,""time"":306283}]",NA,NA,NA,NA,NA,4,#D89F1C,#3386FF,10,0,0,38,1,1624.9000000357628,39,0,1035.0999999642372,0,1,experiment,NA,NA,2,0.5,0.5,5,4,4,1,NA
fcp-trial,66,600308,0.0-13.0-0.0,voc_e2,11895,"[{""event"":""blur"",""trial"":0,""time"":0},{""event"":""focus"",""trial"":0,""time"":0},{""event"":""fullscreenenter"",""trial"":1,""time"":1695},{""event"":""fullscreenexit"",""trial"":35,""time"":292531},{""event"":""blur"",""trial"":35,""time"":296199},{""event"":""focus"",""trial"":35,""time"":306283}]",NA,NA,NA,NA,NA,5,#1CD855,#FA92F8,10,0,1,38,1,1568.7999999523163,37,1,1329.5,10,1,experiment,NA,NA,0,0.9,0.1,0,1,5,1,NA
fcp-trial,67,604571,0.0-14.0-0.0,voc_e2,11895,"[{""event"":""blur"",""trial"":0,""time"":0},{""event"":""focus"",""trial"":0,""time"":0},{""event"":""fullscreenenter"",""trial"":1,""time"":1695},{""event"":""fullscreenexit"",""trial"":35,""time"":292531},{""event"":""blur"",""trial"":35,""time"":296199},{""event"":""focus"",""trial"":35,""time"":306283}]",NA,NA,NA,NA,NA,5,#D8271C,#741CD8,0,10,0,38,1,756.1999999880791,39,0,1993.4000000357628,10,1,experiment,NA,NA,1,0.3,0.7,3,2,6,1,NA
fcp-trial,68,608117,0.0-15.0-0.0,voc_e2,11895,"[{""event"":""blur"",""trial"":0,""time"":0},{""event"":""focus"",""trial"":0,""time"":0},{""event"":""fullscreenenter"",""trial"":1,""time"":1695},{""event"":""fullscreenexit"",""trial"":35,""time"":292531},{""event"":""blur"",""trial"":35,""time"":296199},{""event"":""focus"",""trial"":35,""time"":306283}]",NA,NA,NA,NA,NA,3,#3386FF,#D89F1C,10,10,1,38,1,1003.5999999642372,37,1,1028.699999988079,10,1,experiment,NA,NA,2,0.5,0.5,4,5,7,1,NA
fcp-trial,69,611298,0.0-16.0-0.0,voc_e2,11895,"[{""event"":""blur"",""trial"":0,""time"":0},{""event"":""focus"",""trial"":0,""time"":0},{""event"":""fullscreenenter"",""trial"":1,""time"":1695},{""event"":""fullscreenexit"",""trial"":35,""time"":292531},{""event"":""blur"",""trial"":35,""time"":296199},{""event"":""focus"",""trial"":35,""time"":306283}]",NA,NA,NA,NA,NA,2,#1CD855,#FA92F8,10,0,1,38,1,974,39,0,695.8000000119209,0,0,experiment,NA,NA,0,0.9,0.1,0,1,8,1,NA
fcp-trial,70,614941,0.0-17.0-0.0,voc_e2,11895,"[{""event"":""blur"",""trial"":0,""time"":0},{""event"":""focus"",""trial"":0,""time"":0},{""event"":""fullscreenenter"",""trial"":1,""time"":1695},{""event"":""fullscreenexit"",""trial"":35,""time"":292531},{""event"":""blur"",""trial"":35,""time"":296199},{""event"":""focus"",""trial"":35,""time"":306283}]",NA,NA,NA,NA,NA,4,#741CD8,#D8271C,10,0,1,38,1,850.5,37,1,1279.100000023842,10,1,experiment,NA,NA,1,0.7,0.3,2,3,9,1,NA
fcp-trial,71,618190,0.0-18.0-0.0,voc_e2,11895,"[{""event"":""blur"",""trial"":0,""time"":0},{""event"":""focus"",""trial"":0,""time"":0},{""event"":""fullscreenenter"",""trial"":1,""time"":1695},{""event"":""fullscreenexit"",""trial"":35,""time"":292531},{""event"":""blur"",""trial"":35,""time"":296199},{""event"":""focus"",""trial"":35,""time"":306283}]",NA,NA,NA,NA,NA,6,#3386FF,#D89F1C,10,10,1,38,1,922.1000000238419,37,1,815.5,10,1,experiment,NA,NA,2,0.5,0.5,4,5,10,1,NA
fcp-trial,72,621085,0.0-19.0-0.0,voc_e2,11895,"[{""event"":""blur"",""trial"":0,""time"":0},{""event"":""focus"",""trial"":0,""time"":0},{""event"":""fullscreenenter"",""trial"":1,""time"":1695},{""event"":""fullscreenexit"",""trial"":35,""time"":292531},{""event"":""blur"",""trial"":35,""time"":296199},{""event"":""focus"",""trial"":35,""time"":306283}]",NA,NA,NA,NA,NA,2,#741CD8,#D8271C,0,10,1,38,1,724.7999999523163,37,1,658.3000000119209,0,1,experiment,NA,NA,1,0.7,0.3,2,3,11,1,NA
fcp-trial,73,623895,0.0-20.0-0.0,voc_e2,11895,"[{""event"":""blur"",""trial"":0,""time"":0},{""event"":""focus"",""trial"":0,""time"":0},{""event"":""fullscreenenter"",""trial"":1,""time"":1695},{""event"":""fullscreenexit"",""trial"":35,""time"":292531},{""event"":""blur"",""trial"":35,""time"":296199},{""event"":""focus"",""trial"":35,""time"":306283}]",NA,NA,NA,NA,NA,1,#D89F1C,#3386FF,10,10,0,38,1,647.5,39,0,656.1999999880791,10,1,experiment,NA,NA,2,0.5,0.5,5,4,12,1,NA
fcp-trial,74,626821,0.0-21.0-0.0,voc_e2,11895,"[{""event"":""blur"",""trial"":0,""time"":0},{""event"":""focus"",""trial"":0,""time"":0},{""event"":""fullscreenenter"",""trial"":1,""time"":1695},{""event"":""fullscreenexit"",""trial"":35,""time"":292531},{""event"":""blur"",""trial"":35,""time"":296199},{""event"":""focus"",""trial"":35,""time"":306283}]",NA,NA,NA,NA,NA,4,#FA92F8,#1CD855,0,10,0,38,1,642.9000000357628,37,1,774.8000000119209,0,0,experiment,NA,NA,0,0.1,0.9,1,0,13,1,NA
fcp-trial,75,629836,0.0-22.0-0.0,voc_e2,11895,"[{""event"":""blur"",""trial"":0,""time"":0},{""event"":""focus"",""trial"":0,""time"":0},{""event"":""fullscreenenter"",""trial"":1,""time"":1695},{""event"":""fullscreenexit"",""trial"":35,""time"":292531},{""event"":""blur"",""trial"":35,""time"":296199},{""event"":""focus"",""trial"":35,""time"":306283}]",NA,NA,NA,NA,NA,1,#D8271C,#741CD8,0,10,0,38,1,638.5999999642372,39,0,860.8999999761581,10,1,experiment,NA,NA,1,0.3,0.7,3,2,14,1,NA
fcp-trial,76,633019,0.0-23.0-0.0,voc_e2,11895,"[{""event"":""blur"",""trial"":0,""time"":0},{""event"":""focus"",""trial"":0,""time"":0},{""event"":""fullscreenenter"",""trial"":1,""time"":1695},{""event"":""fullscreenexit"",""trial"":35,""time"":292531},{""event"":""blur"",""trial"":35,""time"":296199},{""event"":""focus"",""trial"":35,""time"":306283}]",NA,NA,NA,NA,NA,2,#D89F1C,#3386FF,0,0,0,38,1,861.4000000357628,39,0,806.6999999880791,0,1,experiment,NA,NA,2,0.5,0.5,5,4,15,1,NA
fcp-trial,77,636322,0.0-24.0-0.0,voc_e2,11895,"[{""event"":""blur"",""trial"":0,""time"":0},{""event"":""focus"",""trial"":0,""time"":0},{""event"":""fullscreenenter"",""trial"":1,""time"":1695},{""event"":""fullscreenexit"",""trial"":35,""time"":292531},{""event"":""blur"",""trial"":35,""time"":296199},{""event"":""focus"",""trial"":35,""time"":306283}]",NA,NA,NA,NA,NA,3,#FA92F8,#1CD855,0,10,0,38,1,473.30000001192093,37,1,1321.899999976158,0,0,experiment,NA,NA,0,0.1,0.9,1,0,16,1,NA
fcp-trial,78,638958,0.0-25.0-0.0,voc_e2,11895,"[{""event"":""blur"",""trial"":0,""time"":0},{""event"":""focus"",""trial"":0,""time"":0},{""event"":""fullscreenenter"",""trial"":1,""time"":1695},{""event"":""fullscreenexit"",""trial"":35,""time"":292531},{""event"":""blur"",""trial"":35,""time"":296199},{""event"":""focus"",""trial"":35,""time"":306283}]",NA,NA,NA,NA,NA,0,#741CD8,#D8271C,10,0,1,38,1,481.80000001192093,37,1,644.2000000476837,10,1,experiment,NA,NA,1,0.7,0.3,2,3,17,1,NA
fcp-trial,79,641527,0.0-26.0-0.0,voc_e2,11895,"[{""event"":""blur"",""trial"":0,""time"":0},{""event"":""focus"",""trial"":0,""time"":0},{""event"":""fullscreenenter"",""trial"":1,""time"":1695},{""event"":""fullscreenexit"",""trial"":35,""time"":292531},{""event"":""blur"",""trial"":35,""time"":296199},{""event"":""focus"",""trial"":35,""time"":306283}]",NA,NA,NA,NA,NA,5,#D89F1C,#3386FF,0,0,0,38,1,473.5999999642372,39,0,584.2999999523163,0,1,experiment,NA,NA,2,0.5,0.5,5,4,18,1,NA
fcp-trial,80,644258,0.0-27.0-0.0,voc_e2,11895,"[{""event"":""blur"",""trial"":0,""time"":0},{""event"":""focus"",""trial"":0,""time"":0},{""event"":""fullscreenenter"",""trial"":1,""time"":1695},{""event"":""fullscreenexit"",""trial"":35,""time"":292531},{""event"":""blur"",""trial"":35,""time"":296199},{""event"":""focus"",""trial"":35,""time"":306283}]",NA,NA,NA,NA,NA,3,#D8271C,#741CD8,0,10,0,38,1,604.3000000119209,39,0,612.7999999523163,10,1,experiment,NA,NA,1,0.3,0.7,3,2,19,1,NA
fcp-trial,81,648492,0.0-28.0-0.0,voc_e2,11895,"[{""event"":""blur"",""trial"":0,""time"":0},{""event"":""focus"",""trial"":0,""time"":0},{""event"":""fullscreenenter"",""trial"":1,""time"":1695},{""event"":""fullscreenexit"",""trial"":35,""time"":292531},{""event"":""blur"",""trial"":35,""time"":296199},{""event"":""focus"",""trial"":35,""time"":306283}]",NA,NA,NA,NA,NA,6,#1CD855,#FA92F8,10,0,1,38,1,802.8999999761581,37,1,1913.399999976158,10,1,experiment,NA,NA,0,0.9,0.1,0,1,20,1,NA
fcp-trial,82,651567,0.0-29.0-0.0,voc_e2,11895,"[{""event"":""blur"",""trial"":0,""time"":0},{""event"":""focus"",""trial"":0,""time"":0},{""event"":""fullscreenenter"",""trial"":1,""time"":1695},{""event"":""fullscreenexit"",""trial"":35,""time"":292531},{""event"":""blur"",""trial"":35,""time"":296199},{""event"":""focus"",""trial"":35,""time"":306283}]",NA,NA,NA,NA,NA,1,#FA92F8,#1CD855,0,10,0,38,1,699.5999999642372,39,0,864.8000000119209,10,1,experiment,NA,NA,0,0.1,0.9,1,0,21,1,NA
fcp-trial,83,654322,0.0-30.0-0.0,voc_e2,11895,"[{""event"":""blur"",""trial"":0,""time"":0},{""event"":""focus"",""trial"":0,""time"":0},{""event"":""fullscreenenter"",""trial"":1,""time"":1695},{""event"":""fullscreenexit"",""trial"":35,""time"":292531},{""event"":""blur"",""trial"":35,""time"":296199},{""event"":""focus"",""trial"":35,""time"":306283}]",NA,NA,NA,NA,NA,2,#741CD8,#D8271C,0,0,1,38,1,593.9000000357628,37,1,650.8999999761581,0,1,experiment,NA,NA,1,0.7,0.3,2,3,22,1,NA
fcp-trial,84,657216,0.0-31.0-0.0,voc_e2,11895,"[{""event"":""blur"",""trial"":0,""time"":0},{""event"":""focus"",""trial"":0,""time"":0},{""event"":""fullscreenenter"",""trial"":1,""time"":1695},{""event"":""fullscreenexit"",""trial"":35,""time"":292531},{""event"":""blur"",""trial"":35,""time"":296199},{""event"":""focus"",""trial"":35,""time"":306283}]",NA,NA,NA,NA,NA,0,#D89F1C,#3386FF,10,0,0,38,1,708.9000000357628,39,0,677,0,1,experiment,NA,NA,2,0.5,0.5,5,4,23,1,NA
fcp-trial,85,660937,0.0-32.0-0.0,voc_e2,11895,"[{""event"":""blur"",""trial"":0,""time"":0},{""event"":""focus"",""trial"":0,""time"":0},{""event"":""fullscreenenter"",""trial"":1,""time"":1695},{""event"":""fullscreenexit"",""trial"":35,""time"":292531},{""event"":""blur"",""trial"":35,""time"":296199},{""event"":""focus"",""trial"":35,""time"":306283}]",NA,NA,NA,NA,NA,2,#FA92F8,#1CD855,0,10,0,38,1,1048.8999999761581,39,0,1163.5,10,1,experiment,NA,NA,0,0.1,0.9,1,0,24,1,NA
fcp-trial,86,663712,0.0-33.0-0.0,voc_e2,11895,"[{""event"":""blur"",""trial"":0,""time"":0},{""event"":""focus"",""trial"":0,""time"":0},{""event"":""fullscreenenter"",""trial"":1,""time"":1695},{""event"":""fullscreenexit"",""trial"":35,""time"":292531},{""event"":""blur"",""trial"":35,""time"":296199},{""event"":""focus"",""trial"":35,""time"":306283}]",NA,NA,NA,NA,NA,0,#D8271C,#741CD8,10,0,0,38,1,570.1999999880791,39,0,694.1999999880791,0,1,experiment,NA,NA,1,0.3,0.7,3,2,25,1,NA
fcp-trial,87,666356,0.0-34.0-0.0,voc_e2,11895,"[{""event"":""blur"",""trial"":0,""time"":0},{""event"":""focus"",""trial"":0,""time"":0},{""event"":""fullscreenenter"",""trial"":1,""time"":1695},{""event"":""fullscreenexit"",""trial"":35,""time"":292531},{""event"":""blur"",""trial"":35,""time"":296199},{""event"":""focus"",""trial"":35,""time"":306283}]",NA,NA,NA,NA,NA,1,#1CD855,#FA92F8,10,0,1,38,1,502.4000000357628,37,1,625.1000000238419,10,1,experiment,NA,NA,0,0.9,0.1,0,1,26,1,NA
fcp-trial,88,669157,0.0-35.0-0.0,voc_e2,11895,"[{""event"":""blur"",""trial"":0,""time"":0},{""event"":""focus"",""trial"":0,""time"":0},{""event"":""fullscreenenter"",""trial"":1,""time"":1695},{""event"":""fullscreenexit"",""trial"":35,""time"":292531},{""event"":""blur"",""trial"":35,""time"":296199},{""event"":""focus"",""trial"":35,""time"":306283}]",NA,NA,NA,NA,NA,3,#FA92F8,#1CD855,0,10,0,38,1,630.8000000119209,39,0,658.6999999880791,10,1,experiment,NA,NA,0,0.1,0.9,1,0,27,1,NA
fcp-trial,89,671906,0.0-36.0-0.0,voc_e2,11895,"[{""event"":""blur"",""trial"":0,""time"":0},{""event"":""focus"",""trial"":0,""time"":0},{""event"":""fullscreenenter"",""trial"":1,""time"":1695},{""event"":""fullscreenexit"",""trial"":35,""time"":292531},{""event"":""blur"",""trial"":35,""time"":296199},{""event"":""focus"",""trial"":35,""time"":306283}]",NA,NA,NA,NA,NA,4,#D89F1C,#3386FF,0,0,0,38,1,574.0999999642372,39,0,666.3000000119209,0,1,experiment,NA,NA,2,0.5,0.5,5,4,28,1,NA
fcp-trial,90,674704,0.0-37.0-0.0,voc_e2,11895,"[{""event"":""blur"",""trial"":0,""time"":0},{""event"":""focus"",""trial"":0,""time"":0},{""event"":""fullscreenenter"",""trial"":1,""time"":1695},{""event"":""fullscreenexit"",""trial"":35,""time"":292531},{""event"":""blur"",""trial"":35,""time"":296199},{""event"":""focus"",""trial"":35,""time"":306283}]",NA,NA,NA,NA,NA,6,#D8271C,#741CD8,0,0,0,38,1,669.6999999880791,39,0,613,0,1,experiment,NA,NA,1,0.3,0.7,3,2,29,1,NA
fcp-trial,91,677488,0.0-38.0-0.0,voc_e2,11895,"[{""event"":""blur"",""trial"":0,""time"":0},{""event"":""focus"",""trial"":0,""time"":0},{""event"":""fullscreenenter"",""trial"":1,""time"":1695},{""event"":""fullscreenexit"",""trial"":35,""time"":292531},{""event"":""blur"",""trial"":35,""time"":296199},{""event"":""focus"",""trial"":35,""time"":306283}]",NA,NA,NA,NA,NA,1,#D89F1C,#3386FF,10,10,0,38,1,415.80000001192093,37,1,851.2999999523163,10,0,experiment,NA,NA,2,0.5,0.5,5,4,30,1,NA
fcp-trial,92,680241,0.0-39.0-0.0,voc_e2,11895,"[{""event"":""blur"",""trial"":0,""time"":0},{""event"":""focus"",""trial"":0,""time"":0},{""event"":""fullscreenenter"",""trial"":1,""time"":1695},{""event"":""fullscreenexit"",""trial"":35,""time"":292531},{""event"":""blur"",""trial"":35,""time"":296199},{""event"":""focus"",""trial"":35,""time"":306283}]",NA,NA,NA,NA,NA,6,#3386FF,#D89F1C,0,0,1,38,1,595.2999999523163,39,0,648.0999999642372,0,0,experiment,NA,NA,2,0.5,0.5,4,5,31,1,NA
fcp-trial,93,683163,0.0-40.0-0.0,voc_e2,11895,"[{""event"":""blur"",""trial"":0,""time"":0},{""event"":""focus"",""trial"":0,""time"":0},{""event"":""fullscreenenter"",""trial"":1,""time"":1695},{""event"":""fullscreenexit"",""trial"":35,""time"":292531},{""event"":""blur"",""trial"":35,""time"":296199},{""event"":""focus"",""trial"":35,""time"":306283}]",NA,NA,NA,NA,NA,6,#1CD855,#FA92F8,10,0,1,38,1,482.30000001192093,37,1,928.399999976158,10,1,experiment,NA,NA,0,0.9,0.1,0,1,32,1,NA
fcp-trial,94,685846,0.0-41.0-0.0,voc_e2,11895,"[{""event"":""blur"",""trial"":0,""time"":0},{""event"":""focus"",""trial"":0,""time"":0},{""event"":""fullscreenenter"",""trial"":1,""time"":1695},{""event"":""fullscreenexit"",""trial"":35,""time"":292531},{""event"":""blur"",""trial"":35,""time"":296199},{""event"":""focus"",""trial"":35,""time"":306283}]",NA,NA,NA,NA,NA,4,#D8271C,#741CD8,0,10,0,38,1,507.69999998807907,39,0,659.9000000357628,10,1,experiment,NA,NA,1,0.3,0.7,3,2,33,1,NA
fcp-trial,95,688400,0.0-42.0-0.0,voc_e2,11895,"[{""event"":""blur"",""trial"":0,""time"":0},{""event"":""focus"",""trial"":0,""time"":0},{""event"":""fullscreenenter"",""trial"":1,""time"":1695},{""event"":""fullscreenexit"",""trial"":35,""time"":292531},{""event"":""blur"",""trial"":35,""time"":296199},{""event"":""focus"",""trial"":35,""time"":306283}]",NA,NA,NA,NA,NA,1,#D8271C,#741CD8,10,10,0,38,1,439.30000001192093,39,0,602.6999999880791,10,1,experiment,NA,NA,1,0.3,0.7,3,2,34,1,NA
fcp-trial,96,690890,0.0-43.0-0.0,voc_e2,11895,"[{""event"":""blur"",""trial"":0,""time"":0},{""event"":""focus"",""trial"":0,""time"":0},{""event"":""fullscreenenter"",""trial"":1,""time"":1695},{""event"":""fullscreenexit"",""trial"":35,""time"":292531},{""event"":""blur"",""trial"":35,""time"":296199},{""event"":""focus"",""trial"":35,""time"":306283}]",NA,NA,NA,NA,NA,3,#741CD8,#D8271C,10,0,1,38,1,469.39999997615814,37,1,511.39999997615814,10,1,experiment,NA,NA,1,0.7,0.3,2,3,35,1,NA
fcp-trial,97,693531,0.0-44.0-0.0,voc_e2,11895,"[{""event"":""blur"",""trial"":0,""time"":0},{""event"":""focus"",""trial"":0,""time"":0},{""event"":""fullscreenenter"",""trial"":1,""time"":1695},{""event"":""fullscreenexit"",""trial"":35,""time"":292531},{""event"":""blur"",""trial"":35,""time"":296199},{""event"":""focus"",""trial"":35,""time"":306283}]",NA,NA,NA,NA,NA,5,#3386FF,#D89F1C,0,0,1,38,1,446.39999997615814,37,1,682.1000000238419,0,1,experiment,NA,NA,2,0.5,0.5,4,5,36,1,NA
fcp-trial,98,696031,0.0-45.0-0.0,voc_e2,11895,"[{""event"":""blur"",""trial"":0,""time"":0},{""event"":""focus"",""trial"":0,""time"":0},{""event"":""fullscreenenter"",""trial"":1,""time"":1695},{""event"":""fullscreenexit"",""trial"":35,""time"":292531},{""event"":""blur"",""trial"":35,""time"":296199},{""event"":""focus"",""trial"":35,""time"":306283}]",NA,NA,NA,NA,NA,4,#FA92F8,#1CD855,0,10,0,38,1,407.19999998807907,37,1,583.7000000476837,0,0,experiment,NA,NA,0,0.1,0.9,1,0,37,1,NA
fcp-trial,99,698626,0.0-46.0-0.0,voc_e2,11895,"[{""event"":""blur"",""trial"":0,""time"":0},{""event"":""focus"",""trial"":0,""time"":0},{""event"":""fullscreenenter"",""trial"":1,""time"":1695},{""event"":""fullscreenexit"",""trial"":35,""time"":292531},{""event"":""blur"",""trial"":35,""time"":296199},{""event"":""focus"",""trial"":35,""time"":306283}]",NA,NA,NA,NA,NA,2,#3386FF,#D89F1C,10,10,1,38,1,528.3999999761581,39,0,555.8000000119209,10,0,experiment,NA,NA,2,0.5,0.5,4,5,38,1,NA
fcp-trial,100,701404,0.0-47.0-0.0,voc_e2,11895,"[{""event"":""blur"",""trial"":0,""time"":0},{""event"":""focus"",""trial"":0,""time"":0},{""event"":""fullscreenenter"",""trial"":1,""time"":1695},{""event"":""fullscreenexit"",""trial"":35,""time"":292531},{""event"":""blur"",""trial"":35,""time"":296199},{""event"":""focus"",""trial"":35,""time"":306283}]",NA,NA,NA,NA,NA,5,#FA92F8,#1CD855,0,10,0,38,1,619.6000000238419,39,0,642.8999999761581,10,1,experiment,NA,NA,0,0.1,0.9,1,0,39,1,NA
fcp-trial,101,703948,0.0-48.0-0.0,voc_e2,11895,"[{""event"":""blur"",""trial"":0,""time"":0},{""event"":""focus"",""trial"":0,""time"":0},{""event"":""fullscreenenter"",""trial"":1,""time"":1695},{""event"":""fullscreenexit"",""trial"":35,""time"":292531},{""event"":""blur"",""trial"":35,""time"":296199},{""event"":""focus"",""trial"":35,""time"":306283}]",NA,NA,NA,NA,NA,5,#D8271C,#741CD8,10,10,0,38,1,410.19999998807907,39,0,624.5,10,1,experiment,NA,NA,1,0.3,0.7,3,2,40,1,NA
fcp-trial,102,706528,0.0-49.0-0.0,voc_e2,11895,"[{""event"":""blur"",""trial"":0,""time"":0},{""event"":""focus"",""trial"":0,""time"":0},{""event"":""fullscreenenter"",""trial"":1,""time"":1695},{""event"":""fullscreenexit"",""trial"":35,""time"":292531},{""event"":""blur"",""trial"":35,""time"":296199},{""event"":""focus"",""trial"":35,""time"":306283}]",NA,NA,NA,NA,NA,3,#3386FF,#D89F1C,10,0,1,38,1,467.89999997615814,37,1,603.3999999761581,10,1,experiment,NA,NA,2,0.5,0.5,4,5,41,1,NA
fcp-trial,103,709828,0.0-50.0-0.0,voc_e2,11895,"[{""event"":""blur"",""trial"":0,""time"":0},{""event"":""focus"",""trial"":0,""time"":0},{""event"":""fullscreenenter"",""trial"":1,""time"":1695},{""event"":""fullscreenexit"",""trial"":35,""time"":292531},{""event"":""blur"",""trial"":35,""time"":296199},{""event"":""focus"",""trial"":35,""time"":306283}]",NA,NA,NA,NA,NA,0,#FA92F8,#1CD855,0,10,0,38,1,633.8000000119209,39,0,1159.100000023842,10,1,experiment,NA,NA,0,0.1,0.9,1,0,42,1,NA
fcp-trial,104,712451,0.0-51.0-0.0,voc_e2,11895,"[{""event"":""blur"",""trial"":0,""time"":0},{""event"":""focus"",""trial"":0,""time"":0},{""event"":""fullscreenenter"",""trial"":1,""time"":1695},{""event"":""fullscreenexit"",""trial"":35,""time"":292531},{""event"":""blur"",""trial"":35,""time"":296199},{""event"":""focus"",""trial"":35,""time"":306283}]",NA,NA,NA,NA,NA,5,#741CD8,#D8271C,10,0,1,38,1,555.1000000238419,37,1,550.9000000357628,10,1,experiment,NA,NA,1,0.7,0.3,2,3,43,1,NA
fcp-trial,105,714877,0.0-52.0-0.0,voc_e2,11895,"[{""event"":""blur"",""trial"":0,""time"":0},{""event"":""focus"",""trial"":0,""time"":0},{""event"":""fullscreenenter"",""trial"":1,""time"":1695},{""event"":""fullscreenexit"",""trial"":35,""time"":292531},{""event"":""blur"",""trial"":35,""time"":296199},{""event"":""focus"",""trial"":35,""time"":306283}]",NA,NA,NA,NA,NA,0,#741CD8,#D8271C,10,10,1,38,1,403.5999999642372,37,1,509.4000000357628,10,1,experiment,NA,NA,1,0.7,0.3,2,3,44,1,NA
fcp-trial,106,717474,0.0-53.0-0.0,voc_e2,11895,"[{""event"":""blur"",""trial"":0,""time"":0},{""event"":""focus"",""trial"":0,""time"":0},{""event"":""fullscreenenter"",""trial"":1,""time"":1695},{""event"":""fullscreenexit"",""trial"":35,""time"":292531},{""event"":""blur"",""trial"":35,""time"":296199},{""event"":""focus"",""trial"":35,""time"":306283}]",NA,NA,NA,NA,NA,4,#3386FF,#D89F1C,0,0,1,38,1,399.5,37,1,683.3000000119209,0,1,experiment,NA,NA,2,0.5,0.5,4,5,45,1,NA
fcp-trial,107,720113,0.0-54.0-0.0,voc_e2,11895,"[{""event"":""blur"",""trial"":0,""time"":0},{""event"":""focus"",""trial"":0,""time"":0},{""event"":""fullscreenenter"",""trial"":1,""time"":1695},{""event"":""fullscreenexit"",""trial"":35,""time"":292531},{""event"":""blur"",""trial"":35,""time"":296199},{""event"":""focus"",""trial"":35,""time"":306283}]",NA,NA,NA,NA,NA,5,#D89F1C,#3386FF,0,10,0,38,1,504.2000000476837,37,1,618.7000000476837,0,0,experiment,NA,NA,2,0.5,0.5,5,4,46,2,NA
fcp-trial,108,723209,0.0-55.0-0.0,voc_e2,11895,"[{""event"":""blur"",""trial"":0,""time"":0},{""event"":""focus"",""trial"":0,""time"":0},{""event"":""fullscreenenter"",""trial"":1,""time"":1695},{""event"":""fullscreenexit"",""trial"":35,""time"":292531},{""event"":""blur"",""trial"":35,""time"":296199},{""event"":""focus"",""trial"":35,""time"":306283}]",NA,NA,NA,NA,NA,3,#1CD855,#FA92F8,10,0,1,38,1,462.5999999642372,37,1,1125.399999976158,10,1,experiment,NA,NA,0,0.9,0.1,0,1,47,2,NA
fcp-trial,109,726205,0.0-56.0-0.0,voc_e2,11895,"[{""event"":""blur"",""trial"":0,""time"":0},{""event"":""focus"",""trial"":0,""time"":0},{""event"":""fullscreenenter"",""trial"":1,""time"":1695},{""event"":""fullscreenexit"",""trial"":35,""time"":292531},{""event"":""blur"",""trial"":35,""time"":296199},{""event"":""focus"",""trial"":35,""time"":306283}]",NA,NA,NA,NA,NA,0,#3386FF,#D89F1C,10,10,1,38,1,495.80000001192093,39,0,990.5999999642372,10,0,experiment,NA,NA,2,0.5,0.5,4,5,48,2,NA
fcp-trial,110,728905,0.0-57.0-0.0,voc_e2,11895,"[{""event"":""blur"",""trial"":0,""time"":0},{""event"":""focus"",""trial"":0,""time"":0},{""event"":""fullscreenenter"",""trial"":1,""time"":1695},{""event"":""fullscreenexit"",""trial"":35,""time"":292531},{""event"":""blur"",""trial"":35,""time"":296199},{""event"":""focus"",""trial"":35,""time"":306283}]",NA,NA,NA,NA,NA,1,#741CD8,#D8271C,0,10,1,38,1,568.1000000238419,37,1,619.9000000357628,0,1,experiment,NA,NA,1,0.7,0.3,2,3,49,2,NA
fcp-trial,111,731350,0.0-58.0-0.0,voc_e2,11895,"[{""event"":""blur"",""trial"":0,""time"":0},{""event"":""focus"",""trial"":0,""time"":0},{""event"":""fullscreenenter"",""trial"":1,""time"":1695},{""event"":""fullscreenexit"",""trial"":35,""time"":292531},{""event"":""blur"",""trial"":35,""time"":296199},{""event"":""focus"",""trial"":35,""time"":306283}]",NA,NA,NA,NA,NA,3,#3386FF,#D89F1C,0,0,1,38,1,381.0999999642372,39,0,551.6999999880791,0,0,experiment,NA,NA,2,0.5,0.5,4,5,50,2,NA
fcp-trial,112,733783,0.0-59.0-0.0,voc_e2,11895,"[{""event"":""blur"",""trial"":0,""time"":0},{""event"":""focus"",""trial"":0,""time"":0},{""event"":""fullscreenenter"",""trial"":1,""time"":1695},{""event"":""fullscreenexit"",""trial"":35,""time"":292531},{""event"":""blur"",""trial"":35,""time"":296199},{""event"":""focus"",""trial"":35,""time"":306283}]",NA,NA,NA,NA,NA,4,#D8271C,#741CD8,10,10,0,38,1,432.80000001192093,39,0,493.4000000357628,10,1,experiment,NA,NA,1,0.3,0.7,3,2,51,2,NA
fcp-trial,113,736508,0.0-60.0-0.0,voc_e2,11895,"[{""event"":""blur"",""trial"":0,""time"":0},{""event"":""focus"",""trial"":0,""time"":0},{""event"":""fullscreenenter"",""trial"":1,""time"":1695},{""event"":""fullscreenexit"",""trial"":35,""time"":292531},{""event"":""blur"",""trial"":35,""time"":296199},{""event"":""focus"",""trial"":35,""time"":306283}]",NA,NA,NA,NA,NA,1,#1CD855,#FA92F8,10,0,1,38,1,456,37,1,756.3000000119209,10,1,experiment,NA,NA,0,0.9,0.1,0,1,52,2,NA
fcp-trial,114,739219,0.0-61.0-0.0,voc_e2,11895,"[{""event"":""blur"",""trial"":0,""time"":0},{""event"":""focus"",""trial"":0,""time"":0},{""event"":""fullscreenenter"",""trial"":1,""time"":1695},{""event"":""fullscreenexit"",""trial"":35,""time"":292531},{""event"":""blur"",""trial"":35,""time"":296199},{""event"":""focus"",""trial"":35,""time"":306283}]",NA,NA,NA,NA,NA,6,#3386FF,#D89F1C,0,10,1,38,1,465,37,1,725.5,0,1,experiment,NA,NA,2,0.5,0.5,4,5,53,2,NA
fcp-trial,115,743124,0.0-62.0-0.0,voc_e2,11895,"[{""event"":""blur"",""trial"":0,""time"":0},{""event"":""focus"",""trial"":0,""time"":0},{""event"":""fullscreenenter"",""trial"":1,""time"":1695},{""event"":""fullscreenexit"",""trial"":35,""time"":292531},{""event"":""blur"",""trial"":35,""time"":296199},{""event"":""focus"",""trial"":35,""time"":306283}]",NA,NA,NA,NA,NA,3,#D8271C,#741CD8,10,0,0,38,1,1797.6000000238419,39,0,600.6000000238419,0,1,experiment,NA,NA,1,0.3,0.7,3,2,54,2,NA
fcp-trial,116,746003,0.0-63.0-0.0,voc_e2,11895,"[{""event"":""blur"",""trial"":0,""time"":0},{""event"":""focus"",""trial"":0,""time"":0},{""event"":""fullscreenenter"",""trial"":1,""time"":1695},{""event"":""fullscreenexit"",""trial"":35,""time"":292531},{""event"":""blur"",""trial"":35,""time"":296199},{""event"":""focus"",""trial"":35,""time"":306283}]",NA,NA,NA,NA,NA,1,#3386FF,#D89F1C,0,10,1,38,1,719.6000000238419,39,0,645.3999999761581,10,0,experiment,NA,NA,2,0.5,0.5,4,5,55,2,NA
fcp-trial,117,748785,0.0-64.0-0.0,voc_e2,11895,"[{""event"":""blur"",""trial"":0,""time"":0},{""event"":""focus"",""trial"":0,""time"":0},{""event"":""fullscreenenter"",""trial"":1,""time"":1695},{""event"":""fullscreenexit"",""trial"":35,""time"":292531},{""event"":""blur"",""trial"":35,""time"":296199},{""event"":""focus"",""trial"":35,""time"":306283}]",NA,NA,NA,NA,NA,0,#1CD855,#FA92F8,10,0,1,38,1,704.5999999642372,37,1,563,10,1,experiment,NA,NA,0,0.9,0.1,0,1,56,2,NA
fcp-trial,118,751285,0.0-65.0-0.0,voc_e2,11895,"[{""event"":""blur"",""trial"":0,""time"":0},{""event"":""focus"",""trial"":0,""time"":0},{""event"":""fullscreenenter"",""trial"":1,""time"":1695},{""event"":""fullscreenexit"",""trial"":35,""time"":292531},{""event"":""blur"",""trial"":35,""time"":296199},{""event"":""focus"",""trial"":35,""time"":306283}]",NA,NA,NA,NA,NA,4,#FA92F8,#1CD855,0,10,0,38,1,494.5999999642372,39,0,496.5,10,1,experiment,NA,NA,0,0.1,0.9,1,0,57,2,NA
fcp-trial,119,754231,0.0-66.0-0.0,voc_e2,11895,"[{""event"":""blur"",""trial"":0,""time"":0},{""event"":""focus"",""trial"":0,""time"":0},{""event"":""fullscreenenter"",""trial"":1,""time"":1695},{""event"":""fullscreenexit"",""trial"":35,""time"":292531},{""event"":""blur"",""trial"":35,""time"":296199},{""event"":""focus"",""trial"":35,""time"":306283}]",NA,NA,NA,NA,NA,2,#D8271C,#741CD8,10,10,0,38,1,477.10000002384186,39,0,962.100000023842,10,1,experiment,NA,NA,1,0.3,0.7,3,2,58,2,NA
fcp-trial,120,758455,0.0-67.0-0.0,voc_e2,11895,"[{""event"":""blur"",""trial"":0,""time"":0},{""event"":""focus"",""trial"":0,""time"":0},{""event"":""fullscreenenter"",""trial"":1,""time"":1695},{""event"":""fullscreenexit"",""trial"":35,""time"":292531},{""event"":""blur"",""trial"":35,""time"":296199},{""event"":""focus"",""trial"":35,""time"":306283}]",NA,NA,NA,NA,NA,2,#D89F1C,#3386FF,10,0,0,38,1,546.3000000119209,37,1,2172,10,0,experiment,NA,NA,2,0.5,0.5,5,4,59,2,NA
fcp-trial,121,761185,0.0-68.0-0.0,voc_e2,11895,"[{""event"":""blur"",""trial"":0,""time"":0},{""event"":""focus"",""trial"":0,""time"":0},{""event"":""fullscreenenter"",""trial"":1,""time"":1695},{""event"":""fullscreenexit"",""trial"":35,""time"":292531},{""event"":""blur"",""trial"":35,""time"":296199},{""event"":""focus"",""trial"":35,""time"":306283}]",NA,NA,NA,NA,NA,5,#1CD855,#FA92F8,10,0,1,38,1,396.5999999642372,37,1,825.1999999880791,10,1,experiment,NA,NA,0,0.9,0.1,0,1,60,2,NA
fcp-trial,122,763868,0.0-69.0-0.0,voc_e2,11895,"[{""event"":""blur"",""trial"":0,""time"":0},{""event"":""focus"",""trial"":0,""time"":0},{""event"":""fullscreenenter"",""trial"":1,""time"":1695},{""event"":""fullscreenexit"",""trial"":35,""time"":292531},{""event"":""blur"",""trial"":35,""time"":296199},{""event"":""focus"",""trial"":35,""time"":306283}]",NA,NA,NA,NA,NA,6,#D8271C,#741CD8,0,0,0,38,1,592.3000000119209,39,0,582,0,1,experiment,NA,NA,1,0.3,0.7,3,2,61,2,NA
fcp-trial,123,766319,0.0-70.0-0.0,voc_e2,11895,"[{""event"":""blur"",""trial"":0,""time"":0},{""event"":""focus"",""trial"":0,""time"":0},{""event"":""fullscreenenter"",""trial"":1,""time"":1695},{""event"":""fullscreenexit"",""trial"":35,""time"":292531},{""event"":""blur"",""trial"":35,""time"":296199},{""event"":""focus"",""trial"":35,""time"":306283}]",NA,NA,NA,NA,NA,6,#1CD855,#FA92F8,10,0,1,38,1,387,37,1,555.6999999880791,10,1,experiment,NA,NA,0,0.9,0.1,0,1,62,2,NA
fcp-trial,124,768780,0.0-71.0-0.0,voc_e2,11895,"[{""event"":""blur"",""trial"":0,""time"":0},{""event"":""focus"",""trial"":0,""time"":0},{""event"":""fullscreenenter"",""trial"":1,""time"":1695},{""event"":""fullscreenexit"",""trial"":35,""time"":292531},{""event"":""blur"",""trial"":35,""time"":296199},{""event"":""focus"",""trial"":35,""time"":306283}]",NA,NA,NA,NA,NA,2,#1CD855,#FA92F8,0,0,1,38,1,409.69999998807907,37,1,537.8999999761581,0,1,experiment,NA,NA,0,0.9,0.1,0,1,63,2,NA
fcp-trial,125,771413,0.0-72.0-0.0,voc_e2,11895,"[{""event"":""blur"",""trial"":0,""time"":0},{""event"":""focus"",""trial"":0,""time"":0},{""event"":""fullscreenenter"",""trial"":1,""time"":1695},{""event"":""fullscreenexit"",""trial"":35,""time"":292531},{""event"":""blur"",""trial"":35,""time"":296199},{""event"":""focus"",""trial"":35,""time"":306283}]",NA,NA,NA,NA,NA,0,#D89F1C,#3386FF,0,0,0,38,1,461,37,1,661.1999999880791,0,0,experiment,NA,NA,2,0.5,0.5,5,4,64,2,NA
fcp-trial,126,774336,0.0-73.0-0.0,voc_e2,11895,"[{""event"":""blur"",""trial"":0,""time"":0},{""event"":""focus"",""trial"":0,""time"":0},{""event"":""fullscreenenter"",""trial"":1,""time"":1695},{""event"":""fullscreenexit"",""trial"":35,""time"":292531},{""event"":""blur"",""trial"":35,""time"":296199},{""event"":""focus"",""trial"":35,""time"":306283}]",NA,NA,NA,NA,NA,3,#3386FF,#D89F1C,0,10,1,38,1,364.9000000357628,37,1,1041.9000000357628,0,1,experiment,NA,NA,2,0.5,0.5,4,5,65,2,NA
fcp-trial,127,776965,0.0-74.0-0.0,voc_e2,11895,"[{""event"":""blur"",""trial"":0,""time"":0},{""event"":""focus"",""trial"":0,""time"":0},{""event"":""fullscreenenter"",""trial"":1,""time"":1695},{""event"":""fullscreenexit"",""trial"":35,""time"":292531},{""event"":""blur"",""trial"":35,""time"":296199},{""event"":""focus"",""trial"":35,""time"":306283}]",NA,NA,NA,NA,NA,1,#1CD855,#FA92F8,10,0,1,38,1,423.7000000476837,37,1,696.6999999880791,10,1,experiment,NA,NA,0,0.9,0.1,0,1,66,2,NA
fcp-trial,128,779463,0.0-75.0-0.0,voc_e2,11895,"[{""event"":""blur"",""trial"":0,""time"":0},{""event"":""focus"",""trial"":0,""time"":0},{""event"":""fullscreenenter"",""trial"":1,""time"":1695},{""event"":""fullscreenexit"",""trial"":35,""time"":292531},{""event"":""blur"",""trial"":35,""time"":296199},{""event"":""focus"",""trial"":35,""time"":306283}]",NA,NA,NA,NA,NA,4,#1CD855,#FA92F8,10,0,1,38,1,392.19999998807907,37,1,589.8999999761581,10,1,experiment,NA,NA,0,0.9,0.1,0,1,67,2,NA
fcp-trial,129,782043,0.0-76.0-0.0,voc_e2,11895,"[{""event"":""blur"",""trial"":0,""time"":0},{""event"":""focus"",""trial"":0,""time"":0},{""event"":""fullscreenenter"",""trial"":1,""time"":1695},{""event"":""fullscreenexit"",""trial"":35,""time"":292531},{""event"":""blur"",""trial"":35,""time"":296199},{""event"":""focus"",""trial"":35,""time"":306283}]",NA,NA,NA,NA,NA,3,#D8271C,#741CD8,0,10,0,38,1,548.0999999642372,39,0,521.3000000119209,10,1,experiment,NA,NA,1,0.3,0.7,3,2,68,2,NA
fcp-trial,130,785276,0.0-77.0-0.0,voc_e2,11895,"[{""event"":""blur"",""trial"":0,""time"":0},{""event"":""focus"",""trial"":0,""time"":0},{""event"":""fullscreenenter"",""trial"":1,""time"":1695},{""event"":""fullscreenexit"",""trial"":35,""time"":292531},{""event"":""blur"",""trial"":35,""time"":296199},{""event"":""focus"",""trial"":35,""time"":306283}]",NA,NA,NA,NA,NA,1,#3386FF,#D89F1C,0,10,1,38,1,520,39,0,1201.399999976158,10,0,experiment,NA,NA,2,0.5,0.5,4,5,69,2,NA
fcp-trial,131,787743,0.0-78.0-0.0,voc_e2,11895,"[{""event"":""blur"",""trial"":0,""time"":0},{""event"":""focus"",""trial"":0,""time"":0},{""event"":""fullscreenenter"",""trial"":1,""time"":1695},{""event"":""fullscreenexit"",""trial"":35,""time"":292531},{""event"":""blur"",""trial"":35,""time"":296199},{""event"":""focus"",""trial"":35,""time"":306283}]",NA,NA,NA,NA,NA,0,#1CD855,#FA92F8,10,0,1,38,1,349.10000002384186,37,1,606.5999999642372,10,1,experiment,NA,NA,0,0.9,0.1,0,1,70,2,NA
fcp-trial,132,790360,0.0-79.0-0.0,voc_e2,11895,"[{""event"":""blur"",""trial"":0,""time"":0},{""event"":""focus"",""trial"":0,""time"":0},{""event"":""fullscreenenter"",""trial"":1,""time"":1695},{""event"":""fullscreenexit"",""trial"":35,""time"":292531},{""event"":""blur"",""trial"":35,""time"":296199},{""event"":""focus"",""trial"":35,""time"":306283}]",NA,NA,NA,NA,NA,6,#FA92F8,#1CD855,0,10,0,38,1,453.80000001192093,39,0,653.6000000238419,10,1,experiment,NA,NA,0,0.1,0.9,1,0,71,2,NA
fcp-trial,133,792876,0.0-80.0-0.0,voc_e2,11895,"[{""event"":""blur"",""trial"":0,""time"":0},{""event"":""focus"",""trial"":0,""time"":0},{""event"":""fullscreenenter"",""trial"":1,""time"":1695},{""event"":""fullscreenexit"",""trial"":35,""time"":292531},{""event"":""blur"",""trial"":35,""time"":296199},{""event"":""focus"",""trial"":35,""time"":306283}]",NA,NA,NA,NA,NA,4,#D8271C,#741CD8,10,0,0,38,1,498.19999998807907,39,0,511.699999988079,0,1,experiment,NA,NA,1,0.3,0.7,3,2,72,2,NA
fcp-trial,134,795318,0.0-81.0-0.0,voc_e2,11895,"[{""event"":""blur"",""trial"":0,""time"":0},{""event"":""focus"",""trial"":0,""time"":0},{""event"":""fullscreenenter"",""trial"":1,""time"":1695},{""event"":""fullscreenexit"",""trial"":35,""time"":292531},{""event"":""blur"",""trial"":35,""time"":296199},{""event"":""focus"",""trial"":35,""time"":306283}]",NA,NA,NA,NA,NA,6,#D8271C,#741CD8,0,0,0,38,1,363.30000001192093,39,0,567.8000000119209,0,1,experiment,NA,NA,1,0.3,0.7,3,2,73,2,NA
fcp-trial,135,797935,0.0-82.0-0.0,voc_e2,11895,"[{""event"":""blur"",""trial"":0,""time"":0},{""event"":""focus"",""trial"":0,""time"":0},{""event"":""fullscreenenter"",""trial"":1,""time"":1695},{""event"":""fullscreenexit"",""trial"":35,""time"":292531},{""event"":""blur"",""trial"":35,""time"":296199},{""event"":""focus"",""trial"":35,""time"":306283}]",NA,NA,NA,NA,NA,4,#D89F1C,#3386FF,10,0,0,38,1,550.5,37,1,552.1000000238419,10,0,experiment,NA,NA,2,0.5,0.5,5,4,74,2,NA
fcp-trial,136,800927,0.0-83.0-0.0,voc_e2,11895,"[{""event"":""blur"",""trial"":0,""time"":0},{""event"":""focus"",""trial"":0,""time"":0},{""event"":""fullscreenenter"",""trial"":1,""time"":1695},{""event"":""fullscreenexit"",""trial"":35,""time"":292531},{""event"":""blur"",""trial"":35,""time"":296199},{""event"":""focus"",""trial"":35,""time"":306283}]",NA,NA,NA,NA,NA,3,#1CD855,#FA92F8,0,0,1,38,1,545,37,1,932.5,0,1,experiment,NA,NA,0,0.9,0.1,0,1,75,2,NA
fcp-trial,137,803434,0.0-84.0-0.0,voc_e2,11895,"[{""event"":""blur"",""trial"":0,""time"":0},{""event"":""focus"",""trial"":0,""time"":0},{""event"":""fullscreenenter"",""trial"":1,""time"":1695},{""event"":""fullscreenexit"",""trial"":35,""time"":292531},{""event"":""blur"",""trial"":35,""time"":296199},{""event"":""focus"",""trial"":35,""time"":306283}]",NA,NA,NA,NA,NA,5,#FA92F8,#1CD855,0,10,0,38,1,434.69999998807907,37,1,564.1999999880791,0,0,experiment,NA,NA,0,0.1,0.9,1,0,76,2,NA
fcp-trial,138,806015,0.0-85.0-0.0,voc_e2,11895,"[{""event"":""blur"",""trial"":0,""time"":0},{""event"":""focus"",""trial"":0,""time"":0},{""event"":""fullscreenenter"",""trial"":1,""time"":1695},{""event"":""fullscreenexit"",""trial"":35,""time"":292531},{""event"":""blur"",""trial"":35,""time"":296199},{""event"":""focus"",""trial"":35,""time"":306283}]",NA,NA,NA,NA,NA,5,#D8271C,#741CD8,10,0,0,38,1,489.10000002384186,39,0,579,0,1,experiment,NA,NA,1,0.3,0.7,3,2,77,2,NA
fcp-trial,139,808445,0.0-86.0-0.0,voc_e2,11895,"[{""event"":""blur"",""trial"":0,""time"":0},{""event"":""focus"",""trial"":0,""time"":0},{""event"":""fullscreenenter"",""trial"":1,""time"":1695},{""event"":""fullscreenexit"",""trial"":35,""time"":292531},{""event"":""blur"",""trial"":35,""time"":296199},{""event"":""focus"",""trial"":35,""time"":306283}]",NA,NA,NA,NA,NA,1,#741CD8,#D8271C,10,0,1,38,1,465,37,1,454.5,10,1,experiment,NA,NA,1,0.7,0.3,2,3,78,2,NA
fcp-trial,140,811091,0.0-87.0-0.0,voc_e2,11895,"[{""event"":""blur"",""trial"":0,""time"":0},{""event"":""focus"",""trial"":0,""time"":0},{""event"":""fullscreenenter"",""trial"":1,""time"":1695},{""event"":""fullscreenexit"",""trial"":35,""time"":292531},{""event"":""blur"",""trial"":35,""time"":296199},{""event"":""focus"",""trial"":35,""time"":306283}]",NA,NA,NA,NA,NA,2,#3386FF,#D89F1C,10,0,1,38,1,514.3999999761581,39,0,621.8000000119209,0,0,experiment,NA,NA,2,0.5,0.5,4,5,79,2,NA
fcp-trial,141,814835,0.0-88.0-0.0,voc_e2,11895,"[{""event"":""blur"",""trial"":0,""time"":0},{""event"":""focus"",""trial"":0,""time"":0},{""event"":""fullscreenenter"",""trial"":1,""time"":1695},{""event"":""fullscreenexit"",""trial"":35,""time"":292531},{""event"":""blur"",""trial"":35,""time"":296199},{""event"":""focus"",""trial"":35,""time"":306283}]",NA,NA,NA,NA,NA,5,#D89F1C,#3386FF,0,10,0,40,0,1007.0999999642372,39,0,1226.199999988079,10,1,experiment,NA,NA,2,0.5,0.5,5,4,80,2,NA
fcp-trial,142,818101,0.0-89.0-0.0,voc_e2,11895,"[{""event"":""blur"",""trial"":0,""time"":0},{""event"":""focus"",""trial"":0,""time"":0},{""event"":""fullscreenenter"",""trial"":1,""time"":1695},{""event"":""fullscreenexit"",""trial"":35,""time"":292531},{""event"":""blur"",""trial"":35,""time"":296199},{""event"":""focus"",""trial"":35,""time"":306283}]",NA,NA,NA,NA,NA,2,#FA92F8,#1CD855,0,0,0,40,0,844.6000000238419,37,1,911.600000023842,0,0,experiment,NA,NA,0,0.1,0.9,1,0,81,2,NA
fcp-trial,143,822474,0.0-90.0-0.0,voc_e2,11895,"[{""event"":""blur"",""trial"":0,""time"":0},{""event"":""focus"",""trial"":0,""time"":0},{""event"":""fullscreenenter"",""trial"":1,""time"":1695},{""event"":""fullscreenexit"",""trial"":35,""time"":292531},{""event"":""blur"",""trial"":35,""time"":296199},{""event"":""focus"",""trial"":35,""time"":306283}]",NA,NA,NA,NA,NA,2,#741CD8,#D8271C,10,0,1,40,0,1685.0999999642372,37,1,1180.199999988079,10,1,experiment,NA,NA,1,0.7,0.3,2,3,82,2,NA
fcp-trial,144,825969,0.0-91.0-0.0,voc_e2,11895,"[{""event"":""blur"",""trial"":0,""time"":0},{""event"":""focus"",""trial"":0,""time"":0},{""event"":""fullscreenenter"",""trial"":1,""time"":1695},{""event"":""fullscreenexit"",""trial"":35,""time"":292531},{""event"":""blur"",""trial"":35,""time"":296199},{""event"":""focus"",""trial"":35,""time"":306283}]",NA,NA,NA,NA,NA,0,#741CD8,#D8271C,0,10,1,40,0,1139.4000000357628,39,0,846.9000000357628,10,0,experiment,NA,NA,1,0.7,0.3,2,3,83,2,NA
fcp-trial,145,828970,0.0-92.0-0.0,voc_e2,11895,"[{""event"":""blur"",""trial"":0,""time"":0},{""event"":""focus"",""trial"":0,""time"":0},{""event"":""fullscreenenter"",""trial"":1,""time"":1695},{""event"":""fullscreenexit"",""trial"":35,""time"":292531},{""event"":""blur"",""trial"":35,""time"":296199},{""event"":""focus"",""trial"":35,""time"":306283}]",NA,NA,NA,NA,NA,6,#D89F1C,#3386FF,0,0,0,40,0,757.8000000119209,37,1,730.8000000119209,0,0,experiment,NA,NA,2,0.5,0.5,5,4,84,2,NA
fcp-trial,146,832662,0.0-93.0-0.0,voc_e2,11895,"[{""event"":""blur"",""trial"":0,""time"":0},{""event"":""focus"",""trial"":0,""time"":0},{""event"":""fullscreenenter"",""trial"":1,""time"":1695},{""event"":""fullscreenexit"",""trial"":35,""time"":292531},{""event"":""blur"",""trial"":35,""time"":296199},{""event"":""focus"",""trial"":35,""time"":306283}]",NA,NA,NA,NA,NA,1,#741CD8,#D8271C,10,10,1,38,1,964.3000000119209,37,1,1220.0999999642372,10,1,experiment,NA,NA,1,0.7,0.3,2,3,85,2,NA
fcp-trial,147,835678,0.0-94.0-0.0,voc_e2,11895,"[{""event"":""blur"",""trial"":0,""time"":0},{""event"":""focus"",""trial"":0,""time"":0},{""event"":""fullscreenenter"",""trial"":1,""time"":1695},{""event"":""fullscreenexit"",""trial"":35,""time"":292531},{""event"":""blur"",""trial"":35,""time"":296199},{""event"":""focus"",""trial"":35,""time"":306283}]",NA,NA,NA,NA,NA,6,#741CD8,#D8271C,10,0,1,40,0,615,39,0,892.7000000476837,0,0,experiment,NA,NA,1,0.7,0.3,2,3,86,2,NA
fcp-trial,148,839712,0.0-95.0-0.0,voc_e2,11895,"[{""event"":""blur"",""trial"":0,""time"":0},{""event"":""focus"",""trial"":0,""time"":0},{""event"":""fullscreenenter"",""trial"":1,""time"":1695},{""event"":""fullscreenexit"",""trial"":35,""time"":292531},{""event"":""blur"",""trial"":35,""time"":296199},{""event"":""focus"",""trial"":35,""time"":306283}]",NA,NA,NA,NA,NA,4,#D89F1C,#3386FF,10,0,0,38,1,1611,39,0,911.5999999642372,0,1,experiment,NA,NA,2,0.5,0.5,5,4,87,2,NA
fcp-trial,149,842632,0.0-96.0-0.0,voc_e2,11895,"[{""event"":""blur"",""trial"":0,""time"":0},{""event"":""focus"",""trial"":0,""time"":0},{""event"":""fullscreenenter"",""trial"":1,""time"":1695},{""event"":""fullscreenexit"",""trial"":35,""time"":292531},{""event"":""blur"",""trial"":35,""time"":296199},{""event"":""focus"",""trial"":35,""time"":306283}]",NA,NA,NA,NA,NA,6,#FA92F8,#1CD855,10,10,0,40,0,524.8999999761581,39,0,881.5999999642372,10,1,experiment,NA,NA,0,0.1,0.9,1,0,88,2,NA
fcp-trial,150,847102,0.0-97.0-0.0,voc_e2,11895,"[{""event"":""blur"",""trial"":0,""time"":0},{""event"":""focus"",""trial"":0,""time"":0},{""event"":""fullscreenenter"",""trial"":1,""time"":1695},{""event"":""fullscreenexit"",""trial"":35,""time"":292531},{""event"":""blur"",""trial"":35,""time"":296199},{""event"":""focus"",""trial"":35,""time"":306283}]",NA,NA,NA,NA,NA,2,#D89F1C,#3386FF,10,0,0,38,1,1600,37,1,1360,10,0,experiment,NA,NA,2,0.5,0.5,5,4,89,2,NA
fcp-trial,151,850112,0.0-98.0-0.0,voc_e2,11895,"[{""event"":""blur"",""trial"":0,""time"":0},{""event"":""focus"",""trial"":0,""time"":0},{""event"":""fullscreenenter"",""trial"":1,""time"":1695},{""event"":""fullscreenexit"",""trial"":35,""time"":292531},{""event"":""blur"",""trial"":35,""time"":296199},{""event"":""focus"",""trial"":35,""time"":306283}]",NA,NA,NA,NA,NA,0,#D8271C,#741CD8,0,10,0,38,1,907.1999999880791,39,0,593.6000000238419,10,1,experiment,NA,NA,1,0.3,0.7,3,2,90,2,NA
fcp-trial,152,854700,0.0-99.0-0.0,voc_e2,11895,"[{""event"":""blur"",""trial"":0,""time"":0},{""event"":""focus"",""trial"":0,""time"":0},{""event"":""fullscreenenter"",""trial"":1,""time"":1695},{""event"":""fullscreenexit"",""trial"":35,""time"":292531},{""event"":""blur"",""trial"":35,""time"":296199},{""event"":""focus"",""trial"":35,""time"":306283}]",NA,NA,NA,NA,NA,5,#D89F1C,#3386FF,0,10,0,40,0,2489.800000011921,37,1,588.8000000119209,0,0,experiment,NA,NA,2,0.5,0.5,5,4,91,3,NA
fcp-trial,153,858383,0.0-100.0-0.0,voc_e2,11895,"[{""event"":""blur"",""trial"":0,""time"":0},{""event"":""focus"",""trial"":0,""time"":0},{""event"":""fullscreenenter"",""trial"":1,""time"":1695},{""event"":""fullscreenexit"",""trial"":35,""time"":292531},{""event"":""blur"",""trial"":35,""time"":296199},{""event"":""focus"",""trial"":35,""time"":306283}]",NA,NA,NA,NA,NA,3,#1CD855,#FA92F8,10,0,1,38,1,1567.1000000238419,39,0,601.1000000238419,0,0,experiment,NA,NA,0,0.9,0.1,0,1,92,3,NA
fcp-trial,154,861548,0.0-101.0-0.0,voc_e2,11895,"[{""event"":""blur"",""trial"":0,""time"":0},{""event"":""focus"",""trial"":0,""time"":0},{""event"":""fullscreenenter"",""trial"":1,""time"":1695},{""event"":""fullscreenexit"",""trial"":35,""time"":292531},{""event"":""blur"",""trial"":35,""time"":296199},{""event"":""focus"",""trial"":35,""time"":306283}]",NA,NA,NA,NA,NA,5,#1CD855,#FA92F8,10,0,1,40,0,1044.3999999761581,39,0,606.4000000357628,0,0,experiment,NA,NA,0,0.9,0.1,0,1,93,3,NA
fcp-trial,155,864606,0.0-102.0-0.0,voc_e2,11895,"[{""event"":""blur"",""trial"":0,""time"":0},{""event"":""focus"",""trial"":0,""time"":0},{""event"":""fullscreenenter"",""trial"":1,""time"":1695},{""event"":""fullscreenexit"",""trial"":35,""time"":292531},{""event"":""blur"",""trial"":35,""time"":296199},{""event"":""focus"",""trial"":35,""time"":306283}]",NA,NA,NA,NA,NA,2,#741CD8,#D8271C,10,0,1,38,1,1048.1000000238419,37,1,499.89999997615814,10,1,experiment,NA,NA,1,0.7,0.3,2,3,94,3,NA
fcp-trial,156,868155,0.0-103.0-0.0,voc_e2,11895,"[{""event"":""blur"",""trial"":0,""time"":0},{""event"":""focus"",""trial"":0,""time"":0},{""event"":""fullscreenenter"",""trial"":1,""time"":1695},{""event"":""fullscreenexit"",""trial"":35,""time"":292531},{""event"":""blur"",""trial"":35,""time"":296199},{""event"":""focus"",""trial"":35,""time"":306283}]",NA,NA,NA,NA,NA,0,#D89F1C,#3386FF,0,0,0,38,1,1508.300000011921,37,1,531.7999999523163,0,0,experiment,NA,NA,2,0.5,0.5,5,4,95,3,NA
fcp-trial,157,870854,0.0-104.0-0.0,voc_e2,11895,"[{""event"":""blur"",""trial"":0,""time"":0},{""event"":""focus"",""trial"":0,""time"":0},{""event"":""fullscreenenter"",""trial"":1,""time"":1695},{""event"":""fullscreenexit"",""trial"":35,""time"":292531},{""event"":""blur"",""trial"":35,""time"":296199},{""event"":""focus"",""trial"":35,""time"":306283}]",NA,NA,NA,NA,NA,1,#FA92F8,#1CD855,0,10,0,38,1,513.8000000119209,39,0,673.8999999761581,10,1,experiment,NA,NA,0,0.1,0.9,1,0,96,3,NA
fcp-trial,158,873592,0.0-105.0-0.0,voc_e2,11895,"[{""event"":""blur"",""trial"":0,""time"":0},{""event"":""focus"",""trial"":0,""time"":0},{""event"":""fullscreenenter"",""trial"":1,""time"":1695},{""event"":""fullscreenexit"",""trial"":35,""time"":292531},{""event"":""blur"",""trial"":35,""time"":296199},{""event"":""focus"",""trial"":35,""time"":306283}]",NA,NA,NA,NA,NA,0,#FA92F8,#1CD855,0,10,0,38,1,709.6999999880791,39,0,515.2000000476837,10,1,experiment,NA,NA,0,0.1,0.9,1,0,97,3,NA
fcp-trial,159,876415,0.0-106.0-0.0,voc_e2,11895,"[{""event"":""blur"",""trial"":0,""time"":0},{""event"":""focus"",""trial"":0,""time"":0},{""event"":""fullscreenenter"",""trial"":1,""time"":1695},{""event"":""fullscreenexit"",""trial"":35,""time"":292531},{""event"":""blur"",""trial"":35,""time"":296199},{""event"":""focus"",""trial"":35,""time"":306283}]",NA,NA,NA,NA,NA,4,#D8271C,#741CD8,0,10,0,38,1,786.1000000238419,39,0,523.3999999761581,10,1,experiment,NA,NA,1,0.3,0.7,3,2,98,3,NA
fcp-trial,160,880066,0.0-107.0-0.0,voc_e2,11895,"[{""event"":""blur"",""trial"":0,""time"":0},{""event"":""focus"",""trial"":0,""time"":0},{""event"":""fullscreenenter"",""trial"":1,""time"":1695},{""event"":""fullscreenexit"",""trial"":35,""time"":292531},{""event"":""blur"",""trial"":35,""time"":296199},{""event"":""focus"",""trial"":35,""time"":306283}]",NA,NA,NA,NA,NA,3,#D89F1C,#3386FF,10,10,0,40,0,1526.5,37,1,616.1999999880791,10,0,experiment,NA,NA,2,0.5,0.5,5,4,99,3,NA
fcp-trial,161,884035,0.0-108.0-0.0,voc_e2,11895,"[{""event"":""blur"",""trial"":0,""time"":0},{""event"":""focus"",""trial"":0,""time"":0},{""event"":""fullscreenenter"",""trial"":1,""time"":1695},{""event"":""fullscreenexit"",""trial"":35,""time"":292531},{""event"":""blur"",""trial"":35,""time"":296199},{""event"":""focus"",""trial"":35,""time"":306283}]",NA,NA,NA,NA,NA,5,#741CD8,#D8271C,0,0,1,40,0,1873.1000000238419,39,0,583.3000000119209,0,0,experiment,NA,NA,1,0.7,0.3,2,3,100,3,NA
fcp-trial,162,887562,0.0-109.0-0.0,voc_e2,11895,"[{""event"":""blur"",""trial"":0,""time"":0},{""event"":""focus"",""trial"":0,""time"":0},{""event"":""fullscreenenter"",""trial"":1,""time"":1695},{""event"":""fullscreenexit"",""trial"":35,""time"":292531},{""event"":""blur"",""trial"":35,""time"":296199},{""event"":""focus"",""trial"":35,""time"":306283}]",NA,NA,NA,NA,NA,6,#D89F1C,#3386FF,10,0,0,40,0,1454,39,0,562.9000000357628,0,1,experiment,NA,NA,2,0.5,0.5,5,4,101,3,NA
fcp-trial,163,892058,0.0-110.0-0.0,voc_e2,11895,"[{""event"":""blur"",""trial"":0,""time"":0},{""event"":""focus"",""trial"":0,""time"":0},{""event"":""fullscreenenter"",""trial"":1,""time"":1695},{""event"":""fullscreenexit"",""trial"":35,""time"":292531},{""event"":""blur"",""trial"":35,""time"":296199},{""event"":""focus"",""trial"":35,""time"":306283}]",NA,NA,NA,NA,NA,2,#FA92F8,#1CD855,10,10,0,40,0,2332.199999988079,37,1,649,10,0,experiment,NA,NA,0,0.1,0.9,1,0,102,3,NA
fcp-trial,164,896160,0.0-111.0-0.0,voc_e2,11895,"[{""event"":""blur"",""trial"":0,""time"":0},{""event"":""focus"",""trial"":0,""time"":0},{""event"":""fullscreenenter"",""trial"":1,""time"":1695},{""event"":""fullscreenexit"",""trial"":35,""time"":292531},{""event"":""blur"",""trial"":35,""time"":296199},{""event"":""focus"",""trial"":35,""time"":306283}]",NA,NA,NA,NA,NA,3,#741CD8,#D8271C,10,0,1,38,1,2214,37,1,376.2999999523163,10,1,experiment,NA,NA,1,0.7,0.3,2,3,103,3,NA
fcp-trial,165,899543,0.0-112.0-0.0,voc_e2,11895,"[{""event"":""blur"",""trial"":0,""time"":0},{""event"":""focus"",""trial"":0,""time"":0},{""event"":""fullscreenenter"",""trial"":1,""time"":1695},{""event"":""fullscreenexit"",""trial"":35,""time"":292531},{""event"":""blur"",""trial"":35,""time"":296199},{""event"":""focus"",""trial"":35,""time"":306283}]",NA,NA,NA,NA,NA,1,#D89F1C,#3386FF,0,10,0,40,0,1231.300000011921,39,0,641.1999999880791,10,1,experiment,NA,NA,2,0.5,0.5,5,4,104,3,NA
fcp-trial,166,902880,0.0-113.0-0.0,voc_e2,11895,"[{""event"":""blur"",""trial"":0,""time"":0},{""event"":""focus"",""trial"":0,""time"":0},{""event"":""fullscreenenter"",""trial"":1,""time"":1695},{""event"":""fullscreenexit"",""trial"":35,""time"":292531},{""event"":""blur"",""trial"":35,""time"":296199},{""event"":""focus"",""trial"":35,""time"":306283}]",NA,NA,NA,NA,NA,4,#FA92F8,#1CD855,0,10,0,40,0,1275.1000000238419,39,0,553.1000000238419,10,1,experiment,NA,NA,0,0.1,0.9,1,0,105,3,NA
audio-instructions,167,915352,0.0-114.0,voc_e2,11895,"[{""event"":""blur"",""trial"":0,""time"":0},{""event"":""focus"",""trial"":0,""time"":0},{""event"":""fullscreenenter"",""trial"":1,""time"":1695},{""event"":""fullscreenexit"",""trial"":35,""time"":292531},{""event"":""blur"",""trial"":35,""time"":296199},{""event"":""focus"",""trial"":35,""time"":306283}]",NA,7546.099999964237,static/audio/pause.wav,NA,0,NA,NA,NA,NA,NA,NA,NA,NA,NA,NA,NA,NA,NA,NA,NA,NA,NA,NA,NA,NA,NA,NA,NA,NA,NA
fcp-trial,168,918764,0.0-115.0-0.0,voc_e2,11895,"[{""event"":""blur"",""trial"":0,""time"":0},{""event"":""focus"",""trial"":0,""time"":0},{""event"":""fullscreenenter"",""trial"":1,""time"":1695},{""event"":""fullscreenexit"",""trial"":35,""time"":292531},{""event"":""blur"",""trial"":35,""time"":296199},{""event"":""focus"",""trial"":35,""time"":306283}]",NA,NA,NA,NA,NA,2,#D8271C,#741CD8,0,10,0,38,1,1370.5,39,0,526.0999999642372,10,1,experiment,NA,NA,1,0.3,0.7,3,2,106,3,NA
fcp-trial,169,921180,0.0-116.0-0.0,voc_e2,11895,"[{""event"":""blur"",""trial"":0,""time"":0},{""event"":""focus"",""trial"":0,""time"":0},{""event"":""fullscreenenter"",""trial"":1,""time"":1695},{""event"":""fullscreenexit"",""trial"":35,""time"":292531},{""event"":""blur"",""trial"":35,""time"":296199},{""event"":""focus"",""trial"":35,""time"":306283}]",NA,NA,NA,NA,NA,0,#741CD8,#D8271C,10,0,1,38,1,472.5,37,1,434.699999988079,10,1,experiment,NA,NA,1,0.7,0.3,2,3,107,3,NA
fcp-trial,170,923873,0.0-117.0-0.0,voc_e2,11895,"[{""event"":""blur"",""trial"":0,""time"":0},{""event"":""focus"",""trial"":0,""time"":0},{""event"":""fullscreenenter"",""trial"":1,""time"":1695},{""event"":""fullscreenexit"",""trial"":35,""time"":292531},{""event"":""blur"",""trial"":35,""time"":296199},{""event"":""focus"",""trial"":35,""time"":306283}]",NA,NA,NA,NA,NA,6,#1CD855,#FA92F8,10,0,1,38,1,481.10000002384186,39,0,701.3999999761581,0,0,experiment,NA,NA,0,0.9,0.1,0,1,108,3,NA
fcp-trial,171,927371,0.0-118.0-0.0,voc_e2,11895,"[{""event"":""blur"",""trial"":0,""time"":0},{""event"":""focus"",""trial"":0,""time"":0},{""event"":""fullscreenenter"",""trial"":1,""time"":1695},{""event"":""fullscreenexit"",""trial"":35,""time"":292531},{""event"":""blur"",""trial"":35,""time"":296199},{""event"":""focus"",""trial"":35,""time"":306283}]",NA,NA,NA,NA,NA,2,#3386FF,#D89F1C,10,10,1,40,0,1352.5,39,0,633.3000000119209,10,0,experiment,NA,NA,2,0.5,0.5,4,5,109,3,NA
fcp-trial,172,930898,0.0-119.0-0.0,voc_e2,11895,"[{""event"":""blur"",""trial"":0,""time"":0},{""event"":""focus"",""trial"":0,""time"":0},{""event"":""fullscreenenter"",""trial"":1,""time"":1695},{""event"":""fullscreenexit"",""trial"":35,""time"":292531},{""event"":""blur"",""trial"":35,""time"":296199},{""event"":""focus"",""trial"":35,""time"":306283}]",NA,NA,NA,NA,NA,3,#1CD855,#FA92F8,10,0,1,40,0,1435.5,37,1,579.8000000119209,10,1,experiment,NA,NA,0,0.9,0.1,0,1,110,3,NA
fcp-trial,173,933713,0.0-120.0-0.0,voc_e2,11895,"[{""event"":""blur"",""trial"":0,""time"":0},{""event"":""focus"",""trial"":0,""time"":0},{""event"":""fullscreenenter"",""trial"":1,""time"":1695},{""event"":""fullscreenexit"",""trial"":35,""time"":292531},{""event"":""blur"",""trial"":35,""time"":296199},{""event"":""focus"",""trial"":35,""time"":306283}]",NA,NA,NA,NA,NA,5,#D8271C,#741CD8,0,10,0,38,1,800.5,39,0,502.4000000357628,10,1,experiment,NA,NA,1,0.3,0.7,3,2,111,3,NA
fcp-trial,174,937096,0.0-121.0-0.0,voc_e2,11895,"[{""event"":""blur"",""trial"":0,""time"":0},{""event"":""focus"",""trial"":0,""time"":0},{""event"":""fullscreenenter"",""trial"":1,""time"":1695},{""event"":""fullscreenexit"",""trial"":35,""time"":292531},{""event"":""blur"",""trial"":35,""time"":296199},{""event"":""focus"",""trial"":35,""time"":306283}]",NA,NA,NA,NA,NA,0,#1CD855,#FA92F8,10,0,1,40,0,1387,39,0,483.300000011921,0,0,experiment,NA,NA,0,0.9,0.1,0,1,112,3,NA
fcp-trial,175,940779,0.0-122.0-0.0,voc_e2,11895,"[{""event"":""blur"",""trial"":0,""time"":0},{""event"":""focus"",""trial"":0,""time"":0},{""event"":""fullscreenenter"",""trial"":1,""time"":1695},{""event"":""fullscreenexit"",""trial"":35,""time"":292531},{""event"":""blur"",""trial"":35,""time"":296199},{""event"":""focus"",""trial"":35,""time"":306283}]",NA,NA,NA,NA,NA,5,#3386FF,#D89F1C,10,0,1,40,0,1470.300000011921,37,1,703.3999999761581,10,1,experiment,NA,NA,2,0.5,0.5,4,5,113,3,NA
fcp-trial,176,943872,0.0-123.0-0.0,voc_e2,11895,"[{""event"":""blur"",""trial"":0,""time"":0},{""event"":""focus"",""trial"":0,""time"":0},{""event"":""fullscreenenter"",""trial"":1,""time"":1695},{""event"":""fullscreenexit"",""trial"":35,""time"":292531},{""event"":""blur"",""trial"":35,""time"":296199},{""event"":""focus"",""trial"":35,""time"":306283}]",NA,NA,NA,NA,NA,3,#D8271C,#741CD8,10,10,0,38,1,1194.199999988079,39,0,388.60000002384186,10,1,experiment,NA,NA,1,0.3,0.7,3,2,114,3,NA
fcp-trial,177,946863,0.0-124.0-0.0,voc_e2,11895,"[{""event"":""blur"",""trial"":0,""time"":0},{""event"":""focus"",""trial"":0,""time"":0},{""event"":""fullscreenenter"",""trial"":1,""time"":1695},{""event"":""fullscreenexit"",""trial"":35,""time"":292531},{""event"":""blur"",""trial"":35,""time"":296199},{""event"":""focus"",""trial"":35,""time"":306283}]",NA,NA,NA,NA,NA,4,#1CD855,#FA92F8,10,0,1,38,1,935.8999999761581,37,1,541,10,1,experiment,NA,NA,0,0.9,0.1,0,1,115,3,NA
fcp-trial,178,949725,0.0-125.0-0.0,voc_e2,11895,"[{""event"":""blur"",""trial"":0,""time"":0},{""event"":""focus"",""trial"":0,""time"":0},{""event"":""fullscreenenter"",""trial"":1,""time"":1695},{""event"":""fullscreenexit"",""trial"":35,""time"":292531},{""event"":""blur"",""trial"":35,""time"":296199},{""event"":""focus"",""trial"":35,""time"":306283}]",NA,NA,NA,NA,NA,4,#D89F1C,#3386FF,10,10,0,38,1,703.8999999761581,39,0,648.6999999880791,10,1,experiment,NA,NA,2,0.5,0.5,5,4,116,3,NA
fcp-trial,179,952783,0.0-126.0-0.0,voc_e2,11895,"[{""event"":""blur"",""trial"":0,""time"":0},{""event"":""focus"",""trial"":0,""time"":0},{""event"":""fullscreenenter"",""trial"":1,""time"":1695},{""event"":""fullscreenexit"",""trial"":35,""time"":292531},{""event"":""blur"",""trial"":35,""time"":296199},{""event"":""focus"",""trial"":35,""time"":306283}]",NA,NA,NA,NA,NA,2,#FA92F8,#1CD855,0,10,0,40,0,808,37,1,737.8999999761581,0,0,experiment,NA,NA,0,0.1,0.9,1,0,117,3,NA
fcp-trial,180,955826,0.0-127.0-0.0,voc_e2,11895,"[{""event"":""blur"",""trial"":0,""time"":0},{""event"":""focus"",""trial"":0,""time"":0},{""event"":""fullscreenenter"",""trial"":1,""time"":1695},{""event"":""fullscreenexit"",""trial"":35,""time"":292531},{""event"":""blur"",""trial"":35,""time"":296199},{""event"":""focus"",""trial"":35,""time"":306283}]",NA,NA,NA,NA,NA,1,#741CD8,#D8271C,10,0,1,38,1,1069.3999999761581,37,1,461.800000011921,10,1,experiment,NA,NA,1,0.7,0.3,2,3,118,3,NA
fcp-trial,181,958940,0.0-128.0-0.0,voc_e2,11895,"[{""event"":""blur"",""trial"":0,""time"":0},{""event"":""focus"",""trial"":0,""time"":0},{""event"":""fullscreenenter"",""trial"":1,""time"":1695},{""event"":""fullscreenexit"",""trial"":35,""time"":292531},{""event"":""blur"",""trial"":35,""time"":296199},{""event"":""focus"",""trial"":35,""time"":306283}]",NA,NA,NA,NA,NA,6,#3386FF,#D89F1C,0,10,1,38,1,760.3000000119209,39,0,844.6999999880791,10,0,experiment,NA,NA,2,0.5,0.5,4,5,119,3,NA
fcp-trial,182,961839,0.0-129.0-0.0,voc_e2,11895,"[{""event"":""blur"",""trial"":0,""time"":0},{""event"":""focus"",""trial"":0,""time"":0},{""event"":""fullscreenenter"",""trial"":1,""time"":1695},{""event"":""fullscreenexit"",""trial"":35,""time"":292531},{""event"":""blur"",""trial"":35,""time"":296199},{""event"":""focus"",""trial"":35,""time"":306283}]",NA,NA,NA,NA,NA,1,#1CD855,#FA92F8,10,0,1,38,1,910.0999999642372,37,1,479.10000002384186,10,1,experiment,NA,NA,0,0.9,0.1,0,1,120,3,NA
fcp-trial,183,964503,0.0-130.0-0.0,voc_e2,11895,"[{""event"":""blur"",""trial"":0,""time"":0},{""event"":""focus"",""trial"":0,""time"":0},{""event"":""fullscreenenter"",""trial"":1,""time"":1695},{""event"":""fullscreenexit"",""trial"":35,""time"":292531},{""event"":""blur"",""trial"":35,""time"":296199},{""event"":""focus"",""trial"":35,""time"":306283}]",NA,NA,NA,NA,NA,6,#D8271C,#741CD8,0,10,0,38,1,696.1000000238419,39,0,460.199999988079,10,1,experiment,NA,NA,1,0.3,0.7,3,2,121,3,NA
fcp-trial,184,967085,0.0-131.0-0.0,voc_e2,11895,"[{""event"":""blur"",""trial"":0,""time"":0},{""event"":""focus"",""trial"":0,""time"":0},{""event"":""fullscreenenter"",""trial"":1,""time"":1695},{""event"":""fullscreenexit"",""trial"":35,""time"":292531},{""event"":""blur"",""trial"":35,""time"":296199},{""event"":""focus"",""trial"":35,""time"":306283}]",NA,NA,NA,NA,NA,4,#D8271C,#741CD8,0,10,0,38,1,514.3000000119209,39,0,558.1999999880791,10,1,experiment,NA,NA,1,0.3,0.7,3,2,122,3,NA
fcp-trial,185,969839,0.0-132.0-0.0,voc_e2,11895,"[{""event"":""blur"",""trial"":0,""time"":0},{""event"":""focus"",""trial"":0,""time"":0},{""event"":""fullscreenenter"",""trial"":1,""time"":1695},{""event"":""fullscreenexit"",""trial"":35,""time"":292531},{""event"":""blur"",""trial"":35,""time"":296199},{""event"":""focus"",""trial"":35,""time"":306283}]",NA,NA,NA,NA,NA,5,#1CD855,#FA92F8,10,0,1,38,1,798.1000000238419,37,1,448.60000002384186,10,1,experiment,NA,NA,0,0.9,0.1,0,1,123,3,NA
fcp-trial,186,973421,0.0-133.0-0.0,voc_e2,11895,"[{""event"":""blur"",""trial"":0,""time"":0},{""event"":""focus"",""trial"":0,""time"":0},{""event"":""fullscreenenter"",""trial"":1,""time"":1695},{""event"":""fullscreenexit"",""trial"":35,""time"":292531},{""event"":""blur"",""trial"":35,""time"":296199},{""event"":""focus"",""trial"":35,""time"":306283}]",NA,NA,NA,NA,NA,3,#3386FF,#D89F1C,0,0,1,40,0,1496.5,37,1,575.6999999880791,0,1,experiment,NA,NA,2,0.5,0.5,4,5,124,3,NA
fcp-trial,187,975934,0.0-134.0-0.0,voc_e2,11895,"[{""event"":""blur"",""trial"":0,""time"":0},{""event"":""focus"",""trial"":0,""time"":0},{""event"":""fullscreenenter"",""trial"":1,""time"":1695},{""event"":""fullscreenexit"",""trial"":35,""time"":292531},{""event"":""blur"",""trial"":35,""time"":296199},{""event"":""focus"",""trial"":35,""time"":306283}]",NA,NA,NA,NA,NA,0,#3386FF,#D89F1C,0,10,1,38,1,508.10000002384186,39,0,494,10,0,experiment,NA,NA,2,0.5,0.5,4,5,125,3,NA
fcp-trial,188,979168,0.0-135.0-0.0,voc_e2,11895,"[{""event"":""blur"",""trial"":0,""time"":0},{""event"":""focus"",""trial"":0,""time"":0},{""event"":""fullscreenenter"",""trial"":1,""time"":1695},{""event"":""fullscreenexit"",""trial"":35,""time"":292531},{""event"":""blur"",""trial"":35,""time"":296199},{""event"":""focus"",""trial"":35,""time"":306283}]",NA,NA,NA,NA,NA,1,#D89F1C,#3386FF,0,10,0,38,1,1327.9000000357628,37,1,396.60000002384186,0,0,experiment,NA,NA,2,0.5,0.5,5,4,126,3,NA
fcp-trial,189,981707,0.0-136.0-0.0,voc_e2,11895,"[{""event"":""blur"",""trial"":0,""time"":0},{""event"":""focus"",""trial"":0,""time"":0},{""event"":""fullscreenenter"",""trial"":1,""time"":1695},{""event"":""fullscreenexit"",""trial"":35,""time"":292531},{""event"":""blur"",""trial"":35,""time"":296199},{""event"":""focus"",""trial"":35,""time"":306283}]",NA,NA,NA,NA,NA,3,#D8271C,#741CD8,0,10,0,38,1,557.7000000476837,39,0,474.4000000357628,10,1,experiment,NA,NA,1,0.3,0.7,3,2,127,3,NA
fcp-trial,190,984483,0.0-137.0-0.0,voc_e2,11895,"[{""event"":""blur"",""trial"":0,""time"":0},{""event"":""focus"",""trial"":0,""time"":0},{""event"":""fullscreenenter"",""trial"":1,""time"":1695},{""event"":""fullscreenexit"",""trial"":35,""time"":292531},{""event"":""blur"",""trial"":35,""time"":296199},{""event"":""focus"",""trial"":35,""time"":306283}]",NA,NA,NA,NA,NA,2,#D89F1C,#3386FF,0,0,0,38,1,788.8000000119209,37,1,479.199999988079,0,0,experiment,NA,NA,2,0.5,0.5,5,4,128,3,NA
fcp-trial,191,987099,0.0-138.0-0.0,voc_e2,11895,"[{""event"":""blur"",""trial"":0,""time"":0},{""event"":""focus"",""trial"":0,""time"":0},{""event"":""fullscreenenter"",""trial"":1,""time"":1695},{""event"":""fullscreenexit"",""trial"":35,""time"":292531},{""event"":""blur"",""trial"":35,""time"":296199},{""event"":""focus"",""trial"":35,""time"":306283}]",NA,NA,NA,NA,NA,1,#D8271C,#741CD8,0,10,0,38,1,646.6999999880791,39,0,457.699999988079,10,1,experiment,NA,NA,1,0.3,0.7,3,2,129,3,NA
fcp-trial,192,989803,0.0-139.0-0.0,voc_e2,11895,"[{""event"":""blur"",""trial"":0,""time"":0},{""event"":""focus"",""trial"":0,""time"":0},{""event"":""fullscreenenter"",""trial"":1,""time"":1695},{""event"":""fullscreenexit"",""trial"":35,""time"":292531},{""event"":""blur"",""trial"":35,""time"":296199},{""event"":""focus"",""trial"":35,""time"":306283}]",NA,NA,NA,NA,NA,4,#D89F1C,#3386FF,0,0,0,38,1,732.3999999761581,39,0,460.699999988079,0,1,experiment,NA,NA,2,0.5,0.5,5,4,130,3,NA
fcp-trial,193,993168,0.0-140.0-0.0,voc_e2,11895,"[{""event"":""blur"",""trial"":0,""time"":0},{""event"":""focus"",""trial"":0,""time"":0},{""event"":""fullscreenenter"",""trial"":1,""time"":1695},{""event"":""fullscreenexit"",""trial"":35,""time"":292531},{""event"":""blur"",""trial"":35,""time"":296199},{""event"":""focus"",""trial"":35,""time"":306283}]",NA,NA,NA,NA,NA,3,#1CD855,#FA92F8,10,10,1,40,0,1232.7999999523163,39,0,624.4000000357628,10,0,experiment,NA,NA,0,0.9,0.1,0,1,131,3,NA
fcp-trial,194,996689,0.0-141.0-0.0,voc_e2,11895,"[{""event"":""blur"",""trial"":0,""time"":0},{""event"":""focus"",""trial"":0,""time"":0},{""event"":""fullscreenenter"",""trial"":1,""time"":1695},{""event"":""fullscreenexit"",""trial"":35,""time"":292531},{""event"":""blur"",""trial"":35,""time"":296199},{""event"":""focus"",""trial"":35,""time"":306283}]",NA,NA,NA,NA,NA,6,#D8271C,#741CD8,0,0,0,38,1,1594.199999988079,39,0,418.800000011921,0,1,experiment,NA,NA,1,0.3,0.7,3,2,132,3,NA
fcp-trial,195,999416,0.0-142.0-0.0,voc_e2,11895,"[{""event"":""blur"",""trial"":0,""time"":0},{""event"":""focus"",""trial"":0,""time"":0},{""event"":""fullscreenenter"",""trial"":1,""time"":1695},{""event"":""fullscreenexit"",""trial"":35,""time"":292531},{""event"":""blur"",""trial"":35,""time"":296199},{""event"":""focus"",""trial"":35,""time"":306283}]",NA,NA,NA,NA,NA,5,#FA92F8,#1CD855,0,10,0,38,1,580.6999999880791,39,0,636.6000000238419,10,1,experiment,NA,NA,0,0.1,0.9,1,0,133,3,NA
fcp-trial,196,1003135,0.0-143.0-0.0,voc_e2,11895,"[{""event"":""blur"",""trial"":0,""time"":0},{""event"":""focus"",""trial"":0,""time"":0},{""event"":""fullscreenenter"",""trial"":1,""time"":1695},{""event"":""fullscreenexit"",""trial"":35,""time"":292531},{""event"":""blur"",""trial"":35,""time"":296199},{""event"":""focus"",""trial"":35,""time"":306283}]",NA,NA,NA,NA,NA,1,#D89F1C,#3386FF,0,0,0,40,0,1362.5,39,0,847.1999999880791,0,1,experiment,NA,NA,2,0.5,0.5,5,4,134,3,NA
fcp-trial,197,1006281,0.0-144.0-0.0,voc_e2,11895,"[{""event"":""blur"",""trial"":0,""time"":0},{""event"":""focus"",""trial"":0,""time"":0},{""event"":""fullscreenenter"",""trial"":1,""time"":1695},{""event"":""fullscreenexit"",""trial"":35,""time"":292531},{""event"":""blur"",""trial"":35,""time"":296199},{""event"":""focus"",""trial"":35,""time"":306283}]",NA,NA,NA,NA,NA,4,#1CD855,#FA92F8,10,0,1,38,1,944.3000000119209,39,0,691.5,0,0,experiment,NA,NA,0,0.9,0.1,0,1,135,3,NA
fcp-trial,198,1008916,0.0-145.0-0.0,voc_e2,11895,"[{""event"":""blur"",""trial"":0,""time"":0},{""event"":""focus"",""trial"":0,""time"":0},{""event"":""fullscreenenter"",""trial"":1,""time"":1695},{""event"":""fullscreenexit"",""trial"":35,""time"":292531},{""event"":""blur"",""trial"":35,""time"":296199},{""event"":""focus"",""trial"":35,""time"":306283}]",NA,NA,NA,NA,NA,0,#3386FF,#D89F1C,10,10,1,38,1,564.6999999880791,39,0,560.5,10,0,experiment,NA,NA,2,0.5,0.5,4,5,136,4,NA
fcp-trial,199,1011600,0.0-146.0-0.0,voc_e2,11895,"[{""event"":""blur"",""trial"":0,""time"":0},{""event"":""focus"",""trial"":0,""time"":0},{""event"":""fullscreenenter"",""trial"":1,""time"":1695},{""event"":""fullscreenexit"",""trial"":35,""time"":292531},{""event"":""blur"",""trial"":35,""time"":296199},{""event"":""focus"",""trial"":35,""time"":306283}]",NA,NA,NA,NA,NA,5,#741CD8,#D8271C,10,0,1,38,1,702.1999999880791,37,1,472.89999997615814,10,1,experiment,NA,NA,1,0.7,0.3,2,3,137,4,NA
fcp-trial,200,1014126,0.0-147.0-0.0,voc_e2,11895,"[{""event"":""blur"",""trial"":0,""time"":0},{""event"":""focus"",""trial"":0,""time"":0},{""event"":""fullscreenenter"",""trial"":1,""time"":1695},{""event"":""fullscreenexit"",""trial"":35,""time"":292531},{""event"":""blur"",""trial"":35,""time"":296199},{""event"":""focus"",""trial"":35,""time"":306283}]",NA,NA,NA,NA,NA,6,#FA92F8,#1CD855,0,10,0,38,1,554.8000000119209,39,0,462.5,10,1,experiment,NA,NA,0,0.1,0.9,1,0,138,4,NA
fcp-trial,201,1017531,0.0-148.0-0.0,voc_e2,11895,"[{""event"":""blur"",""trial"":0,""time"":0},{""event"":""focus"",""trial"":0,""time"":0},{""event"":""fullscreenenter"",""trial"":1,""time"":1695},{""event"":""fullscreenexit"",""trial"":35,""time"":292531},{""event"":""blur"",""trial"":35,""time"":296199},{""event"":""focus"",""trial"":35,""time"":306283}]",NA,NA,NA,NA,NA,3,#3386FF,#D89F1C,0,0,1,40,0,1269.699999988079,37,1,627.3999999761581,0,1,experiment,NA,NA,2,0.5,0.5,4,5,139,4,NA
fcp-trial,202,1020174,0.0-149.0-0.0,voc_e2,11895,"[{""event"":""blur"",""trial"":0,""time"":0},{""event"":""focus"",""trial"":0,""time"":0},{""event"":""fullscreenenter"",""trial"":1,""time"":1695},{""event"":""fullscreenexit"",""trial"":35,""time"":292531},{""event"":""blur"",""trial"":35,""time"":296199},{""event"":""focus"",""trial"":35,""time"":306283}]",NA,NA,NA,NA,NA,4,#D8271C,#741CD8,0,10,0,38,1,677.5,39,0,456.10000002384186,10,1,experiment,NA,NA,1,0.3,0.7,3,2,140,4,NA
fcp-trial,203,1022774,0.0-150.0-0.0,voc_e2,11895,"[{""event"":""blur"",""trial"":0,""time"":0},{""event"":""focus"",""trial"":0,""time"":0},{""event"":""fullscreenenter"",""trial"":1,""time"":1695},{""event"":""fullscreenexit"",""trial"":35,""time"":292531},{""event"":""blur"",""trial"":35,""time"":296199},{""event"":""focus"",""trial"":35,""time"":306283}]",NA,NA,NA,NA,NA,1,#1CD855,#FA92F8,10,0,1,38,1,700.8999999761581,37,1,389.199999988079,10,1,experiment,NA,NA,0,0.9,0.1,0,1,141,4,NA
fcp-trial,204,1025520,0.0-151.0-0.0,voc_e2,11895,"[{""event"":""blur"",""trial"":0,""time"":0},{""event"":""focus"",""trial"":0,""time"":0},{""event"":""fullscreenenter"",""trial"":1,""time"":1695},{""event"":""fullscreenexit"",""trial"":35,""time"":292531},{""event"":""blur"",""trial"":35,""time"":296199},{""event"":""focus"",""trial"":35,""time"":306283}]",NA,NA,NA,NA,NA,2,#741CD8,#D8271C,0,0,1,38,1,801.1999999880791,37,1,433.800000011921,0,1,experiment,NA,NA,1,0.7,0.3,2,3,142,4,NA
fcp-trial,205,1027868,0.0-152.0-0.0,voc_e2,11895,"[{""event"":""blur"",""trial"":0,""time"":0},{""event"":""focus"",""trial"":0,""time"":0},{""event"":""fullscreenenter"",""trial"":1,""time"":1695},{""event"":""fullscreenexit"",""trial"":35,""time"":292531},{""event"":""blur"",""trial"":35,""time"":296199},{""event"":""focus"",""trial"":35,""time"":306283}]",NA,NA,NA,NA,NA,5,#3386FF,#D89F1C,0,0,1,38,1,456.60000002384186,39,0,382.60000002384186,0,0,experiment,NA,NA,2,0.5,0.5,4,5,143,4,NA
fcp-trial,206,1030283,0.0-153.0-0.0,voc_e2,11895,"[{""event"":""blur"",""trial"":0,""time"":0},{""event"":""focus"",""trial"":0,""time"":0},{""event"":""fullscreenenter"",""trial"":1,""time"":1695},{""event"":""fullscreenexit"",""trial"":35,""time"":292531},{""event"":""blur"",""trial"":35,""time"":296199},{""event"":""focus"",""trial"":35,""time"":306283}]",NA,NA,NA,NA,NA,6,#3386FF,#D89F1C,10,10,1,38,1,493.9000000357628,39,0,410.5,10,0,experiment,NA,NA,2,0.5,0.5,4,5,144,4,NA
fcp-trial,207,1032768,0.0-154.0-0.0,voc_e2,11895,"[{""event"":""blur"",""trial"":0,""time"":0},{""event"":""focus"",""trial"":0,""time"":0},{""event"":""fullscreenenter"",""trial"":1,""time"":1695},{""event"":""fullscreenexit"",""trial"":35,""time"":292531},{""event"":""blur"",""trial"":35,""time"":296199},{""event"":""focus"",""trial"":35,""time"":306283}]",NA,NA,NA,NA,NA,0,#FA92F8,#1CD855,0,10,0,38,1,514.8999999761581,39,0,459.199999988079,10,1,experiment,NA,NA,0,0.1,0.9,1,0,145,4,NA
fcp-trial,208,1035442,0.0-155.0-0.0,voc_e2,11895,"[{""event"":""blur"",""trial"":0,""time"":0},{""event"":""focus"",""trial"":0,""time"":0},{""event"":""fullscreenenter"",""trial"":1,""time"":1695},{""event"":""fullscreenexit"",""trial"":35,""time"":292531},{""event"":""blur"",""trial"":35,""time"":296199},{""event"":""focus"",""trial"":35,""time"":306283}]",NA,NA,NA,NA,NA,0,#D8271C,#741CD8,10,10,0,38,1,714.6000000238419,39,0,445.800000011921,10,1,experiment,NA,NA,1,0.3,0.7,3,2,146,4,NA
fcp-trial,209,1038227,0.0-156.0-0.0,voc_e2,11895,"[{""event"":""blur"",""trial"":0,""time"":0},{""event"":""focus"",""trial"":0,""time"":0},{""event"":""fullscreenenter"",""trial"":1,""time"":1695},{""event"":""fullscreenexit"",""trial"":35,""time"":292531},{""event"":""blur"",""trial"":35,""time"":296199},{""event"":""focus"",""trial"":35,""time"":306283}]",NA,NA,NA,NA,NA,2,#FA92F8,#1CD855,0,10,0,38,1,822,39,0,451.699999988079,10,1,experiment,NA,NA,0,0.1,0.9,1,0,147,4,NA
fcp-trial,210,1040676,0.0-157.0-0.0,voc_e2,11895,"[{""event"":""blur"",""trial"":0,""time"":0},{""event"":""focus"",""trial"":0,""time"":0},{""event"":""fullscreenenter"",""trial"":1,""time"":1695},{""event"":""fullscreenexit"",""trial"":35,""time"":292531},{""event"":""blur"",""trial"":35,""time"":296199},{""event"":""focus"",""trial"":35,""time"":306283}]",NA,NA,NA,NA,NA,1,#1CD855,#FA92F8,10,0,1,38,1,550.1999999880791,37,1,388.89999997615814,10,1,experiment,NA,NA,0,0.9,0.1,0,1,148,4,NA
fcp-trial,211,1043158,0.0-158.0-0.0,voc_e2,11895,"[{""event"":""blur"",""trial"":0,""time"":0},{""event"":""focus"",""trial"":0,""time"":0},{""event"":""fullscreenenter"",""trial"":1,""time"":1695},{""event"":""fullscreenexit"",""trial"":35,""time"":292531},{""event"":""blur"",""trial"":35,""time"":296199},{""event"":""focus"",""trial"":35,""time"":306283}]",NA,NA,NA,NA,NA,6,#741CD8,#D8271C,0,0,1,38,1,533,37,1,442.89999997615814,0,1,experiment,NA,NA,1,0.7,0.3,2,3,149,4,NA
fcp-trial,212,1045531,0.0-159.0-0.0,voc_e2,11895,"[{""event"":""blur"",""trial"":0,""time"":0},{""event"":""focus"",""trial"":0,""time"":0},{""event"":""fullscreenenter"",""trial"":1,""time"":1695},{""event"":""fullscreenexit"",""trial"":35,""time"":292531},{""event"":""blur"",""trial"":35,""time"":296199},{""event"":""focus"",""trial"":35,""time"":306283}]",NA,NA,NA,NA,NA,5,#FA92F8,#1CD855,0,10,0,38,1,412.19999998807907,39,0,454.4000000357628,10,1,experiment,NA,NA,0,0.1,0.9,1,0,150,4,NA
fcp-trial,213,1048044,0.0-160.0-0.0,voc_e2,11895,"[{""event"":""blur"",""trial"":0,""time"":0},{""event"":""focus"",""trial"":0,""time"":0},{""event"":""fullscreenenter"",""trial"":1,""time"":1695},{""event"":""fullscreenexit"",""trial"":35,""time"":292531},{""event"":""blur"",""trial"":35,""time"":296199},{""event"":""focus"",""trial"":35,""time"":306283}]",NA,NA,NA,NA,NA,5,#3386FF,#D89F1C,10,0,1,38,1,574.4000000357628,39,0,421.7000000476837,0,0,experiment,NA,NA,2,0.5,0.5,4,5,151,4,NA
fcp-trial,214,1050659,0.0-161.0-0.0,voc_e2,11895,"[{""event"":""blur"",""trial"":0,""time"":0},{""event"":""focus"",""trial"":0,""time"":0},{""event"":""fullscreenenter"",""trial"":1,""time"":1695},{""event"":""fullscreenexit"",""trial"":35,""time"":292531},{""event"":""blur"",""trial"":35,""time"":296199},{""event"":""focus"",""trial"":35,""time"":306283}]",NA,NA,NA,NA,NA,0,#741CD8,#D8271C,10,10,1,38,1,711.9000000357628,37,1,393.89999997615814,10,1,experiment,NA,NA,1,0.7,0.3,2,3,152,4,NA
fcp-trial,215,1053067,0.0-162.0-0.0,voc_e2,11895,"[{""event"":""blur"",""trial"":0,""time"":0},{""event"":""focus"",""trial"":0,""time"":0},{""event"":""fullscreenenter"",""trial"":1,""time"":1695},{""event"":""fullscreenexit"",""trial"":35,""time"":292531},{""event"":""blur"",""trial"":35,""time"":296199},{""event"":""focus"",""trial"":35,""time"":306283}]",NA,NA,NA,NA,NA,0,#3386FF,#D89F1C,10,0,1,38,1,468.60000002384186,39,0,429.10000002384186,0,0,experiment,NA,NA,2,0.5,0.5,4,5,153,4,NA
