trial_type,trial_index,time_elapsed,internal_node_id,task_version,subject_id,interactions,success,rt,stimulus,key_press,button_pressed,offer,arcade_color_L,arcade_color_R,arcade_outcome_L,arcade_outcome_R,correct,stage_1_key,stage_1_choice,stage_1_rt,stage_2_key,stage_2_choice,stage_2_rt,stage_3_outcome,accuracy,phase,responses,num_errors,context,reward_prob_L,reward_prob_R,arcade_id_L,arcade_id_R,trial,block,response
pavlovia,0,13,0.0-0.0,voc_e2,11811,[],NA,NA,NA,NA,NA,NA,NA,NA,NA,NA,NA,NA,NA,NA,NA,NA,NA,NA,NA,NA,NA,NA,NA,NA,NA,NA,NA,NA,NA,NA
fullscreen,1,4097,0.0-1.0,voc_e2,11811,"[{""event"":""fullscreenenter"",""trial"":1,""time"":3143}]",TRUE,NA,NA,NA,NA,NA,NA,NA,NA,NA,NA,NA,NA,NA,NA,NA,NA,NA,NA,NA,NA,NA,NA,NA,NA,NA,NA,NA,NA,NA
audio-keyboard-response,2,6653,0.0-2.0,voc_e2,11811,"[{""event"":""fullscreenenter"",""trial"":1,""time"":3143}]",NA,0,static/audio/beep_loop.wav,32,NA,NA,NA,NA,NA,NA,NA,NA,NA,NA,NA,NA,NA,NA,NA,NA,NA,NA,NA,NA,NA,NA,NA,NA,NA,NA
audio-test,3,8994,0.0-3.0,voc_e2,11811,"[{""event"":""fullscreenenter"",""trial"":1,""time"":3143}]",NA,NA,static/audio/turtle.wav,NA,3,NA,NA,NA,NA,NA,NA,NA,NA,NA,NA,NA,NA,NA,NA,NA,NA,NA,NA,NA,NA,NA,NA,NA,NA,NA
audio-test,4,11895,0.0-4.0,voc_e2,11811,"[{""event"":""fullscreenenter"",""trial"":1,""time"":3143}]",NA,NA,static/audio/shark.wav,NA,2,NA,NA,NA,NA,NA,NA,NA,NA,NA,NA,NA,NA,NA,NA,NA,NA,NA,NA,NA,NA,NA,NA,NA,NA,NA
audio-instructions,5,21194,0.0-5.0-0.0,voc_e2,11811,"[{""event"":""fullscreenenter"",""trial"":1,""time"":3143}]",NA,3510.9999999999964,static/audio/instructions1.wav,NA,0,NA,NA,NA,NA,NA,NA,NA,NA,NA,NA,NA,NA,NA,NA,NA,NA,NA,NA,NA,NA,NA,NA,NA,NA,NA
audio-instructions,6,34111,0.0-5.0-1.0,voc_e2,11811,"[{""event"":""fullscreenenter"",""trial"":1,""time"":3143}]",NA,6174,static/audio/instructions2.wav,NA,0,NA,NA,NA,NA,NA,NA,NA,NA,NA,NA,NA,NA,NA,NA,NA,NA,NA,NA,NA,NA,NA,NA,NA,NA,NA
audio-instructions,7,41528,0.0-5.0-2.0,voc_e2,11811,"[{""event"":""fullscreenenter"",""trial"":1,""time"":3143}]",NA,1611,static/audio/instructions3.wav,NA,0,NA,NA,NA,NA,NA,NA,NA,NA,NA,NA,NA,NA,NA,NA,NA,NA,NA,NA,NA,NA,NA,NA,NA,NA,NA
audio-instructions,8,58761,0.0-5.0-3.0,voc_e2,11811,"[{""event"":""fullscreenenter"",""trial"":1,""time"":3143}]",NA,4008,static/audio/instructions4.wav,NA,0,NA,NA,NA,NA,NA,NA,NA,NA,NA,NA,NA,NA,NA,NA,NA,NA,NA,NA,NA,NA,NA,NA,NA,NA,NA
audio-instructions,9,73928,0.0-5.0-4.0,voc_e2,11811,"[{""event"":""fullscreenenter"",""trial"":1,""time"":3143}]",NA,5779,static/audio/instructions5.wav,NA,0,NA,NA,NA,NA,NA,NA,NA,NA,NA,NA,NA,NA,NA,NA,NA,NA,NA,NA,NA,NA,NA,NA,NA,NA,NA
fcp-practice,10,92450,0.0-5.0-5.0-0.0,voc_e2,11811,"[{""event"":""fullscreenenter"",""trial"":1,""time"":3143}]",NA,NA,NA,NA,NA,NA,#EDC948,#46d3c8,10,0,1,null,null,null,37,1,16953,10,1,practice,NA,NA,NA,NA,NA,NA,NA,NA,NA,NA
fcp-practice,11,93957,0.0-5.0-5.0-1.0,voc_e2,11811,"[{""event"":""fullscreenenter"",""trial"":1,""time"":3143}]",NA,NA,NA,NA,NA,NA,#EDC948,#46d3c8,10,0,1,null,null,null,37,1,0,10,1,practice,NA,NA,NA,NA,NA,NA,NA,NA,NA,NA
fcp-practice,12,97490,0.0-5.0-5.0-2.0,voc_e2,11811,"[{""event"":""fullscreenenter"",""trial"":1,""time"":3143}]",NA,NA,NA,NA,NA,NA,#EDC948,#46d3c8,0,10,1,null,null,null,37,1,2024.9999999999854,0,1,practice,NA,NA,NA,NA,NA,NA,NA,NA,NA,NA
fcp-practice,13,99616,0.0-5.0-5.0-3.0,voc_e2,11811,"[{""event"":""fullscreenenter"",""trial"":1,""time"":3143}]",NA,NA,NA,NA,NA,NA,#EDC948,#46d3c8,10,0,1,null,null,null,37,1,605.0000000000146,10,1,practice,NA,NA,NA,NA,NA,NA,NA,NA,NA,NA
fcp-practice,14,101331,0.0-5.0-5.0-4.0,voc_e2,11811,"[{""event"":""fullscreenenter"",""trial"":1,""time"":3143}]",NA,NA,NA,NA,NA,NA,#EDC948,#46d3c8,10,0,1,null,null,null,37,1,210,10,1,practice,NA,NA,NA,NA,NA,NA,NA,NA,NA,NA
audio-instructions,15,156215,0.0-5.0-6.0,voc_e2,11811,"[{""event"":""fullscreenenter"",""trial"":1,""time"":3143}]",NA,36874,static/audio/instructions6.wav,NA,0,NA,NA,NA,NA,NA,NA,NA,NA,NA,NA,NA,NA,NA,NA,NA,NA,NA,NA,NA,NA,NA,NA,NA,NA,NA
audio-instructions,16,179449,0.0-5.0-7.0,voc_e2,11811,"[{""event"":""fullscreenenter"",""trial"":1,""time"":3143}]",NA,4031,static/audio/instructions7.wav,NA,0,NA,NA,NA,NA,NA,NA,NA,NA,NA,NA,NA,NA,NA,NA,NA,NA,NA,NA,NA,NA,NA,NA,NA,NA,NA
audio-instructions,17,192349,0.0-5.0-8.0,voc_e2,11811,"[{""event"":""fullscreenenter"",""trial"":1,""time"":3143}]",NA,3425.999999999971,static/audio/instructions8.wav,NA,0,NA,NA,NA,NA,NA,NA,NA,NA,NA,NA,NA,NA,NA,NA,NA,NA,NA,NA,NA,NA,NA,NA,NA,NA,NA
fcp-comprehension,18,208187,0.0-5.0-9.0,voc_e2,11811,"[{""event"":""fullscreenenter"",""trial"":1,""time"":3143}]",NA,15836,NA,NA,NA,NA,NA,NA,NA,NA,NA,NA,NA,NA,NA,NA,NA,NA,NA,NA,"true,true",0,NA,NA,NA,NA,NA,NA,NA,NA
audio-instructions,19,217316,0.0-6.0-0.0,voc_e2,11811,"[{""event"":""fullscreenenter"",""trial"":1,""time"":3143}]",NA,3579.000000000029,static/audio/instructions9.wav,NA,0,NA,NA,NA,NA,NA,NA,NA,NA,NA,NA,NA,NA,NA,NA,NA,NA,NA,NA,NA,NA,NA,NA,NA,NA,NA
audio-instructions,20,238017,0.0-6.0-1.0,voc_e2,11811,"[{""event"":""fullscreenenter"",""trial"":1,""time"":3143}]",NA,8583,static/audio/instructions10.wav,NA,0,NA,NA,NA,NA,NA,NA,NA,NA,NA,NA,NA,NA,NA,NA,NA,NA,NA,NA,NA,NA,NA,NA,NA,NA,NA
fcp-trial,21,251826,0.0-6.0-2.0,voc_e2,11811,"[{""event"":""fullscreenenter"",""trial"":1,""time"":3143}]",NA,NA,NA,NA,NA,0,#EDC948,#46d3c8,10,10,1,38,1,6919,39,0,5378,10,0,practice,NA,NA,NA,NA,NA,NA,NA,NA,NA,NA
audio-instructions,22,265334,0.0-6.0-3.0,voc_e2,11811,"[{""event"":""fullscreenenter"",""trial"":1,""time"":3143}]",NA,2497,static/audio/instructions11.wav,NA,0,NA,NA,NA,NA,NA,NA,NA,NA,NA,NA,NA,NA,NA,NA,NA,NA,NA,NA,NA,NA,NA,NA,NA,NA,NA
fcp-trial,23,271657,0.0-6.0-4.0,voc_e2,11811,"[{""event"":""fullscreenenter"",""trial"":1,""time"":3143}]",NA,NA,NA,NA,NA,6,#EDC948,#46d3c8,10,10,1,40,0,2500,39,0,2314.000000000058,10,0,practice,NA,NA,NA,NA,NA,NA,NA,NA,NA,NA
audio-instructions,24,298985,0.0-6.0-5.0,voc_e2,11811,"[{""event"":""fullscreenenter"",""trial"":1,""time"":3143}]",NA,8634,static/audio/instructions12.wav,NA,0,NA,NA,NA,NA,NA,NA,NA,NA,NA,NA,NA,NA,NA,NA,NA,NA,NA,NA,NA,NA,NA,NA,NA,NA,NA
audio-instructions,25,308936,0.0-6.0-6.0,voc_e2,11811,"[{""event"":""fullscreenenter"",""trial"":1,""time"":3143}]",NA,2354.000000000058,static/audio/instructions13.wav,NA,0,NA,NA,NA,NA,NA,NA,NA,NA,NA,NA,NA,NA,NA,NA,NA,NA,NA,NA,NA,NA,NA,NA,NA,NA,NA
audio-instructions,26,318969,0.0-6.0-7.0,voc_e2,11811,"[{""event"":""fullscreenenter"",""trial"":1,""time"":3143}]",NA,1585,static/audio/instructions14.wav,NA,0,NA,NA,NA,NA,NA,NA,NA,NA,NA,NA,NA,NA,NA,NA,NA,NA,NA,NA,NA,NA,NA,NA,NA,NA,NA
audio-instructions,27,327303,0.0-7.0-0.0,voc_e2,11811,"[{""event"":""fullscreenenter"",""trial"":1,""time"":3143}]",NA,1416,static/audio/instructions15.wav,NA,0,NA,NA,NA,NA,NA,NA,NA,NA,NA,NA,NA,NA,NA,NA,NA,NA,NA,NA,NA,NA,NA,NA,NA,NA,NA
audio-instructions,28,339237,0.0-7.0-1.0,voc_e2,11811,"[{""event"":""fullscreenenter"",""trial"":1,""time"":3143}]",NA,5107,static/audio/instructions16.wav,NA,0,NA,NA,NA,NA,NA,NA,NA,NA,NA,NA,NA,NA,NA,NA,NA,NA,NA,NA,NA,NA,NA,NA,NA,NA,NA
audio-instructions,29,348070,0.0-7.0-2.0,voc_e2,11811,"[{""event"":""fullscreenenter"",""trial"":1,""time"":3143}]",NA,1150.9999999999418,static/audio/instructions17.wav,NA,0,NA,NA,NA,NA,NA,NA,NA,NA,NA,NA,NA,NA,NA,NA,NA,NA,NA,NA,NA,NA,NA,NA,NA,NA,NA
audio-instructions,30,357320,0.0-7.0-3.0,voc_e2,11811,"[{""event"":""fullscreenenter"",""trial"":1,""time"":3143}]",NA,1482,static/audio/instructions18.wav,NA,0,NA,NA,NA,NA,NA,NA,NA,NA,NA,NA,NA,NA,NA,NA,NA,NA,NA,NA,NA,NA,NA,NA,NA,NA,NA
audio-instructions,31,366137,0.0-7.0-4.0,voc_e2,11811,"[{""event"":""fullscreenenter"",""trial"":1,""time"":3143}]",NA,2072,static/audio/instructions19.wav,NA,0,NA,NA,NA,NA,NA,NA,NA,NA,NA,NA,NA,NA,NA,NA,NA,NA,NA,NA,NA,NA,NA,NA,NA,NA,NA
fcp-comprehension,32,412795,0.0-7.0-5.0,voc_e2,11811,"[{""event"":""fullscreenenter"",""trial"":1,""time"":3143}]",NA,46655,NA,NA,NA,NA,NA,NA,NA,NA,NA,NA,NA,NA,NA,NA,NA,NA,NA,NA,"false,false,false,true",0,NA,NA,NA,NA,NA,NA,NA,NA
audio-instructions,33,424223,0.0-8.0,voc_e2,11811,"[{""event"":""fullscreenenter"",""trial"":1,""time"":3143}]",NA,2168,static/audio/ready.wav,NA,0,NA,NA,NA,NA,NA,NA,NA,NA,NA,NA,NA,NA,NA,NA,NA,NA,NA,NA,NA,NA,NA,NA,NA,NA,NA
fcp-trial,34,433036,0.0-9.0-0.0,voc_e2,11811,"[{""event"":""fullscreenenter"",""trial"":1,""time"":3143}]",NA,NA,NA,NA,NA,2,#741CD8,#D8271C,10,0,1,38,1,4957,39,0,2339,0,0,experiment,NA,NA,1,0.7,0.3,2,3,1,1,NA
fcp-trial,35,440835,0.0-10.0-0.0,voc_e2,11811,"[{""event"":""fullscreenenter"",""trial"":1,""time"":3143}]",NA,NA,NA,NA,NA,2,#D89F1C,#3386FF,0,0,1,38,1,3918,37,1,2368.999999999942,0,1,experiment,NA,NA,2,0.5,0.5,4,5,2,1,NA
fcp-trial,36,447584,0.0-11.0-0.0,voc_e2,11811,"[{""event"":""fullscreenenter"",""trial"":1,""time"":3143}]",NA,NA,NA,NA,NA,6,#D89F1C,#3386FF,0,10,1,38,1,1942,39,0,3296.999999999942,10,0,experiment,NA,NA,2,0.5,0.5,4,5,3,1,NA
fcp-trial,37,457066,0.0-12.0-0.0,voc_e2,11811,"[{""event"":""fullscreenenter"",""trial"":1,""time"":3143}]",NA,NA,NA,NA,NA,3,#D8271C,#741CD8,10,10,0,38,1,3138,39,0,4835.000000000058,10,1,experiment,NA,NA,1,0.3,0.7,3,2,4,1,NA
fcp-trial,38,464632,0.0-13.0-0.0,voc_e2,11811,"[{""event"":""fullscreenenter"",""trial"":1,""time"":3143}]",NA,NA,NA,NA,NA,1,#FA92F8,#1CD855,0,10,0,38,1,2891,39,0,3164,10,1,experiment,NA,NA,0,0.1,0.9,1,0,5,1,NA
fcp-trial,39,470014,0.0-14.0-0.0,voc_e2,11811,"[{""event"":""fullscreenenter"",""trial"":1,""time"":3143}]",NA,NA,NA,NA,NA,0,#3386FF,#D89F1C,10,0,0,38,1,2655,37,1,1214.9999999999418,10,0,experiment,NA,NA,2,0.5,0.5,5,4,6,1,NA
fcp-trial,40,474667,0.0-15.0-0.0,voc_e2,11811,"[{""event"":""fullscreenenter"",""trial"":1,""time"":3143}]",NA,NA,NA,NA,NA,5,#D8271C,#741CD8,10,10,0,38,1,1872,39,0,1268,10,1,experiment,NA,NA,1,0.3,0.7,3,2,7,1,NA
fcp-trial,41,480915,0.0-16.0-0.0,voc_e2,11811,"[{""event"":""fullscreenenter"",""trial"":1,""time"":3143}]",NA,NA,NA,NA,NA,0,#1CD855,#FA92F8,10,0,1,38,1,1707.0000000000582,37,1,3030,10,1,experiment,NA,NA,0,0.9,0.1,0,1,8,1,NA
fcp-trial,42,485415,0.0-17.0-0.0,voc_e2,11811,"[{""event"":""fullscreenenter"",""trial"":1,""time"":3143}]",NA,NA,NA,NA,NA,4,#3386FF,#D89F1C,0,0,0,38,1,1692,37,1,1298,0,0,experiment,NA,NA,2,0.5,0.5,5,4,9,1,NA
fcp-trial,43,489883,0.0-18.0-0.0,voc_e2,11811,"[{""event"":""fullscreenenter"",""trial"":1,""time"":3143}]",NA,NA,NA,NA,NA,6,#FA92F8,#1CD855,0,10,0,38,1,1956,39,0,1001.0000000000582,10,1,experiment,NA,NA,0,0.1,0.9,1,0,10,1,NA
fcp-trial,44,494033,0.0-19.0-0.0,voc_e2,11811,"[{""event"":""fullscreenenter"",""trial"":1,""time"":3143}]",NA,NA,NA,NA,NA,1,#3386FF,#D89F1C,10,0,0,38,1,1543,37,1,1096,10,0,experiment,NA,NA,2,0.5,0.5,5,4,11,1,NA
fcp-trial,45,498587,0.0-20.0-0.0,voc_e2,11811,"[{""event"":""fullscreenenter"",""trial"":1,""time"":3143}]",NA,NA,NA,NA,NA,6,#D8271C,#741CD8,0,0,0,38,1,1572,39,0,1470.0000000000582,0,1,experiment,NA,NA,1,0.3,0.7,3,2,12,1,NA
fcp-trial,46,503021,0.0-21.0-0.0,voc_e2,11811,"[{""event"":""fullscreenenter"",""trial"":1,""time"":3143}]",NA,NA,NA,NA,NA,4,#1CD855,#FA92F8,10,0,1,38,1,1217.9999999999418,37,1,1705.0000000000582,10,1,experiment,NA,NA,0,0.9,0.1,0,1,13,1,NA
fcp-trial,47,508183,0.0-22.0-0.0,voc_e2,11811,"[{""event"":""fullscreenenter"",""trial"":1,""time"":3143}]",NA,NA,NA,NA,NA,1,#741CD8,#D8271C,10,0,1,38,1,1635,39,0,2016.9999999999418,0,0,experiment,NA,NA,1,0.7,0.3,2,3,14,1,NA
fcp-trial,48,511867,0.0-23.0-0.0,voc_e2,11811,"[{""event"":""fullscreenenter"",""trial"":1,""time"":3143}]",NA,NA,NA,NA,NA,2,#1CD855,#FA92F8,10,0,1,38,1,721.9999999999418,37,1,1449.0000000001164,10,1,experiment,NA,NA,0,0.9,0.1,0,1,15,1,NA
fcp-trial,49,517320,0.0-24.0-0.0,voc_e2,11811,"[{""event"":""fullscreenenter"",""trial"":1,""time"":3143}]",NA,NA,NA,NA,NA,5,#D89F1C,#3386FF,10,10,1,38,1,2723,39,0,1220,10,0,experiment,NA,NA,2,0.5,0.5,4,5,16,1,NA
fcp-trial,50,523750,0.0-25.0-0.0,voc_e2,11811,"[{""event"":""fullscreenenter"",""trial"":1,""time"":3143}]",NA,NA,NA,NA,NA,4,#D8271C,#741CD8,10,10,0,38,1,4053,39,0,865,10,1,experiment,NA,NA,1,0.3,0.7,3,2,17,1,NA
fcp-trial,51,528000,0.0-26.0-0.0,voc_e2,11811,"[{""event"":""fullscreenenter"",""trial"":1,""time"":3143}]",NA,NA,NA,NA,NA,3,#3386FF,#D89F1C,0,10,0,38,1,1526,37,1,1214,0,0,experiment,NA,NA,2,0.5,0.5,5,4,18,1,NA
fcp-trial,52,532116,0.0-27.0-0.0,voc_e2,11811,"[{""event"":""fullscreenenter"",""trial"":1,""time"":3143}]",NA,NA,NA,NA,NA,3,#FA92F8,#1CD855,0,10,0,38,1,1379,39,0,1226,10,1,experiment,NA,NA,0,0.1,0.9,1,0,19,1,NA
fcp-trial,53,536618,0.0-28.0-0.0,voc_e2,11811,"[{""event"":""fullscreenenter"",""trial"":1,""time"":3143}]",NA,NA,NA,NA,NA,0,#741CD8,#D8271C,10,0,1,38,1,1396,37,1,1593.0000000001164,10,1,experiment,NA,NA,1,0.7,0.3,2,3,20,1,NA
fcp-trial,54,541534,0.0-29.0-0.0,voc_e2,11811,"[{""event"":""fullscreenenter"",""trial"":1,""time"":3143}]",NA,NA,NA,NA,NA,5,#FA92F8,#1CD855,0,10,0,38,1,2139,39,0,1267,10,1,experiment,NA,NA,0,0.1,0.9,1,0,21,1,NA
fcp-trial,55,552253,0.0-30.0-0.0,voc_e2,11811,"[{""event"":""fullscreenenter"",""trial"":1,""time"":3143}]",NA,NA,NA,NA,NA,1,#D8271C,#741CD8,10,10,0,38,1,4257,39,0,4950,10,1,experiment,NA,NA,1,0.3,0.7,3,2,22,1,NA
fcp-trial,56,556721,0.0-31.0-0.0,voc_e2,11811,"[{""event"":""fullscreenenter"",""trial"":1,""time"":3143}]",NA,NA,NA,NA,NA,4,#3386FF,#D89F1C,0,10,0,38,1,1421,37,1,1536,0,0,experiment,NA,NA,2,0.5,0.5,5,4,23,1,NA
fcp-trial,57,563584,0.0-32.0-0.0,voc_e2,11811,"[{""event"":""fullscreenenter"",""trial"":1,""time"":3143}]",NA,NA,NA,NA,NA,0,#741CD8,#D8271C,10,0,1,38,1,3406,37,1,1946,10,1,experiment,NA,NA,1,0.7,0.3,2,3,24,1,NA
fcp-trial,58,567602,0.0-33.0-0.0,voc_e2,11811,"[{""event"":""fullscreenenter"",""trial"":1,""time"":3143}]",NA,NA,NA,NA,NA,2,#FA92F8,#1CD855,0,10,0,38,1,1393,39,0,1112,10,1,experiment,NA,NA,0,0.1,0.9,1,0,25,1,NA
fcp-trial,59,572586,0.0-34.0-0.0,voc_e2,11811,"[{""event"":""fullscreenenter"",""trial"":1,""time"":3143}]",NA,NA,NA,NA,NA,5,#1CD855,#FA92F8,10,0,1,38,1,2505,37,1,966.9999999998836,10,1,experiment,NA,NA,0,0.9,0.1,0,1,26,1,NA
fcp-trial,60,577070,0.0-35.0-0.0,voc_e2,11811,"[{""event"":""fullscreenenter"",""trial"":1,""time"":3143}]",NA,NA,NA,NA,NA,3,#741CD8,#D8271C,10,10,1,38,1,1555,37,1,1418,10,1,experiment,NA,NA,1,0.7,0.3,2,3,27,1,NA
fcp-trial,61,581288,0.0-36.0-0.0,voc_e2,11811,"[{""event"":""fullscreenenter"",""trial"":1,""time"":3143}]",NA,NA,NA,NA,NA,0,#D89F1C,#3386FF,0,10,1,38,1,1694,39,0,1013,10,0,experiment,NA,NA,2,0.5,0.5,4,5,28,1,NA
fcp-trial,62,585636,0.0-37.0-0.0,voc_e2,11811,"[{""event"":""fullscreenenter"",""trial"":1,""time"":3143}]",NA,NA,NA,NA,NA,3,#1CD855,#FA92F8,10,10,1,38,1,1625,37,1,1213,10,1,experiment,NA,NA,0,0.9,0.1,0,1,29,1,NA
fcp-trial,63,591021,0.0-38.0-0.0,voc_e2,11811,"[{""event"":""fullscreenenter"",""trial"":1,""time"":3143}]",NA,NA,NA,NA,NA,4,#741CD8,#D8271C,10,0,1,38,1,2606,37,1,1268,10,1,experiment,NA,NA,1,0.7,0.3,2,3,30,1,NA
fcp-trial,64,595670,0.0-39.0-0.0,voc_e2,11811,"[{""event"":""fullscreenenter"",""trial"":1,""time"":3143}]",NA,NA,NA,NA,NA,6,#D89F1C,#3386FF,10,0,1,38,1,1908,39,0,1230,0,0,experiment,NA,NA,2,0.5,0.5,4,5,31,1,NA
fcp-trial,65,599403,0.0-40.0-0.0,voc_e2,11811,"[{""event"":""fullscreenenter"",""trial"":1,""time"":3143}]",NA,NA,NA,NA,NA,6,#1CD855,#FA92F8,10,0,1,38,1,1440,37,1,780,10,1,experiment,NA,NA,0,0.9,0.1,0,1,32,1,NA
fcp-trial,66,603668,0.0-41.0-0.0,voc_e2,11811,"[{""event"":""fullscreenenter"",""trial"":1,""time"":3143}]",NA,NA,NA,NA,NA,3,#3386FF,#D89F1C,10,10,0,38,1,1573,37,1,1182,10,0,experiment,NA,NA,2,0.5,0.5,5,4,33,1,NA
fcp-trial,67,608219,0.0-42.0-0.0,voc_e2,11811,"[{""event"":""fullscreenenter"",""trial"":1,""time"":3143}]",NA,NA,NA,NA,NA,5,#D8271C,#741CD8,10,10,0,38,1,1961,39,0,1078,10,1,experiment,NA,NA,1,0.3,0.7,3,2,34,1,NA
fcp-trial,68,612356,0.0-43.0-0.0,voc_e2,11811,"[{""event"":""fullscreenenter"",""trial"":1,""time"":3143}]",NA,NA,NA,NA,NA,1,#1CD855,#FA92F8,10,0,1,38,1,1144.0000000001164,37,1,1480,10,1,experiment,NA,NA,0,0.9,0.1,0,1,35,1,NA
fcp-trial,69,615991,0.0-44.0-0.0,voc_e2,11811,"[{""event"":""fullscreenenter"",""trial"":1,""time"":3143}]",NA,NA,NA,NA,NA,1,#D89F1C,#3386FF,10,10,1,38,1,1259.0000000001164,39,0,865,10,0,experiment,NA,NA,2,0.5,0.5,4,5,36,1,NA
fcp-trial,70,619937,0.0-45.0-0.0,voc_e2,11811,"[{""event"":""fullscreenenter"",""trial"":1,""time"":3143}]",NA,NA,NA,NA,NA,2,#3386FF,#D89F1C,0,0,0,38,1,952,37,1,1483,0,0,experiment,NA,NA,2,0.5,0.5,5,4,37,1,NA
fcp-trial,71,623820,0.0-46.0-0.0,voc_e2,11811,"[{""event"":""fullscreenenter"",""trial"":1,""time"":3143}]",NA,NA,NA,NA,NA,0,#FA92F8,#1CD855,0,10,0,38,1,1303,39,0,1051,10,1,experiment,NA,NA,0,0.1,0.9,1,0,38,1,NA
fcp-trial,72,628405,0.0-47.0-0.0,voc_e2,11811,"[{""event"":""fullscreenenter"",""trial"":1,""time"":3143}]",NA,NA,NA,NA,NA,2,#741CD8,#D8271C,10,10,1,38,1,1794,37,1,1278.9999999998836,10,1,experiment,NA,NA,1,0.7,0.3,2,3,39,1,NA
fcp-trial,73,636755,0.0-48.0-0.0,voc_e2,11811,"[{""event"":""fullscreenenter"",""trial"":1,""time"":3143}]",NA,NA,NA,NA,NA,6,#741CD8,#D8271C,10,0,1,38,1,2205,37,1,4633.999999999884,10,1,experiment,NA,NA,1,0.7,0.3,2,3,40,1,NA
fcp-trial,74,640870,0.0-49.0-0.0,voc_e2,11811,"[{""event"":""fullscreenenter"",""trial"":1,""time"":3143}]",NA,NA,NA,NA,NA,5,#3386FF,#D89F1C,10,0,0,38,1,1155,37,1,1449.0000000001164,10,0,experiment,NA,NA,2,0.5,0.5,5,4,41,1,NA
fcp-trial,75,644805,0.0-50.0-0.0,voc_e2,11811,"[{""event"":""fullscreenenter"",""trial"":1,""time"":3143}]",NA,NA,NA,NA,NA,4,#1CD855,#FA92F8,10,0,1,38,1,1222,37,1,1200,10,1,experiment,NA,NA,0,0.9,0.1,0,1,42,1,NA
fcp-trial,76,650173,0.0-51.0-0.0,voc_e2,11811,"[{""event"":""fullscreenenter"",""trial"":1,""time"":3143}]",NA,NA,NA,NA,NA,0,#FA92F8,#1CD855,0,10,0,38,1,2177,39,0,1681,10,1,experiment,NA,NA,0,0.1,0.9,1,0,43,1,NA
fcp-trial,77,654632,0.0-52.0-0.0,voc_e2,11811,"[{""event"":""fullscreenenter"",""trial"":1,""time"":3143}]",NA,NA,NA,NA,NA,2,#1CD855,#FA92F8,0,0,1,38,1,1403,37,1,1540,0,1,experiment,NA,NA,0,0.9,0.1,0,1,44,1,NA
fcp-trial,78,658775,0.0-53.0-0.0,voc_e2,11811,"[{""event"":""fullscreenenter"",""trial"":1,""time"":3143}]",NA,NA,NA,NA,NA,5,#D89F1C,#3386FF,0,0,1,38,1,1412,39,0,1220.0000000001164,0,0,experiment,NA,NA,2,0.5,0.5,4,5,45,1,NA
fcp-trial,79,666633,0.0-54.0-0.0,voc_e2,11811,"[{""event"":""fullscreenenter"",""trial"":1,""time"":3143}]",NA,NA,NA,NA,NA,6,#D8271C,#741CD8,0,10,0,40,0,3454,37,1,2895,0,0,experiment,NA,NA,1,0.3,0.7,3,2,46,2,NA
fcp-trial,80,672890,0.0-55.0-0.0,voc_e2,11811,"[{""event"":""fullscreenenter"",""trial"":1,""time"":3143}]",NA,NA,NA,NA,NA,0,#3386FF,#D89F1C,10,0,0,38,1,3493,37,1,1252.0000000001164,10,0,experiment,NA,NA,2,0.5,0.5,5,4,47,2,NA
fcp-trial,81,677371,0.0-56.0-0.0,voc_e2,11811,"[{""event"":""fullscreenenter"",""trial"":1,""time"":3143}]",NA,NA,NA,NA,NA,4,#1CD855,#FA92F8,10,0,1,38,1,1741.9999999998836,37,1,1229.0000000001164,10,1,experiment,NA,NA,0,0.9,0.1,0,1,48,2,NA
fcp-trial,82,684039,0.0-57.0-0.0,voc_e2,11811,"[{""event"":""fullscreenenter"",""trial"":1,""time"":3143}]",NA,NA,NA,NA,NA,2,#741CD8,#D8271C,10,0,1,38,1,4008.0000000001164,37,1,1147,10,1,experiment,NA,NA,1,0.7,0.3,2,3,49,2,NA
fcp-trial,83,689523,0.0-58.0-0.0,voc_e2,11811,"[{""event"":""fullscreenenter"",""trial"":1,""time"":3143}]",NA,NA,NA,NA,NA,1,#D8271C,#741CD8,0,10,0,38,1,2973,39,0,1001,10,1,experiment,NA,NA,1,0.3,0.7,3,2,50,2,NA
fcp-trial,84,693793,0.0-59.0-0.0,voc_e2,11811,"[{""event"":""fullscreenenter"",""trial"":1,""time"":3143}]",NA,NA,NA,NA,NA,5,#1CD855,#FA92F8,10,0,1,38,1,1354,37,1,1404,10,1,experiment,NA,NA,0,0.9,0.1,0,1,51,2,NA
fcp-trial,85,698206,0.0-60.0-0.0,voc_e2,11811,"[{""event"":""fullscreenenter"",""trial"":1,""time"":3143}]",NA,NA,NA,NA,NA,1,#3386FF,#D89F1C,10,0,0,38,1,1473,37,1,1430,10,0,experiment,NA,NA,2,0.5,0.5,5,4,52,2,NA
fcp-trial,86,703092,0.0-61.0-0.0,voc_e2,11811,"[{""event"":""fullscreenenter"",""trial"":1,""time"":3143}]",NA,NA,NA,NA,NA,4,#D8271C,#741CD8,0,10,0,38,1,1891,39,0,1483,10,1,experiment,NA,NA,1,0.3,0.7,3,2,53,2,NA
fcp-trial,87,706677,0.0-62.0-0.0,voc_e2,11811,"[{""event"":""fullscreenenter"",""trial"":1,""time"":3143}]",NA,NA,NA,NA,NA,6,#1CD855,#FA92F8,0,0,1,38,1,1272,37,1,802.0000000001164,0,1,experiment,NA,NA,0,0.9,0.1,0,1,54,2,NA
fcp-trial,88,710778,0.0-63.0-0.0,voc_e2,11811,"[{""event"":""fullscreenenter"",""trial"":1,""time"":3143}]",NA,NA,NA,NA,NA,3,#D89F1C,#3386FF,0,0,1,38,1,1671,39,0,919.0000000001164,0,0,experiment,NA,NA,2,0.5,0.5,4,5,55,2,NA
fcp-trial,89,715441,0.0-64.0-0.0,voc_e2,11811,"[{""event"":""fullscreenenter"",""trial"":1,""time"":3143}]",NA,NA,NA,NA,NA,0,#D8271C,#741CD8,10,0,0,38,1,2451.0000000001164,39,0,661,0,1,experiment,NA,NA,1,0.3,0.7,3,2,56,2,NA
fcp-trial,90,718593,0.0-65.0-0.0,voc_e2,11811,"[{""event"":""fullscreenenter"",""trial"":1,""time"":3143}]",NA,NA,NA,NA,NA,3,#FA92F8,#1CD855,0,10,0,38,1,747,39,0,885,10,1,experiment,NA,NA,0,0.1,0.9,1,0,57,2,NA
fcp-trial,91,722196,0.0-66.0-0.0,voc_e2,11811,"[{""event"":""fullscreenenter"",""trial"":1,""time"":3143}]",NA,NA,NA,NA,NA,6,#D89F1C,#3386FF,0,10,1,38,1,1275,39,0,816,10,0,experiment,NA,NA,2,0.5,0.5,4,5,58,2,NA
fcp-trial,92,725873,0.0-67.0-0.0,voc_e2,11811,"[{""event"":""fullscreenenter"",""trial"":1,""time"":3143}]",NA,NA,NA,NA,NA,2,#3386FF,#D89F1C,0,10,0,38,1,1351,37,1,815,0,0,experiment,NA,NA,2,0.5,0.5,5,4,59,2,NA
fcp-trial,93,729643,0.0-68.0-0.0,voc_e2,11811,"[{""event"":""fullscreenenter"",""trial"":1,""time"":3143}]",NA,NA,NA,NA,NA,1,#FA92F8,#1CD855,0,10,0,38,1,1424,39,0,834,10,1,experiment,NA,NA,0,0.1,0.9,1,0,60,2,NA
fcp-trial,94,737707,0.0-69.0-0.0,voc_e2,11811,"[{""event"":""fullscreenenter"",""trial"":1,""time"":3143}]",NA,NA,NA,NA,NA,5,#741CD8,#D8271C,10,0,1,40,0,5027,37,1,1526,10,1,experiment,NA,NA,1,0.7,0.3,2,3,61,2,NA
fcp-trial,95,743577,0.0-70.0-0.0,voc_e2,11811,"[{""event"":""fullscreenenter"",""trial"":1,""time"":3143}]",NA,NA,NA,NA,NA,4,#D89F1C,#3386FF,10,0,1,38,1,3491,39,0,867,0,0,experiment,NA,NA,2,0.5,0.5,4,5,62,2,NA
fcp-trial,96,750890,0.0-71.0-0.0,voc_e2,11811,"[{""event"":""fullscreenenter"",""trial"":1,""time"":3143}]",NA,NA,NA,NA,NA,3,#741CD8,#D8271C,0,0,1,40,0,4672,37,1,1130,0,1,experiment,NA,NA,1,0.7,0.3,2,3,63,2,NA
fcp-trial,97,757114,0.0-72.0-0.0,voc_e2,11811,"[{""event"":""fullscreenenter"",""trial"":1,""time"":3143}]",NA,NA,NA,NA,NA,6,#D8271C,#741CD8,10,10,0,40,0,2908.9999999998836,39,0,1803,10,1,experiment,NA,NA,1,0.3,0.7,3,2,64,2,NA
fcp-trial,98,761079,0.0-73.0-0.0,voc_e2,11811,"[{""event"":""fullscreenenter"",""trial"":1,""time"":3143}]",NA,NA,NA,NA,NA,3,#D89F1C,#3386FF,0,0,1,38,1,1685,39,0,769.0000000001164,0,0,experiment,NA,NA,2,0.5,0.5,4,5,65,2,NA
fcp-trial,99,765128,0.0-74.0-0.0,voc_e2,11811,"[{""event"":""fullscreenenter"",""trial"":1,""time"":3143}]",NA,NA,NA,NA,NA,4,#FA92F8,#1CD855,0,10,0,38,1,1439,39,0,1100.0000000001164,10,1,experiment,NA,NA,0,0.1,0.9,1,0,66,2,NA
fcp-trial,100,773581,0.0-75.0-0.0,voc_e2,11811,"[{""event"":""fullscreenenter"",""trial"":1,""time"":3143}]",NA,NA,NA,NA,NA,1,#D8271C,#741CD8,0,10,0,38,1,5521,39,0,1421,10,1,experiment,NA,NA,1,0.3,0.7,3,2,67,2,NA
fcp-trial,101,778973,0.0-76.0-0.0,voc_e2,11811,"[{""event"":""fullscreenenter"",""trial"":1,""time"":3143}]",NA,NA,NA,NA,NA,4,#741CD8,#D8271C,10,10,1,40,0,2721,37,1,1161.0000000001164,10,1,experiment,NA,NA,1,0.7,0.3,2,3,68,2,NA
fcp-trial,102,783532,0.0-77.0-0.0,voc_e2,11811,"[{""event"":""fullscreenenter"",""trial"":1,""time"":3143}]",NA,NA,NA,NA,NA,6,#FA92F8,#1CD855,0,10,0,38,1,1559,39,0,1488,10,1,experiment,NA,NA,0,0.1,0.9,1,0,69,2,NA
fcp-trial,103,791678,0.0-78.0-0.0,voc_e2,11811,"[{""event"":""fullscreenenter"",""trial"":1,""time"":3143}]",NA,NA,NA,NA,NA,5,#D89F1C,#3386FF,0,10,1,40,0,5237,37,1,1399,0,1,experiment,NA,NA,2,0.5,0.5,4,5,70,2,NA
fcp-trial,104,796728,0.0-79.0-0.0,voc_e2,11811,"[{""event"":""fullscreenenter"",""trial"":1,""time"":3143}]",NA,NA,NA,NA,NA,1,#FA92F8,#1CD855,0,0,0,38,1,2638,39,0,899,0,1,experiment,NA,NA,0,0.1,0.9,1,0,71,2,NA
fcp-trial,105,801108,0.0-80.0-0.0,voc_e2,11811,"[{""event"":""fullscreenenter"",""trial"":1,""time"":3143}]",NA,NA,NA,NA,NA,3,#741CD8,#D8271C,10,0,1,40,0,1807,39,0,1061.9999999998836,0,0,experiment,NA,NA,1,0.7,0.3,2,3,72,2,NA
fcp-trial,106,804749,0.0-81.0-0.0,voc_e2,11811,"[{""event"":""fullscreenenter"",""trial"":1,""time"":3143}]",NA,NA,NA,NA,NA,2,#FA92F8,#1CD855,10,10,0,38,1,1479,39,0,651.0000000001164,10,1,experiment,NA,NA,0,0.1,0.9,1,0,73,2,NA
fcp-trial,107,809012,0.0-82.0-0.0,voc_e2,11811,"[{""event"":""fullscreenenter"",""trial"":1,""time"":3143}]",NA,NA,NA,NA,NA,2,#3386FF,#D89F1C,0,0,0,38,1,1971,37,1,781.9999999998836,0,0,experiment,NA,NA,2,0.5,0.5,5,4,74,2,NA
fcp-trial,108,812879,0.0-83.0-0.0,voc_e2,11811,"[{""event"":""fullscreenenter"",""trial"":1,""time"":3143}]",NA,NA,NA,NA,NA,5,#FA92F8,#1CD855,0,10,0,38,1,1590,39,0,767,10,1,experiment,NA,NA,0,0.1,0.9,1,0,75,2,NA
fcp-trial,109,816480,0.0-84.0-0.0,voc_e2,11811,"[{""event"":""fullscreenenter"",""trial"":1,""time"":3143}]",NA,NA,NA,NA,NA,1,#D89F1C,#3386FF,0,0,1,38,1,1322.0000000001164,39,0,767.0000000001164,0,0,experiment,NA,NA,2,0.5,0.5,4,5,76,2,NA
fcp-trial,110,822474,0.0-85.0-0.0,voc_e2,11811,"[{""event"":""fullscreenenter"",""trial"":1,""time"":3143}]",NA,NA,NA,NA,NA,0,#D8271C,#741CD8,0,10,0,40,0,3405,39,0,1078.0000000001164,10,1,experiment,NA,NA,1,0.3,0.7,3,2,77,2,NA
fcp-trial,111,826080,0.0-86.0-0.0,voc_e2,11811,"[{""event"":""fullscreenenter"",""trial"":1,""time"":3143}]",NA,NA,NA,NA,NA,3,#1CD855,#FA92F8,10,10,1,38,1,1177,37,1,916,10,1,experiment,NA,NA,0,0.9,0.1,0,1,78,2,NA
fcp-trial,112,831147,0.0-87.0-0.0,voc_e2,11811,"[{""event"":""fullscreenenter"",""trial"":1,""time"":3143}]",NA,NA,NA,NA,NA,2,#741CD8,#D8271C,10,0,1,40,0,2472,37,1,1085.0000000001164,10,1,experiment,NA,NA,1,0.7,0.3,2,3,79,2,NA
fcp-trial,113,835228,0.0-88.0-0.0,voc_e2,11811,"[{""event"":""fullscreenenter"",""trial"":1,""time"":3143}]",NA,NA,NA,NA,NA,0,#1CD855,#FA92F8,10,0,1,38,1,1706,37,1,865,10,1,experiment,NA,NA,0,0.9,0.1,0,1,80,2,NA
fcp-trial,114,839680,0.0-89.0-0.0,voc_e2,11811,"[{""event"":""fullscreenenter"",""trial"":1,""time"":3143}]",NA,NA,NA,NA,NA,4,#3386FF,#D89F1C,10,0,0,38,1,2060,37,1,880,10,0,experiment,NA,NA,2,0.5,0.5,5,4,81,2,NA
fcp-trial,115,845034,0.0-90.0-0.0,voc_e2,11811,"[{""event"":""fullscreenenter"",""trial"":1,""time"":3143}]",NA,NA,NA,NA,NA,6,#3386FF,#D89F1C,10,0,0,38,1,3074,37,1,770,10,0,experiment,NA,NA,2,0.5,0.5,5,4,82,2,NA
fcp-trial,116,849740,0.0-91.0-0.0,voc_e2,11811,"[{""event"":""fullscreenenter"",""trial"":1,""time"":3143}]",NA,NA,NA,NA,NA,5,#D8271C,#741CD8,0,10,0,40,0,1619,37,1,1577,0,0,experiment,NA,NA,1,0.3,0.7,3,2,83,2,NA
fcp-trial,117,853433,0.0-92.0-0.0,voc_e2,11811,"[{""event"":""fullscreenenter"",""trial"":1,""time"":3143}]",NA,NA,NA,NA,NA,0,#3386FF,#D89F1C,10,10,0,38,1,1431,37,1,754,10,0,experiment,NA,NA,2,0.5,0.5,5,4,84,2,NA
fcp-trial,118,857610,0.0-93.0-0.0,voc_e2,11811,"[{""event"":""fullscreenenter"",""trial"":1,""time"":3143}]",NA,NA,NA,NA,NA,6,#D8271C,#741CD8,10,10,0,40,0,1705,39,0,960,10,1,experiment,NA,NA,1,0.3,0.7,3,2,85,2,NA
fcp-trial,119,863341,0.0-94.0-0.0,voc_e2,11811,"[{""event"":""fullscreenenter"",""trial"":1,""time"":3143}]",NA,NA,NA,NA,NA,2,#D8271C,#741CD8,10,10,0,40,0,2926.9999999998836,37,1,1294,10,0,experiment,NA,NA,1,0.3,0.7,3,2,86,2,NA
fcp-trial,120,867279,0.0-95.0-0.0,voc_e2,11811,"[{""event"":""fullscreenenter"",""trial"":1,""time"":3143}]",NA,NA,NA,NA,NA,6,#3386FF,#D89F1C,10,0,0,38,1,1447,37,1,979.9999999998836,10,0,experiment,NA,NA,2,0.5,0.5,5,4,87,2,NA
fcp-trial,121,871548,0.0-96.0-0.0,voc_e2,11811,"[{""event"":""fullscreenenter"",""trial"":1,""time"":3143}]",NA,NA,NA,NA,NA,6,#FA92F8,#1CD855,0,10,0,38,1,1994,39,0,762.9999999998836,10,1,experiment,NA,NA,0,0.1,0.9,1,0,88,2,NA
fcp-trial,122,876413,0.0-97.0-0.0,voc_e2,11811,"[{""event"":""fullscreenenter"",""trial"":1,""time"":3143}]",NA,NA,NA,NA,NA,1,#741CD8,#D8271C,10,10,1,40,0,2121.9999999998836,39,0,1230,10,0,experiment,NA,NA,1,0.7,0.3,2,3,89,2,NA
fcp-trial,123,880014,0.0-98.0-0.0,voc_e2,11811,"[{""event"":""fullscreenenter"",""trial"":1,""time"":3143}]",NA,NA,NA,NA,NA,1,#1CD855,#FA92F8,10,0,1,38,1,1322.9999999998836,37,1,766,10,1,experiment,NA,NA,0,0.9,0.1,0,1,90,2,NA
fcp-trial,124,884616,0.0-99.0-0.0,voc_e2,11811,"[{""event"":""fullscreenenter"",""trial"":1,""time"":3143}]",NA,NA,NA,NA,NA,4,#3386FF,#D89F1C,10,10,0,38,1,2287.9999999998836,37,1,803,10,0,experiment,NA,NA,2,0.5,0.5,5,4,91,3,NA
fcp-trial,125,888029,0.0-100.0-0.0,voc_e2,11811,"[{""event"":""fullscreenenter"",""trial"":1,""time"":3143}]",NA,NA,NA,NA,NA,0,#3386FF,#D89F1C,0,10,0,38,1,1207,37,1,695.0000000001164,0,0,experiment,NA,NA,2,0.5,0.5,5,4,92,3,NA
fcp-trial,126,891918,0.0-101.0-0.0,voc_e2,11811,"[{""event"":""fullscreenenter"",""trial"":1,""time"":3143}]",NA,NA,NA,NA,NA,4,#741CD8,#D8271C,10,10,1,40,0,1325,39,0,1052,10,0,experiment,NA,NA,1,0.7,0.3,2,3,93,3,NA
fcp-trial,127,895498,0.0-102.0-0.0,voc_e2,11811,"[{""event"":""fullscreenenter"",""trial"":1,""time"":3143}]",NA,NA,NA,NA,NA,1,#3386FF,#D89F1C,10,0,0,38,1,1239,37,1,830,10,0,experiment,NA,NA,2,0.5,0.5,5,4,94,3,NA
fcp-trial,128,899201,0.0-103.0-0.0,voc_e2,11811,"[{""event"":""fullscreenenter"",""trial"":1,""time"":3143}]",NA,NA,NA,NA,NA,2,#1CD855,#FA92F8,10,0,1,38,1,1489,37,1,704,10,1,experiment,NA,NA,0,0.9,0.1,0,1,95,3,NA
fcp-trial,129,902780,0.0-104.0-0.0,voc_e2,11811,"[{""event"":""fullscreenenter"",""trial"":1,""time"":3143}]",NA,NA,NA,NA,NA,3,#FA92F8,#1CD855,0,10,0,38,1,1252.0000000001164,39,0,815.0000000001164,10,1,experiment,NA,NA,0,0.1,0.9,1,0,96,3,NA
fcp-trial,130,908184,0.0-105.0-0.0,voc_e2,11811,"[{""event"":""fullscreenenter"",""trial"":1,""time"":3143}]",NA,NA,NA,NA,NA,0,#D8271C,#741CD8,0,10,0,40,0,2908.0000000001164,37,1,984,0,0,experiment,NA,NA,1,0.3,0.7,3,2,97,3,NA
fcp-trial,131,914411,0.0-106.0-0.0,voc_e2,11811,"[{""event"":""fullscreenenter"",""trial"":1,""time"":3143}]",NA,NA,NA,NA,NA,5,#3386FF,#D89F1C,10,10,0,40,0,3743,37,1,973.0000000001164,10,0,experiment,NA,NA,2,0.5,0.5,5,4,98,3,NA
fcp-trial,132,918543,0.0-107.0-0.0,voc_e2,11811,"[{""event"":""fullscreenenter"",""trial"":1,""time"":3143}]",NA,NA,NA,NA,NA,3,#741CD8,#D8271C,0,0,1,40,0,1625,39,0,994,0,0,experiment,NA,NA,1,0.7,0.3,2,3,99,3,NA
fcp-trial,133,922866,0.0-108.0-0.0,voc_e2,11811,"[{""event"":""fullscreenenter"",""trial"":1,""time"":3143}]",NA,NA,NA,NA,NA,4,#FA92F8,#1CD855,0,0,0,38,1,2150,39,0,663,0,1,experiment,NA,NA,0,0.1,0.9,1,0,100,3,NA
fcp-trial,134,926917,0.0-109.0-0.0,voc_e2,11811,"[{""event"":""fullscreenenter"",""trial"":1,""time"":3143}]",NA,NA,NA,NA,NA,0,#1CD855,#FA92F8,0,0,1,38,1,1885.9999999998836,37,1,651,0,1,experiment,NA,NA,0,0.9,0.1,0,1,101,3,NA
fcp-trial,135,931594,0.0-110.0-0.0,voc_e2,11811,"[{""event"":""fullscreenenter"",""trial"":1,""time"":3143}]",NA,NA,NA,NA,NA,5,#D8271C,#741CD8,0,0,0,40,0,2324,39,0,844,0,1,experiment,NA,NA,1,0.3,0.7,3,2,102,3,NA
fcp-trial,136,935204,0.0-111.0-0.0,voc_e2,11811,"[{""event"":""fullscreenenter"",""trial"":1,""time"":3143}]",NA,NA,NA,NA,NA,2,#D89F1C,#3386FF,0,0,1,38,1,1512.9999999998836,39,0,587,0,0,experiment,NA,NA,2,0.5,0.5,4,5,103,3,NA
fcp-trial,137,940816,0.0-112.0-0.0,voc_e2,11811,"[{""event"":""fullscreenenter"",""trial"":1,""time"":3143}]",NA,NA,NA,NA,NA,3,#3386FF,#D89F1C,10,0,0,38,1,3404,37,1,700,10,0,experiment,NA,NA,2,0.5,0.5,5,4,104,3,NA
fcp-trial,138,944783,0.0-113.0-0.0,voc_e2,11811,"[{""event"":""fullscreenenter"",""trial"":1,""time"":3143}]",NA,NA,NA,NA,NA,5,#1CD855,#FA92F8,10,10,1,38,1,1806.0000000001164,37,1,649,10,1,experiment,NA,NA,0,0.9,0.1,0,1,105,3,NA
audio-instructions,139,951475,0.0-114.0,voc_e2,11811,"[{""event"":""fullscreenenter"",""trial"":1,""time"":3143}]",NA,2250,static/audio/pause.wav,NA,0,NA,NA,NA,NA,NA,NA,NA,NA,NA,NA,NA,NA,NA,NA,NA,NA,NA,NA,NA,NA,NA,NA,NA,NA,NA
fcp-trial,140,957681,0.0-115.0-0.0,voc_e2,11811,"[{""event"":""fullscreenenter"",""trial"":1,""time"":3143}]",NA,NA,NA,NA,NA,6,#FA92F8,#1CD855,0,0,0,40,0,3518,37,1,1180.0000000001164,0,0,experiment,NA,NA,0,0.1,0.9,1,0,106,3,NA
fcp-trial,141,961283,0.0-116.0-0.0,voc_e2,11811,"[{""event"":""fullscreenenter"",""trial"":1,""time"":3143}]",NA,NA,NA,NA,NA,6,#3386FF,#D89F1C,10,10,0,38,1,1275,37,1,816,10,0,experiment,NA,NA,2,0.5,0.5,5,4,107,3,NA
fcp-trial,142,965996,0.0-117.0-0.0,voc_e2,11811,"[{""event"":""fullscreenenter"",""trial"":1,""time"":3143}]",NA,NA,NA,NA,NA,1,#D8271C,#741CD8,0,10,0,40,0,1942,39,0,1260,10,1,experiment,NA,NA,1,0.3,0.7,3,2,108,3,NA
fcp-trial,143,970219,0.0-118.0-0.0,voc_e2,11811,"[{""event"":""fullscreenenter"",""trial"":1,""time"":3143}]",NA,NA,NA,NA,NA,0,#3386FF,#D89F1C,0,0,0,38,1,1976,37,1,733.9999999998836,0,0,experiment,NA,NA,2,0.5,0.5,5,4,109,3,NA
fcp-trial,144,974446,0.0-119.0-0.0,voc_e2,11811,"[{""event"":""fullscreenenter"",""trial"":1,""time"":3143}]",NA,NA,NA,NA,NA,5,#D8271C,#741CD8,0,10,0,40,0,1587,37,1,1130,0,0,experiment,NA,NA,1,0.3,0.7,3,2,110,3,NA
fcp-trial,145,977667,0.0-120.0-0.0,voc_e2,11811,"[{""event"":""fullscreenenter"",""trial"":1,""time"":3143}]",NA,NA,NA,NA,NA,5,#FA92F8,#1CD855,0,10,0,38,1,1010,39,0,700,10,1,experiment,NA,NA,0,0.1,0.9,1,0,111,3,NA
fcp-trial,146,981118,0.0-121.0-0.0,voc_e2,11811,"[{""event"":""fullscreenenter"",""trial"":1,""time"":3143}]",NA,NA,NA,NA,NA,5,#D89F1C,#3386FF,0,10,1,38,1,1255,39,0,683,10,0,experiment,NA,NA,2,0.5,0.5,4,5,112,3,NA
fcp-trial,147,984436,0.0-122.0-0.0,voc_e2,11811,"[{""event"":""fullscreenenter"",""trial"":1,""time"":3143}]",NA,NA,NA,NA,NA,4,#D89F1C,#3386FF,10,0,1,38,1,1036.9999999998836,39,0,767,0,0,experiment,NA,NA,2,0.5,0.5,4,5,113,3,NA
fcp-trial,148,987871,0.0-123.0-0.0,voc_e2,11811,"[{""event"":""fullscreenenter"",""trial"":1,""time"":3143}]",NA,NA,NA,NA,NA,0,#1CD855,#FA92F8,0,0,1,38,1,1323.9999999998836,37,1,600,0,1,experiment,NA,NA,0,0.9,0.1,0,1,114,3,NA
fcp-trial,149,991895,0.0-124.0-0.0,voc_e2,11811,"[{""event"":""fullscreenenter"",""trial"":1,""time"":3143}]",NA,NA,NA,NA,NA,3,#D8271C,#741CD8,0,10,0,40,0,1419,37,1,1095,0,0,experiment,NA,NA,1,0.3,0.7,3,2,115,3,NA
fcp-trial,150,995435,0.0-125.0-0.0,voc_e2,11811,"[{""event"":""fullscreenenter"",""trial"":1,""time"":3143}]",NA,NA,NA,NA,NA,2,#3386FF,#D89F1C,0,0,0,38,1,1395,37,1,634,0,0,experiment,NA,NA,2,0.5,0.5,5,4,116,3,NA
fcp-trial,151,999315,0.0-126.0-0.0,voc_e2,11811,"[{""event"":""fullscreenenter"",""trial"":1,""time"":3143}]",NA,NA,NA,NA,NA,4,#D8271C,#741CD8,0,10,0,40,0,1439.0000000001164,37,1,930,0,0,experiment,NA,NA,1,0.3,0.7,3,2,117,3,NA
fcp-trial,152,1004384,0.0-127.0-0.0,voc_e2,11811,"[{""event"":""fullscreenenter"",""trial"":1,""time"":3143}]",NA,NA,NA,NA,NA,0,#741CD8,#D8271C,10,10,1,40,0,2765,39,0,791.9999999998836,10,0,experiment,NA,NA,1,0.7,0.3,2,3,118,3,NA
fcp-trial,153,1008439,0.0-128.0-0.0,voc_e2,11811,"[{""event"":""fullscreenenter"",""trial"":1,""time"":3143}]",NA,NA,NA,NA,NA,1,#FA92F8,#1CD855,0,10,0,38,1,1707,39,0,837,10,1,experiment,NA,NA,0,0.1,0.9,1,0,119,3,NA
fcp-trial,154,1011800,0.0-129.0-0.0,voc_e2,11811,"[{""event"":""fullscreenenter"",""trial"":1,""time"":3143}]",NA,NA,NA,NA,NA,1,#D89F1C,#3386FF,0,0,1,38,1,1120,39,0,731,0,0,experiment,NA,NA,2,0.5,0.5,4,5,120,3,NA
fcp-trial,155,1017495,0.0-130.0-0.0,voc_e2,11811,"[{""event"":""fullscreenenter"",""trial"":1,""time"":3143}]",NA,NA,NA,NA,NA,6,#741CD8,#D8271C,10,0,1,40,0,3356,39,0,824,0,0,experiment,NA,NA,1,0.7,0.3,2,3,121,3,NA
fcp-trial,156,1022152,0.0-131.0-0.0,voc_e2,11811,"[{""event"":""fullscreenenter"",""trial"":1,""time"":3143}]",NA,NA,NA,NA,NA,2,#D8271C,#741CD8,0,10,0,40,0,2063.0000000001164,37,1,1085.0000000001164,0,0,experiment,NA,NA,1,0.3,0.7,3,2,122,3,NA
fcp-trial,157,1025621,0.0-132.0-0.0,voc_e2,11811,"[{""event"":""fullscreenenter"",""trial"":1,""time"":3143}]",NA,NA,NA,NA,NA,4,#1CD855,#FA92F8,10,10,1,38,1,1253.9999999998836,37,1,701.0000000001164,10,1,experiment,NA,NA,0,0.9,0.1,0,1,123,3,NA
fcp-trial,158,1029072,0.0-133.0-0.0,voc_e2,11811,"[{""event"":""fullscreenenter"",""trial"":1,""time"":3143}]",NA,NA,NA,NA,NA,3,#3386FF,#D89F1C,10,10,0,38,1,1289,37,1,646,10,0,experiment,NA,NA,2,0.5,0.5,5,4,124,3,NA
fcp-trial,159,1034553,0.0-134.0-0.0,voc_e2,11811,"[{""event"":""fullscreenenter"",""trial"":1,""time"":3143}]",NA,NA,NA,NA,NA,2,#FA92F8,#1CD855,0,10,0,38,1,2320.0000000001164,39,0,1648.9999999998836,10,1,experiment,NA,NA,0,0.1,0.9,1,0,125,3,NA
fcp-trial,160,1039219,0.0-135.0-0.0,voc_e2,11811,"[{""event"":""fullscreenenter"",""trial"":1,""time"":3143}]",NA,NA,NA,NA,NA,3,#FA92F8,#1CD855,0,10,0,38,1,1609.0000000002328,39,0,1546,10,1,experiment,NA,NA,0,0.1,0.9,1,0,126,3,NA
fcp-trial,161,1043071,0.0-136.0-0.0,voc_e2,11811,"[{""event"":""fullscreenenter"",""trial"":1,""time"":3143}]",NA,NA,NA,NA,NA,6,#1CD855,#FA92F8,0,10,1,38,1,1587.0000000002328,37,1,735,0,1,experiment,NA,NA,0,0.9,0.1,0,1,127,3,NA
fcp-trial,162,1046635,0.0-137.0-0.0,voc_e2,11811,"[{""event"":""fullscreenenter"",""trial"":1,""time"":3143}]",NA,NA,NA,NA,NA,3,#D8271C,#741CD8,0,10,0,40,0,1325,39,0,729,10,1,experiment,NA,NA,1,0.3,0.7,3,2,128,3,NA
fcp-trial,163,1050036,0.0-138.0-0.0,voc_e2,11811,"[{""event"":""fullscreenenter"",""trial"":1,""time"":3143}]",NA,NA,NA,NA,NA,5,#FA92F8,#1CD855,0,10,0,38,1,1190,39,0,700.0000000002328,10,1,experiment,NA,NA,0,0.1,0.9,1,0,129,3,NA
fcp-trial,164,1053836,0.0-139.0-0.0,voc_e2,11811,"[{""event"":""fullscreenenter"",""trial"":1,""time"":3143}]",NA,NA,NA,NA,NA,2,#D89F1C,#3386FF,0,0,1,38,1,1539,39,0,748,0,0,experiment,NA,NA,2,0.5,0.5,4,5,130,3,NA
fcp-trial,165,1057836,0.0-140.0-0.0,voc_e2,11811,"[{""event"":""fullscreenenter"",""trial"":1,""time"":3143}]",NA,NA,NA,NA,NA,0,#D89F1C,#3386FF,10,10,1,38,1,1776,39,0,714,10,0,experiment,NA,NA,2,0.5,0.5,4,5,131,3,NA
fcp-trial,166,1061866,0.0-141.0-0.0,voc_e2,11811,"[{""event"":""fullscreenenter"",""trial"":1,""time"":3143}]",NA,NA,NA,NA,NA,4,#D8271C,#741CD8,0,10,0,40,0,1639,39,0,881,10,1,experiment,NA,NA,1,0.3,0.7,3,2,132,3,NA
fcp-trial,167,1066167,0.0-142.0-0.0,voc_e2,11811,"[{""event"":""fullscreenenter"",""trial"":1,""time"":3143}]",NA,NA,NA,NA,NA,5,#741CD8,#D8271C,10,0,1,40,0,1462,37,1,1328,10,1,experiment,NA,NA,1,0.7,0.3,2,3,133,3,NA
fcp-trial,168,1070204,0.0-143.0-0.0,voc_e2,11811,"[{""event"":""fullscreenenter"",""trial"":1,""time"":3143}]",NA,NA,NA,NA,NA,3,#FA92F8,#1CD855,0,10,0,38,1,1660,39,0,866,10,1,experiment,NA,NA,0,0.1,0.9,1,0,134,3,NA
fcp-trial,169,1073504,0.0-144.0-0.0,voc_e2,11811,"[{""event"":""fullscreenenter"",""trial"":1,""time"":3143}]",NA,NA,NA,NA,NA,3,#3386FF,#D89F1C,10,10,0,38,1,1013,37,1,767,10,0,experiment,NA,NA,2,0.5,0.5,5,4,135,3,NA
fcp-trial,170,1078714,0.0-145.0-0.0,voc_e2,11811,"[{""event"":""fullscreenenter"",""trial"":1,""time"":3143}]",NA,NA,NA,NA,NA,0,#741CD8,#D8271C,10,0,1,40,0,2856,39,0,842,0,0,experiment,NA,NA,1,0.7,0.3,2,3,136,4,NA
fcp-trial,171,1082007,0.0-146.0-0.0,voc_e2,11811,"[{""event"":""fullscreenenter"",""trial"":1,""time"":3143}]",NA,NA,NA,NA,NA,1,#FA92F8,#1CD855,0,0,0,38,1,1036.0000000002328,39,0,748,0,1,experiment,NA,NA,0,0.1,0.9,1,0,137,4,NA
fcp-trial,172,1085038,0.0-147.0-0.0,voc_e2,11811,"[{""event"":""fullscreenenter"",""trial"":1,""time"":3143}]",NA,NA,NA,NA,NA,4,#D89F1C,#3386FF,10,10,1,38,1,807,39,0,714.0000000002328,10,0,experiment,NA,NA,2,0.5,0.5,4,5,138,4,NA
fcp-trial,173,1088940,0.0-148.0-0.0,voc_e2,11811,"[{""event"":""fullscreenenter"",""trial"":1,""time"":3143}]",NA,NA,NA,NA,NA,1,#741CD8,#D8271C,10,0,1,40,0,1657,39,0,734,0,0,experiment,NA,NA,1,0.7,0.3,2,3,139,4,NA
fcp-trial,174,1093239,0.0-149.0-0.0,voc_e2,11811,"[{""event"":""fullscreenenter"",""trial"":1,""time"":3143}]",NA,NA,NA,NA,NA,2,#1CD855,#FA92F8,0,10,1,38,1,1641,37,1,1147.0000000002328,0,1,experiment,NA,NA,0,0.9,0.1,0,1,140,4,NA
fcp-trial,175,1096371,0.0-150.0-0.0,voc_e2,11811,"[{""event"":""fullscreenenter"",""trial"":1,""time"":3143}]",NA,NA,NA,NA,NA,0,#FA92F8,#1CD855,0,10,0,38,1,986,39,0,634,10,1,experiment,NA,NA,0,0.1,0.9,1,0,141,4,NA
fcp-trial,176,1100053,0.0-151.0-0.0,voc_e2,11811,"[{""event"":""fullscreenenter"",""trial"":1,""time"":3143}]",NA,NA,NA,NA,NA,1,#D89F1C,#3386FF,0,0,1,38,1,1246,39,0,925,0,0,experiment,NA,NA,2,0.5,0.5,4,5,142,4,NA
fcp-trial,177,1103687,0.0-152.0-0.0,voc_e2,11811,"[{""event"":""fullscreenenter"",""trial"":1,""time"":3143}]",NA,NA,NA,NA,NA,4,#1CD855,#FA92F8,10,0,1,38,1,1173,37,1,949,10,1,experiment,NA,NA,0,0.9,0.1,0,1,143,4,NA
fcp-trial,178,1107835,0.0-153.0-0.0,voc_e2,11811,"[{""event"":""fullscreenenter"",""trial"":1,""time"":3143}]",NA,NA,NA,NA,NA,6,#741CD8,#D8271C,10,10,1,40,0,1639,37,1,998,10,1,experiment,NA,NA,1,0.7,0.3,2,3,144,4,NA
fcp-trial,179,1112843,0.0-154.0-0.0,voc_e2,11811,"[{""event"":""fullscreenenter"",""trial"":1,""time"":3143}]",NA,NA,NA,NA,NA,5,#3386FF,#D89F1C,10,0,0,40,0,2674.000000000233,39,0,822,0,1,experiment,NA,NA,2,0.5,0.5,5,4,145,4,NA
fcp-trial,180,1117482,0.0-155.0-0.0,voc_e2,11811,"[{""event"":""fullscreenenter"",""trial"":1,""time"":3143}]",NA,NA,NA,NA,NA,2,#D8271C,#741CD8,10,10,0,40,0,2169,37,1,962,10,0,experiment,NA,NA,1,0.3,0.7,3,2,146,4,NA
fcp-trial,181,1123467,0.0-156.0-0.0,voc_e2,11811,"[{""event"":""fullscreenenter"",""trial"":1,""time"":3143}]",NA,NA,NA,NA,NA,6,#D89F1C,#3386FF,0,0,1,40,0,3245.999999999767,37,1,1230,0,1,experiment,NA,NA,2,0.5,0.5,4,5,147,4,NA
fcp-trial,182,1127986,0.0-157.0-0.0,voc_e2,11811,"[{""event"":""fullscreenenter"",""trial"":1,""time"":3143}]",NA,NA,NA,NA,NA,0,#D8271C,#741CD8,0,10,0,40,0,1961,39,0,1048,10,1,experiment,NA,NA,1,0.3,0.7,3,2,148,4,NA
fcp-trial,183,1132238,0.0-158.0-0.0,voc_e2,11811,"[{""event"":""fullscreenenter"",""trial"":1,""time"":3143}]",NA,NA,NA,NA,NA,4,#D8271C,#741CD8,0,10,0,40,0,1673,37,1,1068,0,0,experiment,NA,NA,1,0.3,0.7,3,2,149,4,NA
fcp-trial,184,1137004,0.0-159.0-0.0,voc_e2,11811,"[{""event"":""fullscreenenter"",""trial"":1,""time"":3143}]",NA,NA,NA,NA,NA,6,#1CD855,#FA92F8,10,10,1,38,1,2642,37,1,613,10,1,experiment,NA,NA,0,0.9,0.1,0,1,150,4,NA
fcp-trial,185,1141554,0.0-160.0-0.0,voc_e2,11811,"[{""event"":""fullscreenenter"",""trial"":1,""time"":3143}]",NA,NA,NA,NA,NA,5,#1CD855,#FA92F8,10,0,1,38,1,2058,37,1,981,10,1,experiment,NA,NA,0,0.9,0.1,0,1,151,4,NA
fcp-trial,186,1145290,0.0-161.0-0.0,voc_e2,11811,"[{""event"":""fullscreenenter"",""trial"":1,""time"":3143}]",NA,NA,NA,NA,NA,3,#D89F1C,#3386FF,10,0,1,38,1,1407,39,0,817,0,0,experiment,NA,NA,2,0.5,0.5,4,5,152,4,NA
fcp-trial,187,1148343,0.0-162.0-0.0,voc_e2,11811,"[{""event"":""fullscreenenter"",""trial"":1,""time"":3143}]",NA,NA,NA,NA,NA,0,#FA92F8,#1CD855,0,10,0,38,1,920,39,0,619.9999999997672,10,1,experiment,NA,NA,0,0.1,0.9,1,0,153,4,NA
fcp-trial,188,1152243,0.0-163.0-0.0,voc_e2,11811,"[{""event"":""fullscreenenter"",""trial"":1,""time"":3143}]",NA,NA,NA,NA,NA,6,#741CD8,#D8271C,0,10,1,40,0,1621,37,1,768,0,1,experiment,NA,NA,1,0.7,0.3,2,3,154,4,NA
fcp-trial,189,1156438,0.0-164.0-0.0,voc_e2,11811,"[{""event"":""fullscreenenter"",""trial"":1,""time"":3143}]",NA,NA,NA,NA,NA,2,#3386FF,#D89F1C,10,0,0,40,0,1644,37,1,1036,10,0,experiment,NA,NA,2,0.5,0.5,5,4,155,4,NA
fcp-trial,190,1160754,0.0-165.0-0.0,voc_e2,11811,"[{""event"":""fullscreenenter"",""trial"":1,""time"":3143}]",NA,NA,NA,NA,NA,1,#D89F1C,#3386FF,0,0,1,40,0,1761,37,1,1044,0,1,experiment,NA,NA,2,0.5,0.5,4,5,156,4,NA
fcp-trial,191,1164750,0.0-166.0-0.0,voc_e2,11811,"[{""event"":""fullscreenenter"",""trial"":1,""time"":3143}]",NA,NA,NA,NA,NA,2,#741CD8,#D8271C,10,10,1,40,0,1458.0000000002328,37,1,1027.9999999997672,10,1,experiment,NA,NA,1,0.7,0.3,2,3,157,4,NA
fcp-trial,192,1168540,0.0-167.0-0.0,voc_e2,11811,"[{""event"":""fullscreenenter"",""trial"":1,""time"":3143}]",NA,NA,NA,NA,NA,4,#FA92F8,#1CD855,0,10,0,38,1,1377,39,0,901.0000000002328,10,1,experiment,NA,NA,0,0.1,0.9,1,0,158,4,NA
fcp-trial,193,1172939,0.0-168.0-0.0,voc_e2,11811,"[{""event"":""fullscreenenter"",""trial"":1,""time"":3143}]",NA,NA,NA,NA,NA,0,#D89F1C,#3386FF,0,10,1,38,1,2255.999999999767,39,0,633,10,0,experiment,NA,NA,2,0.5,0.5,4,5,159,4,NA
fcp-trial,194,1176458,0.0-169.0-0.0,voc_e2,11811,"[{""event"":""fullscreenenter"",""trial"":1,""time"":3143}]",NA,NA,NA,NA,NA,1,#FA92F8,#1CD855,0,10,0,38,1,1444,39,0,563,10,1,experiment,NA,NA,0,0.1,0.9,1,0,160,4,NA
fcp-trial,195,1180653,0.0-170.0-0.0,voc_e2,11811,"[{""event"":""fullscreenenter"",""trial"":1,""time"":3143}]",NA,NA,NA,NA,NA,1,#741CD8,#D8271C,10,10,1,40,0,1920,39,0,764,10,0,experiment,NA,NA,1,0.7,0.3,2,3,161,4,NA
fcp-trial,196,1183877,0.0-171.0-0.0,voc_e2,11811,"[{""event"":""fullscreenenter"",""trial"":1,""time"":3143}]",NA,NA,NA,NA,NA,6,#3386FF,#D89F1C,10,0,0,38,1,1160,37,1,553,10,0,experiment,NA,NA,2,0.5,0.5,5,4,162,4,NA
fcp-trial,197,1187457,0.0-172.0-0.0,voc_e2,11811,"[{""event"":""fullscreenenter"",""trial"":1,""time"":3143}]",NA,NA,NA,NA,NA,3,#1CD855,#FA92F8,0,0,1,38,1,1369,37,1,700,0,1,experiment,NA,NA,0,0.9,0.1,0,1,163,4,NA
fcp-trial,198,1190757,0.0-173.0-0.0,voc_e2,11811,"[{""event"":""fullscreenenter"",""trial"":1,""time"":3143}]",NA,NA,NA,NA,NA,5,#3386FF,#D89F1C,0,0,0,38,1,1257.0000000002328,37,1,532.9999999997672,0,0,experiment,NA,NA,2,0.5,0.5,5,4,164,4,NA
fcp-trial,199,1194669,0.0-174.0-0.0,voc_e2,11811,"[{""event"":""fullscreenenter"",""trial"":1,""time"":3143}]",NA,NA,NA,NA,NA,3,#D8271C,#741CD8,0,10,0,40,0,1196,37,1,1200,0,0,experiment,NA,NA,1,0.3,0.7,3,2,165,4,NA
fcp-trial,200,1198779,0.0-175.0-0.0,voc_e2,11811,"[{""event"":""fullscreenenter"",""trial"":1,""time"":3143}]",NA,NA,NA,NA,NA,4,#D89F1C,#3386FF,10,10,1,40,0,1644,37,1,955,10,1,experiment,NA,NA,2,0.5,0.5,4,5,166,4,NA
fcp-trial,201,1202841,0.0-176.0-0.0,voc_e2,11811,"[{""event"":""fullscreenenter"",""trial"":1,""time"":3143}]",NA,NA,NA,NA,NA,2,#1CD855,#FA92F8,10,0,1,38,1,1901,37,1,650,10,1,experiment,NA,NA,0,0.9,0.1,0,1,167,4,NA
fcp-trial,202,1206604,0.0-177.0-0.0,voc_e2,11811,"[{""event"":""fullscreenenter"",""trial"":1,""time"":3143}]",NA,NA,NA,NA,NA,5,#741CD8,#D8271C,10,10,1,40,0,1426,37,1,826,10,1,experiment,NA,NA,1,0.7,0.3,2,3,168,4,NA
fcp-trial,203,1210453,0.0-178.0-0.0,voc_e2,11811,"[{""event"":""fullscreenenter"",""trial"":1,""time"":3143}]",NA,NA,NA,NA,NA,3,#D8271C,#741CD8,10,10,0,40,0,1442,37,1,898,10,0,experiment,NA,NA,1,0.3,0.7,3,2,169,4,NA
fcp-trial,204,1214562,0.0-179.0-0.0,voc_e2,11811,"[{""event"":""fullscreenenter"",""trial"":1,""time"":3143}]",NA,NA,NA,NA,NA,0,#FA92F8,#1CD855,0,0,0,38,1,1797,39,0,802,0,1,experiment,NA,NA,0,0.1,0.9,1,0,170,4,NA
fcp-trial,205,1217924,0.0-180.0-0.0,voc_e2,11811,"[{""event"":""fullscreenenter"",""trial"":1,""time"":3143}]",NA,NA,NA,NA,NA,2,#D89F1C,#3386FF,0,10,1,38,1,1284,39,0,566,10,0,experiment,NA,NA,2,0.5,0.5,4,5,171,4,NA
fcp-trial,206,1221904,0.0-181.0-0.0,voc_e2,11811,"[{""event"":""fullscreenenter"",""trial"":1,""time"":3143}]",NA,NA,NA,NA,NA,6,#D89F1C,#3386FF,0,10,1,40,0,1607.9999999997672,37,1,860,0,1,experiment,NA,NA,2,0.5,0.5,4,5,172,4,NA
fcp-trial,207,1225446,0.0-182.0-0.0,voc_e2,11811,"[{""event"":""fullscreenenter"",""trial"":1,""time"":3143}]",NA,NA,NA,NA,NA,4,#D89F1C,#3386FF,0,10,1,40,0,1177,37,1,853.0000000002328,0,1,experiment,NA,NA,2,0.5,0.5,4,5,173,4,NA
fcp-trial,208,1229562,0.0-183.0-0.0,voc_e2,11811,"[{""event"":""fullscreenenter"",""trial"":1,""time"":3143}]",NA,NA,NA,NA,NA,1,#D8271C,#741CD8,0,0,0,40,0,1537,39,0,1069,0,1,experiment,NA,NA,1,0.3,0.7,3,2,174,4,NA
fcp-trial,209,1232625,0.0-184.0-0.0,voc_e2,11811,"[{""event"":""fullscreenenter"",""trial"":1,""time"":3143}]",NA,NA,NA,NA,NA,2,#FA92F8,#1CD855,0,10,0,38,1,969.9999999997672,39,0,584,10,1,experiment,NA,NA,0,0.1,0.9,1,0,175,4,NA
fcp-trial,210,1236187,0.0-185.0-0.0,voc_e2,11811,"[{""event"":""fullscreenenter"",""trial"":1,""time"":3143}]",NA,NA,NA,NA,NA,6,#741CD8,#D8271C,10,10,1,40,0,1293,39,0,758,10,0,experiment,NA,NA,1,0.7,0.3,2,3,176,4,NA
fcp-trial,211,1239476,0.0-186.0-0.0,voc_e2,11811,"[{""event"":""fullscreenenter"",""trial"":1,""time"":3143}]",NA,NA,NA,NA,NA,0,#D89F1C,#3386FF,10,0,1,38,1,1166,39,0,614,0,0,experiment,NA,NA,2,0.5,0.5,4,5,177,4,NA
fcp-trial,212,1243088,0.0-187.0-0.0,voc_e2,11811,"[{""event"":""fullscreenenter"",""trial"":1,""time"":3143}]",NA,NA,NA,NA,NA,2,#741CD8,#D8271C,10,0,1,40,0,1372,39,0,729,0,0,experiment,NA,NA,1,0.7,0.3,2,3,178,4,NA
fcp-trial,213,1246976,0.0-188.0-0.0,voc_e2,11811,"[{""event"":""fullscreenenter"",""trial"":1,""time"":3143}]",NA,NA,NA,NA,NA,6,#1CD855,#FA92F8,10,10,1,40,0,1579,37,1,799.0000000002328,10,1,experiment,NA,NA,0,0.9,0.1,0,1,179,4,NA
fcp-trial,214,1250987,0.0-189.0-0.0,voc_e2,11811,"[{""event"":""fullscreenenter"",""trial"":1,""time"":3143}]",NA,NA,NA,NA,NA,3,#FA92F8,#1CD855,0,10,0,40,0,1755,39,0,745,10,1,experiment,NA,NA,0,0.1,0.9,1,0,180,4,NA
fcp-trial,215,1255208,0.0-190.0-0.0,voc_e2,11811,"[{""event"":""fullscreenenter"",""trial"":1,""time"":3143}]",NA,NA,NA,NA,NA,1,#1CD855,#FA92F8,10,0,1,38,1,2064,37,1,645.9999999997672,10,1,experiment,NA,NA,0,0.9,0.1,0,1,181,5,NA
fcp-trial,216,1259626,0.0-191.0-0.0,voc_e2,11811,"[{""event"":""fullscreenenter"",""trial"":1,""time"":3143}]",NA,NA,NA,NA,NA,3,#D89F1C,#3386FF,0,10,1,38,1,2276,39,0,632,10,0,experiment,NA,NA,2,0.5,0.5,4,5,182,5,NA
fcp-trial,217,1264106,0.0-192.0-0.0,voc_e2,11811,"[{""event"":""fullscreenenter"",""trial"":1,""time"":3143}]",NA,NA,NA,NA,NA,0,#D8271C,#741CD8,10,10,0,40,0,2140,37,1,829,10,0,experiment,NA,NA,1,0.3,0.7,3,2,183,5,NA
fcp-trial,218,1267475,0.0-193.0-0.0,voc_e2,11811,"[{""event"":""fullscreenenter"",""trial"":1,""time"":3143}]",NA,NA,NA,NA,NA,4,#1CD855,#FA92F8,10,0,1,38,1,1245,37,1,613,10,1,experiment,NA,NA,0,0.9,0.1,0,1,184,5,NA
fcp-trial,219,1271108,0.0-194.0-0.0,voc_e2,11811,"[{""event"":""fullscreenenter"",""trial"":1,""time"":3143}]",NA,NA,NA,NA,NA,4,#D8271C,#741CD8,0,0,0,40,0,1512,39,0,611,0,1,experiment,NA,NA,1,0.3,0.7,3,2,185,5,NA
fcp-trial,220,1275454,0.0-195.0-0.0,voc_e2,11811,"[{""event"":""fullscreenenter"",""trial"":1,""time"":3143}]",NA,NA,NA,NA,NA,5,#3386FF,#D89F1C,0,10,0,40,0,1940,37,1,896,0,0,experiment,NA,NA,2,0.5,0.5,5,4,186,5,NA
fcp-trial,221,1278676,0.0-196.0-0.0,voc_e2,11811,"[{""event"":""fullscreenenter"",""trial"":1,""time"":3143}]",NA,NA,NA,NA,NA,5,#FA92F8,#1CD855,0,10,0,38,1,1178,39,0,533,10,1,experiment,NA,NA,0,0.1,0.9,1,0,187,5,NA
fcp-trial,222,1282308,0.0-197.0-0.0,voc_e2,11811,"[{""event"":""fullscreenenter"",""trial"":1,""time"":3143}]",NA,NA,NA,NA,NA,5,#741CD8,#D8271C,10,0,1,40,0,1376.0000000002328,37,1,745,10,1,experiment,NA,NA,1,0.7,0.3,2,3,188,5,NA
fcp-trial,223,1286042,0.0-198.0-0.0,voc_e2,11811,"[{""event"":""fullscreenenter"",""trial"":1,""time"":3143}]",NA,NA,NA,NA,NA,1,#3386FF,#D89F1C,10,0,0,38,1,1707,37,1,514,10,0,experiment,NA,NA,2,0.5,0.5,5,4,189,5,NA
fcp-trial,224,1289410,0.0-199.0-0.0,voc_e2,11811,"[{""event"":""fullscreenenter"",""trial"":1,""time"":3143}]",NA,NA,NA,NA,NA,1,#3386FF,#D89F1C,10,0,0,38,1,1174.0000000002328,37,1,683,10,0,experiment,NA,NA,2,0.5,0.5,5,4,190,5,NA
fcp-trial,225,1293328,0.0-200.0-0.0,voc_e2,11811,"[{""event"":""fullscreenenter"",""trial"":1,""time"":3143}]",NA,NA,NA,NA,NA,3,#FA92F8,#1CD855,0,10,0,38,1,1662,39,0,741,10,1,experiment,NA,NA,0,0.1,0.9,1,0,191,5,NA
fcp-trial,226,1299789,0.0-201.0-0.0,voc_e2,11811,"[{""event"":""fullscreenenter"",""trial"":1,""time"":3143}]",NA,NA,NA,NA,NA,6,#741CD8,#D8271C,10,10,1,40,0,4260,39,0,691,10,0,experiment,NA,NA,1,0.7,0.3,2,3,192,5,NA
fcp-trial,227,1303910,0.0-202.0-0.0,voc_e2,11811,"[{""event"":""fullscreenenter"",""trial"":1,""time"":3143}]",NA,NA,NA,NA,NA,6,#3386FF,#D89F1C,10,10,0,40,0,1697,37,1,913.0000000002328,10,0,experiment,NA,NA,2,0.5,0.5,5,4,193,5,NA
fcp-trial,228,1307364,0.0-203.0-0.0,voc_e2,11811,"[{""event"":""fullscreenenter"",""trial"":1,""time"":3143}]",NA,NA,NA,NA,NA,0,#1CD855,#FA92F8,10,0,1,38,1,1424,37,1,517,10,1,experiment,NA,NA,0,0.9,0.1,0,1,194,5,NA
fcp-trial,229,1310647,0.0-204.0-0.0,voc_e2,11811,"[{""event"":""fullscreenenter"",""trial"":1,""time"":3143}]",NA,NA,NA,NA,NA,0,#D89F1C,#3386FF,10,10,1,38,1,1219,39,0,552,10,0,experiment,NA,NA,2,0.5,0.5,4,5,195,5,NA
fcp-trial,230,1314198,0.0-205.0-0.0,voc_e2,11811,"[{""event"":""fullscreenenter"",""trial"":1,""time"":3143}]",NA,NA,NA,NA,NA,6,#1CD855,#FA92F8,10,10,1,38,1,1422,37,1,618,10,1,experiment,NA,NA,0,0.9,0.1,0,1,196,5,NA
fcp-trial,231,1318244,0.0-206.0-0.0,voc_e2,11811,"[{""event"":""fullscreenenter"",""trial"":1,""time"":3143}]",NA,NA,NA,NA,NA,2,#741CD8,#D8271C,0,0,1,40,0,1770,39,0,766.9999999997672,0,0,experiment,NA,NA,1,0.7,0.3,2,3,197,5,NA
fcp-trial,232,1321610,0.0-207.0-0.0,voc_e2,11811,"[{""event"":""fullscreenenter"",""trial"":1,""time"":3143}]",NA,NA,NA,NA,NA,2,#FA92F8,#1CD855,10,10,0,38,1,1273,39,0,582,10,1,experiment,NA,NA,0,0.1,0.9,1,0,198,5,NA
fcp-trial,233,1325373,0.0-208.0-0.0,voc_e2,11811,"[{""event"":""fullscreenenter"",""trial"":1,""time"":3143}]",NA,NA,NA,NA,NA,4,#741CD8,#D8271C,10,0,1,40,0,1389,39,0,863,0,0,experiment,NA,NA,1,0.7,0.3,2,3,199,5,NA
fcp-trial,234,1329574,0.0-209.0-0.0,voc_e2,11811,"[{""event"":""fullscreenenter"",""trial"":1,""time"":3143}]",NA,NA,NA,NA,NA,5,#3386FF,#D89F1C,10,0,0,40,0,1694,39,0,996.0000000002328,0,1,experiment,NA,NA,2,0.5,0.5,5,4,200,5,NA
fcp-trial,235,1333679,0.0-210.0-0.0,voc_e2,11811,"[{""event"":""fullscreenenter"",""trial"":1,""time"":3143}]",NA,NA,NA,NA,NA,1,#1CD855,#FA92F8,10,10,1,38,1,2013,37,1,581,10,1,experiment,NA,NA,0,0.9,0.1,0,1,201,5,NA
fcp-trial,236,1343125,0.0-211.0-0.0,voc_e2,11811,"[{""event"":""fullscreenenter"",""trial"":1,""time"":3143}]",NA,NA,NA,NA,NA,0,#D8271C,#741CD8,0,0,0,40,0,6703.999999999767,37,1,1231,0,0,experiment,NA,NA,1,0.3,0.7,3,2,202,5,NA
fcp-trial,237,1346545,0.0-212.0-0.0,voc_e2,11811,"[{""event"":""fullscreenenter"",""trial"":1,""time"":3143}]",NA,NA,NA,NA,NA,4,#D89F1C,#3386FF,0,0,1,38,1,1011,39,0,899,0,0,experiment,NA,NA,2,0.5,0.5,4,5,203,5,NA
fcp-trial,238,1349514,0.0-213.0-0.0,voc_e2,11811,"[{""event"":""fullscreenenter"",""trial"":1,""time"":3143}]",NA,NA,NA,NA,NA,5,#FA92F8,#1CD855,10,10,0,38,1,923,39,0,534.9999999997672,10,1,experiment,NA,NA,0,0.1,0.9,1,0,204,5,NA
fcp-trial,239,1352845,0.0-214.0-0.0,voc_e2,11811,"[{""event"":""fullscreenenter"",""trial"":1,""time"":3143}]",NA,NA,NA,NA,NA,2,#D89F1C,#3386FF,0,0,1,38,1,1237,39,0,583,0,0,experiment,NA,NA,2,0.5,0.5,4,5,205,5,NA
fcp-trial,240,1355963,0.0-215.0-0.0,voc_e2,11811,"[{""event"":""fullscreenenter"",""trial"":1,""time"":3143}]",NA,NA,NA,NA,NA,3,#3386FF,#D89F1C,10,10,0,38,1,1058,37,1,549,10,0,experiment,NA,NA,2,0.5,0.5,5,4,206,5,NA
fcp-trial,241,1359709,0.0-216.0-0.0,voc_e2,11811,"[{""event"":""fullscreenenter"",""trial"":1,""time"":3143}]",NA,NA,NA,NA,NA,1,#741CD8,#D8271C,0,0,1,40,0,1637,37,1,597,0,1,experiment,NA,NA,1,0.7,0.3,2,3,207,5,NA
fcp-trial,242,1363343,0.0-217.0-0.0,voc_e2,11811,"[{""event"":""fullscreenenter"",""trial"":1,""time"":3143}]",NA,NA,NA,NA,NA,5,#741CD8,#D8271C,10,0,1,40,0,1392,39,0,733.0000000002328,0,0,experiment,NA,NA,1,0.7,0.3,2,3,208,5,NA
fcp-trial,243,1366497,0.0-218.0-0.0,voc_e2,11811,"[{""event"":""fullscreenenter"",""trial"":1,""time"":3143}]",NA,NA,NA,NA,NA,4,#FA92F8,#1CD855,0,10,0,38,1,1126.9999999997672,39,0,515,10,1,experiment,NA,NA,0,0.1,0.9,1,0,209,5,NA
fcp-trial,244,1369907,0.0-219.0-0.0,voc_e2,11811,"[{""event"":""fullscreenenter"",""trial"":1,""time"":3143}]",NA,NA,NA,NA,NA,3,#D8271C,#741CD8,0,0,0,40,0,1323,39,0,578,0,1,experiment,NA,NA,1,0.3,0.7,3,2,210,5,NA
audio-instructions,245,1377005,0.0-220.0,voc_e2,11811,"[{""event"":""fullscreenenter"",""trial"":1,""time"":3143}]",NA,2657,static/audio/pause.wav,NA,0,NA,NA,NA,NA,NA,NA,NA,NA,NA,NA,NA,NA,NA,NA,NA,NA,NA,NA,NA,NA,NA,NA,NA,NA,NA
fcp-trial,246,1380923,0.0-221.0-0.0,voc_e2,11811,"[{""event"":""fullscreenenter"",""trial"":1,""time"":3143}]",NA,NA,NA,NA,NA,3,#D89F1C,#3386FF,0,10,1,40,0,1799,39,0,612,10,0,experiment,NA,NA,2,0.5,0.5,4,5,211,5,NA
fcp-trial,247,1384214,0.0-222.0-0.0,voc_e2,11811,"[{""event"":""fullscreenenter"",""trial"":1,""time"":3143}]",NA,NA,NA,NA,NA,1,#1CD855,#FA92F8,10,0,1,38,1,1146,37,1,634,10,1,experiment,NA,NA,0,0.9,0.1,0,1,212,5,NA
fcp-trial,248,1388610,0.0-223.0-0.0,voc_e2,11811,"[{""event"":""fullscreenenter"",""trial"":1,""time"":3143}]",NA,NA,NA,NA,NA,6,#FA92F8,#1CD855,0,10,0,40,0,1929.0000000002328,39,0,951,10,1,experiment,NA,NA,0,0.1,0.9,1,0,213,5,NA
fcp-trial,249,1392595,0.0-224.0-0.0,voc_e2,11811,"[{""event"":""fullscreenenter"",""trial"":1,""time"":3143}]",NA,NA,NA,NA,NA,5,#D89F1C,#3386FF,0,10,1,40,0,1375,37,1,1098.0000000002328,0,1,experiment,NA,NA,2,0.5,0.5,4,5,214,5,NA
fcp-trial,250,1396813,0.0-225.0-0.0,voc_e2,11811,"[{""event"":""fullscreenenter"",""trial"":1,""time"":3143}]",NA,NA,NA,NA,NA,0,#D8271C,#741CD8,0,10,0,40,0,1859.9999999997672,37,1,847,0,0,experiment,NA,NA,1,0.3,0.7,3,2,215,5,NA
fcp-trial,251,1400442,0.0-226.0-0.0,voc_e2,11811,"[{""event"":""fullscreenenter"",""trial"":1,""time"":3143}]",NA,NA,NA,NA,NA,4,#FA92F8,#1CD855,0,10,0,40,0,1456,39,0,662,10,1,experiment,NA,NA,0,0.1,0.9,1,0,216,5,NA
fcp-trial,252,1403775,0.0-227.0-0.0,voc_e2,11811,"[{""event"":""fullscreenenter"",""trial"":1,""time"":3143}]",NA,NA,NA,NA,NA,4,#741CD8,#D8271C,10,0,1,40,0,1199.9999999997672,39,0,621.9999999997672,0,0,experiment,NA,NA,1,0.7,0.3,2,3,217,5,NA
fcp-trial,253,1406980,0.0-228.0-0.0,voc_e2,11811,"[{""event"":""fullscreenenter"",""trial"":1,""time"":3143}]",NA,NA,NA,NA,NA,3,#FA92F8,#1CD855,0,10,0,38,1,1212,39,0,483.00000000023283,10,1,experiment,NA,NA,0,0.1,0.9,1,0,218,5,NA
fcp-trial,254,1410319,0.0-229.0-0.0,voc_e2,11811,"[{""event"":""fullscreenenter"",""trial"":1,""time"":3143}]",NA,NA,NA,NA,NA,1,#D89F1C,#3386FF,0,10,1,38,1,1305,39,0,520.9999999997672,10,0,experiment,NA,NA,2,0.5,0.5,4,5,219,5,NA
fcp-trial,255,1415476,0.0-230.0-0.0,voc_e2,11811,"[{""event"":""fullscreenenter"",""trial"":1,""time"":3143}]",NA,NA,NA,NA,NA,6,#3386FF,#D89F1C,10,10,0,40,0,2025,39,0,1623,10,1,experiment,NA,NA,2,0.5,0.5,5,4,220,5,NA
fcp-trial,256,1419065,0.0-231.0-0.0,voc_e2,11811,"[{""event"":""fullscreenenter"",""trial"":1,""time"":3143}]",NA,NA,NA,NA,NA,0,#D89F1C,#3386FF,0,0,1,38,1,1512,39,0,567,0,0,experiment,NA,NA,2,0.5,0.5,4,5,221,5,NA
fcp-trial,257,1422309,0.0-232.0-0.0,voc_e2,11811,"[{""event"":""fullscreenenter"",""trial"":1,""time"":3143}]",NA,NA,NA,NA,NA,6,#D8271C,#741CD8,0,0,0,40,0,1055,39,0,679,0,1,experiment,NA,NA,1,0.3,0.7,3,2,222,5,NA
fcp-trial,258,1425765,0.0-233.0-0.0,voc_e2,11811,"[{""event"":""fullscreenenter"",""trial"":1,""time"":3143}]",NA,NA,NA,NA,NA,5,#FA92F8,#1CD855,0,10,0,40,0,1378,39,0,567,10,1,experiment,NA,NA,0,0.1,0.9,1,0,223,5,NA
fcp-trial,259,1429593,0.0-234.0-0.0,voc_e2,11811,"[{""event"":""fullscreenenter"",""trial"":1,""time"":3143}]",NA,NA,NA,NA,NA,5,#741CD8,#D8271C,10,10,1,40,0,1469,37,1,847,10,1,experiment,NA,NA,1,0.7,0.3,2,3,224,5,NA
fcp-trial,260,1433492,0.0-235.0-0.0,voc_e2,11811,"[{""event"":""fullscreenenter"",""trial"":1,""time"":3143}]",NA,NA,NA,NA,NA,4,#D89F1C,#3386FF,10,10,1,40,0,1478,37,1,911,10,1,experiment,NA,NA,2,0.5,0.5,4,5,225,5,NA
fcp-trial,261,1437665,0.0-236.0-0.0,voc_e2,11811,"[{""event"":""fullscreenenter"",""trial"":1,""time"":3143}]",NA,NA,NA,NA,NA,2,#FA92F8,#1CD855,0,10,0,38,1,2080.999999999767,39,0,583,10,1,experiment,NA,NA,0,0.1,0.9,1,0,226,6,NA
fcp-trial,262,1441384,0.0-237.0-0.0,voc_e2,11811,"[{""event"":""fullscreenenter"",""trial"":1,""time"":3143}]",NA,NA,NA,NA,NA,1,#D8271C,#741CD8,0,10,0,40,0,1455,37,1,754,0,0,experiment,NA,NA,1,0.3,0.7,3,2,227,6,NA
fcp-trial,263,1445450,0.0-238.0-0.0,voc_e2,11811,"[{""event"":""fullscreenenter"",""trial"":1,""time"":3143}]",NA,NA,NA,NA,NA,2,#3386FF,#D89F1C,10,0,0,38,1,2022,37,1,533,10,0,experiment,NA,NA,2,0.5,0.5,5,4,228,6,NA
fcp-trial,264,1449027,0.0-239.0-0.0,voc_e2,11811,"[{""event"":""fullscreenenter"",""trial"":1,""time"":3143}]",NA,NA,NA,NA,NA,3,#741CD8,#D8271C,0,10,1,40,0,1321,39,0,746,10,0,experiment,NA,NA,1,0.7,0.3,2,3,229,6,NA
fcp-trial,265,1452665,0.0-240.0-0.0,voc_e2,11811,"[{""event"":""fullscreenenter"",""trial"":1,""time"":3143}]",NA,NA,NA,NA,NA,2,#D8271C,#741CD8,0,10,0,40,0,1444,39,0,683,10,1,experiment,NA,NA,1,0.3,0.7,3,2,230,6,NA
fcp-trial,266,1456415,0.0-241.0-0.0,voc_e2,11811,"[{""event"":""fullscreenenter"",""trial"":1,""time"":3143}]",NA,NA,NA,NA,NA,0,#FA92F8,#1CD855,0,10,0,38,1,1644,39,0,594.0000000002328,10,1,experiment,NA,NA,0,0.1,0.9,1,0,231,6,NA
fcp-trial,267,1460534,0.0-242.0-0.0,voc_e2,11811,"[{""event"":""fullscreenenter"",""trial"":1,""time"":3143}]",NA,NA,NA,NA,NA,0,#D8271C,#741CD8,10,10,0,40,0,1821,37,1,785,10,0,experiment,NA,NA,1,0.3,0.7,3,2,232,6,NA
fcp-trial,268,1464135,0.0-243.0-0.0,voc_e2,11811,"[{""event"":""fullscreenenter"",""trial"":1,""time"":3143}]",NA,NA,NA,NA,NA,0,#1CD855,#FA92F8,10,0,1,38,1,1622.0000000002328,37,1,469.99999999976717,10,1,experiment,NA,NA,0,0.9,0.1,0,1,233,6,NA
fcp-trial,269,1468114,0.0-244.0-0.0,voc_e2,11811,"[{""event"":""fullscreenenter"",""trial"":1,""time"":3143}]",NA,NA,NA,NA,NA,5,#D89F1C,#3386FF,0,10,1,40,0,1819.9999999997672,39,0,648,10,0,experiment,NA,NA,2,0.5,0.5,4,5,234,6,NA
fcp-trial,270,1472020,0.0-245.0-0.0,voc_e2,11811,"[{""event"":""fullscreenenter"",""trial"":1,""time"":3143}]",NA,NA,NA,NA,NA,1,#741CD8,#D8271C,10,0,1,40,0,1742.0000000002328,39,0,652,0,0,experiment,NA,NA,1,0.7,0.3,2,3,235,6,NA
fcp-trial,271,1475553,0.0-246.0-0.0,voc_e2,11811,"[{""event"":""fullscreenenter"",""trial"":1,""time"":3143}]",NA,NA,NA,NA,NA,1,#1CD855,#FA92F8,10,0,1,38,1,1555.9999999997672,37,1,464.99999999976717,10,1,experiment,NA,NA,0,0.9,0.1,0,1,236,6,NA
fcp-trial,272,1479749,0.0-247.0-0.0,voc_e2,11811,"[{""event"":""fullscreenenter"",""trial"":1,""time"":3143}]",NA,NA,NA,NA,NA,2,#D89F1C,#3386FF,0,0,1,38,1,2103.000000000233,39,0,580,0,0,experiment,NA,NA,2,0.5,0.5,4,5,237,6,NA
fcp-trial,273,1483328,0.0-248.0-0.0,voc_e2,11811,"[{""event"":""fullscreenenter"",""trial"":1,""time"":3143}]",NA,NA,NA,NA,NA,4,#741CD8,#D8271C,10,0,1,40,0,1174,37,1,895.0000000002328,10,1,experiment,NA,NA,1,0.7,0.3,2,3,238,6,NA
fcp-trial,274,1487011,0.0-249.0-0.0,voc_e2,11811,"[{""event"":""fullscreenenter"",""trial"":1,""time"":3143}]",NA,NA,NA,NA,NA,2,#741CD8,#D8271C,10,0,1,40,0,1428.9999999997672,39,0,744.0000000002328,0,0,experiment,NA,NA,1,0.7,0.3,2,3,239,6,NA
fcp-trial,275,1491099,0.0-250.0-0.0,voc_e2,11811,"[{""event"":""fullscreenenter"",""trial"":1,""time"":3143}]",NA,NA,NA,NA,NA,3,#FA92F8,#1CD855,0,10,0,40,0,1812,39,0,766,10,1,experiment,NA,NA,0,0.1,0.9,1,0,240,6,NA
fcp-trial,276,1494868,0.0-251.0-0.0,voc_e2,11811,"[{""event"":""fullscreenenter"",""trial"":1,""time"":3143}]",NA,NA,NA,NA,NA,6,#FA92F8,#1CD855,0,10,0,40,0,1608,39,0,650,10,1,experiment,NA,NA,0,0.1,0.9,1,0,241,6,NA
fcp-trial,277,1498801,0.0-252.0-0.0,voc_e2,11811,"[{""event"":""fullscreenenter"",""trial"":1,""time"":3143}]",NA,NA,NA,NA,NA,1,#D89F1C,#3386FF,0,0,1,38,1,1821,39,0,602,0,0,experiment,NA,NA,2,0.5,0.5,4,5,242,6,NA
fcp-trial,278,1513808,0.0-253.0-0.0,voc_e2,11811,"[{""event"":""fullscreenenter"",""trial"":1,""time"":3143},{""event"":""blur"",""trial"":278,""time"":1499007},{""event"":""focus"",""trial"":278,""time"":1513193},{""event"":""blur"",""trial"":278,""time"":1513496}]",NA,NA,NA,NA,NA,6,#3386FF,#D89F1C,0,0,0,null,null,null,null,null,null,NA,0,experiment,NA,NA,2,0.5,0.5,5,4,243,6,NA
fcp-trial,279,1528812,0.0-254.0-0.0,voc_e2,11811,"[{""event"":""fullscreenenter"",""trial"":1,""time"":3143},{""event"":""blur"",""trial"":278,""time"":1499007},{""event"":""focus"",""trial"":278,""time"":1513193},{""event"":""blur"",""trial"":278,""time"":1513496},{""event"":""fullscreenexit"",""trial"":279,""time"":1524758},{""event"":""focus"",""trial"":279,""time"":1524808}]",NA,NA,NA,NA,NA,3,#741CD8,#D8271C,10,0,1,null,null,null,null,null,null,NA,0,experiment,NA,NA,1,0.7,0.3,2,3,244,6,NA
fcp-trial,280,1536152,0.0-255.0-0.0,voc_e2,11811,"[{""event"":""fullscreenenter"",""trial"":1,""time"":3143},{""event"":""blur"",""trial"":278,""time"":1499007},{""event"":""focus"",""trial"":278,""time"":1513193},{""event"":""blur"",""trial"":278,""time"":1513496},{""event"":""fullscreenexit"",""trial"":279,""time"":1524758},{""event"":""focus"",""trial"":279,""time"":1524808}]",NA,NA,NA,NA,NA,2,#1CD855,#FA92F8,10,0,1,38,1,4084,37,1,1749,10,1,experiment,NA,NA,0,0.9,0.1,0,1,245,6,NA
fcp-trial,281,1541685,0.0-256.0-0.0,voc_e2,11811,"[{""event"":""fullscreenenter"",""trial"":1,""time"":3143},{""event"":""blur"",""trial"":278,""time"":1499007},{""event"":""focus"",""trial"":278,""time"":1513193},{""event"":""blur"",""trial"":278,""time"":1513496},{""event"":""fullscreenexit"",""trial"":279,""time"":1524758},{""event"":""focus"",""trial"":279,""time"":1524808}]",NA,NA,NA,NA,NA,0,#D89F1C,#3386FF,10,0,1,38,1,3072.000000000233,39,0,949,0,0,experiment,NA,NA,2,0.5,0.5,4,5,246,6,NA
fcp-trial,282,1546246,0.0-257.0-0.0,voc_e2,11811,"[{""event"":""fullscreenenter"",""trial"":1,""time"":3143},{""event"":""blur"",""trial"":278,""time"":1499007},{""event"":""focus"",""trial"":278,""time"":1513193},{""event"":""blur"",""trial"":278,""time"":1513496},{""event"":""fullscreenexit"",""trial"":279,""time"":1524758},{""event"":""focus"",""trial"":279,""time"":1524808}]",NA,NA,NA,NA,NA,5,#D8271C,#741CD8,10,0,0,40,0,2140,37,1,911,10,0,experiment,NA,NA,1,0.3,0.7,3,2,247,6,NA
fcp-trial,283,1549796,0.0-258.0-0.0,voc_e2,11811,"[{""event"":""fullscreenenter"",""trial"":1,""time"":3143},{""event"":""blur"",""trial"":278,""time"":1499007},{""event"":""focus"",""trial"":278,""time"":1513193},{""event"":""blur"",""trial"":278,""time"":1513496},{""event"":""fullscreenexit"",""trial"":279,""time"":1524758},{""event"":""focus"",""trial"":279,""time"":1524808}]",NA,NA,NA,NA,NA,6,#741CD8,#D8271C,0,0,1,40,0,1195,39,0,845,0,0,experiment,NA,NA,1,0.7,0.3,2,3,248,6,NA
fcp-trial,284,1555113,0.0-259.0-0.0,voc_e2,11811,"[{""event"":""fullscreenenter"",""trial"":1,""time"":3143},{""event"":""blur"",""trial"":278,""time"":1499007},{""event"":""focus"",""trial"":278,""time"":1513193},{""event"":""blur"",""trial"":278,""time"":1513496},{""event"":""fullscreenexit"",""trial"":279,""time"":1524758},{""event"":""focus"",""trial"":279,""time"":1524808}]",NA,NA,NA,NA,NA,3,#3386FF,#D89F1C,0,0,0,40,0,1329,39,0,2478,0,1,experiment,NA,NA,2,0.5,0.5,5,4,249,6,NA
fcp-trial,285,1558699,0.0-260.0-0.0,voc_e2,11811,"[{""event"":""fullscreenenter"",""trial"":1,""time"":3143},{""event"":""blur"",""trial"":278,""time"":1499007},{""event"":""focus"",""trial"":278,""time"":1513193},{""event"":""blur"",""trial"":278,""time"":1513496},{""event"":""fullscreenexit"",""trial"":279,""time"":1524758},{""event"":""focus"",""trial"":279,""time"":1524808}]",NA,NA,NA,NA,NA,4,#FA92F8,#1CD855,0,10,0,40,0,1431,39,0,645,10,1,experiment,NA,NA,0,0.1,0.9,1,0,250,6,NA
fcp-trial,286,1562546,0.0-261.0-0.0,voc_e2,11811,"[{""event"":""fullscreenenter"",""trial"":1,""time"":3143},{""event"":""blur"",""trial"":278,""time"":1499007},{""event"":""focus"",""trial"":278,""time"":1513193},{""event"":""blur"",""trial"":278,""time"":1513496},{""event"":""fullscreenexit"",""trial"":279,""time"":1524758},{""event"":""focus"",""trial"":279,""time"":1524808}]",NA,NA,NA,NA,NA,4,#D89F1C,#3386FF,0,0,1,40,0,1308,37,1,1027,0,1,experiment,NA,NA,2,0.5,0.5,4,5,251,6,NA
fcp-trial,287,1566768,0.0-262.0-0.0,voc_e2,11811,"[{""event"":""fullscreenenter"",""trial"":1,""time"":3143},{""event"":""blur"",""trial"":278,""time"":1499007},{""event"":""focus"",""trial"":278,""time"":1513193},{""event"":""blur"",""trial"":278,""time"":1513496},{""event"":""fullscreenexit"",""trial"":279,""time"":1524758},{""event"":""focus"",""trial"":279,""time"":1524808}]",NA,NA,NA,NA,NA,5,#1CD855,#FA92F8,10,0,1,38,1,2064.000000000233,37,1,647.9999999997672,10,1,experiment,NA,NA,0,0.9,0.1,0,1,252,6,NA
fcp-trial,288,1571672,0.0-263.0-0.0,voc_e2,11811,"[{""event"":""fullscreenenter"",""trial"":1,""time"":3143},{""event"":""blur"",""trial"":278,""time"":1499007},{""event"":""focus"",""trial"":278,""time"":1513193},{""event"":""blur"",""trial"":278,""time"":1513496},{""event"":""fullscreenexit"",""trial"":279,""time"":1524758},{""event"":""focus"",""trial"":279,""time"":1524808}]",NA,NA,NA,NA,NA,0,#D8271C,#741CD8,10,10,0,40,0,2558,37,1,835,10,0,experiment,NA,NA,1,0.3,0.7,3,2,253,6,NA
fcp-trial,289,1575222,0.0-264.0-0.0,voc_e2,11811,"[{""event"":""fullscreenenter"",""trial"":1,""time"":3143},{""event"":""blur"",""trial"":278,""time"":1499007},{""event"":""focus"",""trial"":278,""time"":1513193},{""event"":""blur"",""trial"":278,""time"":1513496},{""event"":""fullscreenexit"",""trial"":279,""time"":1524758},{""event"":""focus"",""trial"":279,""time"":1524808}]",NA,NA,NA,NA,NA,4,#FA92F8,#1CD855,0,10,0,40,0,1469,39,0,569,10,1,experiment,NA,NA,0,0.1,0.9,1,0,254,6,NA
fcp-trial,290,1579056,0.0-265.0-0.0,voc_e2,11811,"[{""event"":""fullscreenenter"",""trial"":1,""time"":3143},{""event"":""blur"",""trial"":278,""time"":1499007},{""event"":""focus"",""trial"":278,""time"":1513193},{""event"":""blur"",""trial"":278,""time"":1513496},{""event"":""fullscreenexit"",""trial"":279,""time"":1524758},{""event"":""focus"",""trial"":279,""time"":1524808}]",NA,NA,NA,NA,NA,0,#D89F1C,#3386FF,10,0,1,40,0,1370,37,1,953,10,1,experiment,NA,NA,2,0.5,0.5,4,5,255,6,NA
fcp-trial,291,1582837,0.0-266.0-0.0,voc_e2,11811,"[{""event"":""fullscreenenter"",""trial"":1,""time"":3143},{""event"":""blur"",""trial"":278,""time"":1499007},{""event"":""focus"",""trial"":278,""time"":1513193},{""event"":""blur"",""trial"":278,""time"":1513496},{""event"":""fullscreenexit"",""trial"":279,""time"":1524758},{""event"":""focus"",""trial"":279,""time"":1524808}]",NA,NA,NA,NA,NA,2,#1CD855,#FA92F8,10,0,1,40,0,1655,37,1,616,10,1,experiment,NA,NA,0,0.9,0.1,0,1,256,6,NA
fcp-trial,292,1586319,0.0-267.0-0.0,voc_e2,11811,"[{""event"":""fullscreenenter"",""trial"":1,""time"":3143},{""event"":""blur"",""trial"":278,""time"":1499007},{""event"":""focus"",""trial"":278,""time"":1513193},{""event"":""blur"",""trial"":278,""time"":1513496},{""event"":""fullscreenexit"",""trial"":279,""time"":1524758},{""event"":""focus"",""trial"":279,""time"":1524808}]",NA,NA,NA,NA,NA,5,#1CD855,#FA92F8,10,0,1,40,0,1121,39,0,850,0,0,experiment,NA,NA,0,0.9,0.1,0,1,257,6,NA
fcp-trial,293,1589798,0.0-268.0-0.0,voc_e2,11811,"[{""event"":""fullscreenenter"",""trial"":1,""time"":3143},{""event"":""blur"",""trial"":278,""time"":1499007},{""event"":""focus"",""trial"":278,""time"":1513193},{""event"":""blur"",""trial"":278,""time"":1513496},{""event"":""fullscreenexit"",""trial"":279,""time"":1524758},{""event"":""focus"",""trial"":279,""time"":1524808}]",NA,NA,NA,NA,NA,5,#741CD8,#D8271C,10,0,1,40,0,1187,37,1,780,10,1,experiment,NA,NA,1,0.7,0.3,2,3,258,6,NA
fcp-trial,294,1593708,0.0-269.0-0.0,voc_e2,11811,"[{""event"":""fullscreenenter"",""trial"":1,""time"":3143},{""event"":""blur"",""trial"":278,""time"":1499007},{""event"":""focus"",""trial"":278,""time"":1513193},{""event"":""blur"",""trial"":278,""time"":1513496},{""event"":""fullscreenexit"",""trial"":279,""time"":1524758},{""event"":""focus"",""trial"":279,""time"":1524808}]",NA,NA,NA,NA,NA,2,#D89F1C,#3386FF,10,10,1,40,0,1795,39,0,605.0000000002328,10,0,experiment,NA,NA,2,0.5,0.5,4,5,259,6,NA
fcp-trial,295,1597380,0.0-270.0-0.0,voc_e2,11811,"[{""event"":""fullscreenenter"",""trial"":1,""time"":3143},{""event"":""blur"",""trial"":278,""time"":1499007},{""event"":""focus"",""trial"":278,""time"":1513193},{""event"":""blur"",""trial"":278,""time"":1513496},{""event"":""fullscreenexit"",""trial"":279,""time"":1524758},{""event"":""focus"",""trial"":279,""time"":1524808}]",NA,NA,NA,NA,NA,1,#741CD8,#D8271C,0,10,1,40,0,1517.0000000002328,37,1,645,0,1,experiment,NA,NA,1,0.7,0.3,2,3,260,6,NA
fcp-trial,296,1601408,0.0-271.0-0.0,voc_e2,11811,"[{""event"":""fullscreenenter"",""trial"":1,""time"":3143},{""event"":""blur"",""trial"":278,""time"":1499007},{""event"":""focus"",""trial"":278,""time"":1513193},{""event"":""blur"",""trial"":278,""time"":1513496},{""event"":""fullscreenexit"",""trial"":279,""time"":1524758},{""event"":""focus"",""trial"":279,""time"":1524808}]",NA,NA,NA,NA,NA,0,#1CD855,#FA92F8,10,0,1,40,0,1645,37,1,877,10,1,experiment,NA,NA,0,0.9,0.1,0,1,261,6,NA
fcp-trial,297,1604643,0.0-272.0-0.0,voc_e2,11811,"[{""event"":""fullscreenenter"",""trial"":1,""time"":3143},{""event"":""blur"",""trial"":278,""time"":1499007},{""event"":""focus"",""trial"":278,""time"":1513193},{""event"":""blur"",""trial"":278,""time"":1513496},{""event"":""fullscreenexit"",""trial"":279,""time"":1524758},{""event"":""focus"",""trial"":279,""time"":1524808}]",NA,NA,NA,NA,NA,3,#1CD855,#FA92F8,10,0,1,40,0,1130,37,1,596,10,1,experiment,NA,NA,0,0.9,0.1,0,1,262,6,NA
fcp-trial,298,1608322,0.0-273.0-0.0,voc_e2,11811,"[{""event"":""fullscreenenter"",""trial"":1,""time"":3143},{""event"":""blur"",""trial"":278,""time"":1499007},{""event"":""focus"",""trial"":278,""time"":1513193},{""event"":""blur"",""trial"":278,""time"":1513496},{""event"":""fullscreenexit"",""trial"":279,""time"":1524758},{""event"":""focus"",""trial"":279,""time"":1524808}]",NA,NA,NA,NA,NA,4,#D89F1C,#3386FF,10,0,1,40,0,1275,37,1,895,10,1,experiment,NA,NA,2,0.5,0.5,4,5,263,6,NA
fcp-trial,299,1611805,0.0-274.0-0.0,voc_e2,11811,"[{""event"":""fullscreenenter"",""trial"":1,""time"":3143},{""event"":""blur"",""trial"":278,""time"":1499007},{""event"":""focus"",""trial"":278,""time"":1513193},{""event"":""blur"",""trial"":278,""time"":1513496},{""event"":""fullscreenexit"",""trial"":279,""time"":1524758},{""event"":""focus"",""trial"":279,""time"":1524808}]",NA,NA,NA,NA,NA,4,#D8271C,#741CD8,0,10,0,40,0,1250,37,1,723.9999999997672,0,0,experiment,NA,NA,1,0.3,0.7,3,2,264,6,NA
fcp-trial,300,1617209,0.0-275.0-0.0,voc_e2,11811,"[{""event"":""fullscreenenter"",""trial"":1,""time"":3143},{""event"":""blur"",""trial"":278,""time"":1499007},{""event"":""focus"",""trial"":278,""time"":1513193},{""event"":""blur"",""trial"":278,""time"":1513496},{""event"":""fullscreenexit"",""trial"":279,""time"":1524758},{""event"":""focus"",""trial"":279,""time"":1524808}]",NA,NA,NA,NA,NA,3,#D8271C,#741CD8,10,0,0,40,0,3046.000000000233,39,0,850,0,1,experiment,NA,NA,1,0.3,0.7,3,2,265,6,NA
fcp-trial,301,1620859,0.0-276.0-0.0,voc_e2,11811,"[{""event"":""fullscreenenter"",""trial"":1,""time"":3143},{""event"":""blur"",""trial"":278,""time"":1499007},{""event"":""focus"",""trial"":278,""time"":1513193},{""event"":""blur"",""trial"":278,""time"":1513496},{""event"":""fullscreenexit"",""trial"":279,""time"":1524758},{""event"":""focus"",""trial"":279,""time"":1524808}]",NA,NA,NA,NA,NA,3,#3386FF,#D89F1C,0,0,0,38,1,1603,37,1,535,0,0,experiment,NA,NA,2,0.5,0.5,5,4,266,6,NA
fcp-trial,302,1624551,0.0-277.0-0.0,voc_e2,11811,"[{""event"":""fullscreenenter"",""trial"":1,""time"":3143},{""event"":""blur"",""trial"":278,""time"":1499007},{""event"":""focus"",""trial"":278,""time"":1513193},{""event"":""blur"",""trial"":278,""time"":1513496},{""event"":""fullscreenexit"",""trial"":279,""time"":1524758},{""event"":""focus"",""trial"":279,""time"":1524808}]",NA,NA,NA,NA,NA,6,#FA92F8,#1CD855,0,10,0,40,0,1521,39,0,661,10,1,experiment,NA,NA,0,0.1,0.9,1,0,267,6,NA
fcp-trial,303,1628735,0.0-278.0-0.0,voc_e2,11811,"[{""event"":""fullscreenenter"",""trial"":1,""time"":3143},{""event"":""blur"",""trial"":278,""time"":1499007},{""event"":""focus"",""trial"":278,""time"":1513193},{""event"":""blur"",""trial"":278,""time"":1513496},{""event"":""fullscreenexit"",""trial"":279,""time"":1524758},{""event"":""focus"",""trial"":279,""time"":1524808}]",NA,NA,NA,NA,NA,5,#3386FF,#D89F1C,10,0,0,40,0,1415,39,0,1260,0,1,experiment,NA,NA,2,0.5,0.5,5,4,268,6,NA
fcp-trial,304,1632200,0.0-279.0-0.0,voc_e2,11811,"[{""event"":""fullscreenenter"",""trial"":1,""time"":3143},{""event"":""blur"",""trial"":278,""time"":1499007},{""event"":""focus"",""trial"":278,""time"":1513193},{""event"":""blur"",""trial"":278,""time"":1513496},{""event"":""fullscreenexit"",""trial"":279,""time"":1524758},{""event"":""focus"",""trial"":279,""time"":1524808}]",NA,NA,NA,NA,NA,2,#741CD8,#D8271C,0,0,1,40,0,1146,39,0,809,0,0,experiment,NA,NA,1,0.7,0.3,2,3,269,6,NA
fcp-trial,305,1636084,0.0-280.0-0.0,voc_e2,11811,"[{""event"":""fullscreenenter"",""trial"":1,""time"":3143},{""event"":""blur"",""trial"":278,""time"":1499007},{""event"":""focus"",""trial"":278,""time"":1513193},{""event"":""blur"",""trial"":278,""time"":1513496},{""event"":""fullscreenexit"",""trial"":279,""time"":1524758},{""event"":""focus"",""trial"":279,""time"":1524808}]",NA,NA,NA,NA,NA,6,#741CD8,#D8271C,10,0,1,40,0,1732,37,1,640.9999999997672,10,1,experiment,NA,NA,1,0.7,0.3,2,3,270,6,NA
fcp-trial,306,1639439,0.0-281.0-0.0,voc_e2,11811,"[{""event"":""fullscreenenter"",""trial"":1,""time"":3143},{""event"":""blur"",""trial"":278,""time"":1499007},{""event"":""focus"",""trial"":278,""time"":1513193},{""event"":""blur"",""trial"":278,""time"":1513496},{""event"":""fullscreenexit"",""trial"":279,""time"":1524758},{""event"":""focus"",""trial"":279,""time"":1524808}]",NA,NA,NA,NA,NA,1,#FA92F8,#1CD855,0,10,0,38,1,1244.0000000002328,39,0,601,10,1,experiment,NA,NA,0,0.1,0.9,1,0,271,7,NA
fcp-trial,307,1643072,0.0-282.0-0.0,voc_e2,11811,"[{""event"":""fullscreenenter"",""trial"":1,""time"":3143},{""event"":""blur"",""trial"":278,""time"":1499007},{""event"":""focus"",""trial"":278,""time"":1513193},{""event"":""blur"",""trial"":278,""time"":1513496},{""event"":""fullscreenexit"",""trial"":279,""time"":1524758},{""event"":""focus"",""trial"":279,""time"":1524808}]",NA,NA,NA,NA,NA,1,#D89F1C,#3386FF,0,10,1,38,1,1537,39,0,583,10,0,experiment,NA,NA,2,0.5,0.5,4,5,272,7,NA
fcp-trial,308,1646855,0.0-283.0-0.0,voc_e2,11811,"[{""event"":""fullscreenenter"",""trial"":1,""time"":3143},{""event"":""blur"",""trial"":278,""time"":1499007},{""event"":""focus"",""trial"":278,""time"":1513193},{""event"":""blur"",""trial"":278,""time"":1513496},{""event"":""fullscreenexit"",""trial"":279,""time"":1524758},{""event"":""focus"",""trial"":279,""time"":1524808}]",NA,NA,NA,NA,NA,6,#D89F1C,#3386FF,0,10,1,40,0,1409.0000000002328,37,1,865.9999999997672,0,1,experiment,NA,NA,2,0.5,0.5,4,5,273,7,NA
fcp-trial,309,1650059,0.0-284.0-0.0,voc_e2,11811,"[{""event"":""fullscreenenter"",""trial"":1,""time"":3143},{""event"":""blur"",""trial"":278,""time"":1499007},{""event"":""focus"",""trial"":278,""time"":1513193},{""event"":""blur"",""trial"":278,""time"":1513496},{""event"":""fullscreenexit"",""trial"":279,""time"":1524758},{""event"":""focus"",""trial"":279,""time"":1524808}]",NA,NA,NA,NA,NA,4,#FA92F8,#1CD855,0,10,0,38,1,1104.9999999997672,39,0,587.9999999997672,10,1,experiment,NA,NA,0,0.1,0.9,1,0,274,7,NA
fcp-trial,310,1653969,0.0-285.0-0.0,voc_e2,11811,"[{""event"":""fullscreenenter"",""trial"":1,""time"":3143},{""event"":""blur"",""trial"":278,""time"":1499007},{""event"":""focus"",""trial"":278,""time"":1513193},{""event"":""blur"",""trial"":278,""time"":1513496},{""event"":""fullscreenexit"",""trial"":279,""time"":1524758},{""event"":""focus"",""trial"":279,""time"":1524808}]",NA,NA,NA,NA,NA,3,#D89F1C,#3386FF,0,10,1,40,0,1472,37,1,927,0,1,experiment,NA,NA,2,0.5,0.5,4,5,275,7,NA
fcp-trial,311,1657371,0.0-286.0-0.0,voc_e2,11811,"[{""event"":""fullscreenenter"",""trial"":1,""time"":3143},{""event"":""blur"",""trial"":278,""time"":1499007},{""event"":""focus"",""trial"":278,""time"":1513193},{""event"":""blur"",""trial"":278,""time"":1513496},{""event"":""fullscreenexit"",""trial"":279,""time"":1524758},{""event"":""focus"",""trial"":279,""time"":1524808}]",NA,NA,NA,NA,NA,6,#D8271C,#741CD8,10,0,0,40,0,1093,37,1,799,10,0,experiment,NA,NA,1,0.3,0.7,3,2,276,7,NA
fcp-trial,312,1661099,0.0-287.0-0.0,voc_e2,11811,"[{""event"":""fullscreenenter"",""trial"":1,""time"":3143},{""event"":""blur"",""trial"":278,""time"":1499007},{""event"":""focus"",""trial"":278,""time"":1513193},{""event"":""blur"",""trial"":278,""time"":1513496},{""event"":""fullscreenexit"",""trial"":279,""time"":1524758},{""event"":""focus"",""trial"":279,""time"":1524808}]",NA,NA,NA,NA,NA,3,#FA92F8,#1CD855,0,10,0,38,1,1659,39,0,554,10,1,experiment,NA,NA,0,0.1,0.9,1,0,277,7,NA
fcp-trial,313,1664400,0.0-288.0-0.0,voc_e2,11811,"[{""event"":""fullscreenenter"",""trial"":1,""time"":3143},{""event"":""blur"",""trial"":278,""time"":1499007},{""event"":""focus"",""trial"":278,""time"":1513193},{""event"":""blur"",""trial"":278,""time"":1513496},{""event"":""fullscreenexit"",""trial"":279,""time"":1524758},{""event"":""focus"",""trial"":279,""time"":1524808}]",NA,NA,NA,NA,NA,4,#741CD8,#D8271C,10,0,1,40,0,1130,37,1,659,10,1,experiment,NA,NA,1,0.7,0.3,2,3,278,7,NA
fcp-trial,314,1669189,0.0-289.0-0.0,voc_e2,11811,"[{""event"":""fullscreenenter"",""trial"":1,""time"":3143},{""event"":""blur"",""trial"":278,""time"":1499007},{""event"":""focus"",""trial"":278,""time"":1513193},{""event"":""blur"",""trial"":278,""time"":1513496},{""event"":""fullscreenexit"",""trial"":279,""time"":1524758},{""event"":""focus"",""trial"":279,""time"":1524808}]",NA,NA,NA,NA,NA,1,#1CD855,#FA92F8,10,0,1,38,1,1662,37,1,1618,10,1,experiment,NA,NA,0,0.9,0.1,0,1,279,7,NA
fcp-trial,315,1674118,0.0-290.0-0.0,voc_e2,11811,"[{""event"":""fullscreenenter"",""trial"":1,""time"":3143},{""event"":""blur"",""trial"":278,""time"":1499007},{""event"":""focus"",""trial"":278,""time"":1513193},{""event"":""blur"",""trial"":278,""time"":1513496},{""event"":""fullscreenexit"",""trial"":279,""time"":1524758},{""event"":""focus"",""trial"":279,""time"":1524808}]",NA,NA,NA,NA,NA,4,#3386FF,#D89F1C,0,10,0,40,0,2106,39,0,1311,10,1,experiment,NA,NA,2,0.5,0.5,5,4,280,7,NA
fcp-trial,316,1678056,0.0-291.0-0.0,voc_e2,11811,"[{""event"":""fullscreenenter"",""trial"":1,""time"":3143},{""event"":""blur"",""trial"":278,""time"":1499007},{""event"":""focus"",""trial"":278,""time"":1513193},{""event"":""blur"",""trial"":278,""time"":1513496},{""event"":""fullscreenexit"",""trial"":279,""time"":1524758},{""event"":""focus"",""trial"":279,""time"":1524808}]",NA,NA,NA,NA,NA,5,#1CD855,#FA92F8,10,0,1,38,1,1727,37,1,699.9999999997672,10,1,experiment,NA,NA,0,0.9,0.1,0,1,281,7,NA
fcp-trial,317,1681856,0.0-292.0-0.0,voc_e2,11811,"[{""event"":""fullscreenenter"",""trial"":1,""time"":3143},{""event"":""blur"",""trial"":278,""time"":1499007},{""event"":""focus"",""trial"":278,""time"":1513193},{""event"":""blur"",""trial"":278,""time"":1513496},{""event"":""fullscreenexit"",""trial"":279,""time"":1524758},{""event"":""focus"",""trial"":279,""time"":1524808}]",NA,NA,NA,NA,NA,1,#D89F1C,#3386FF,10,0,1,38,1,1689,39,0,600.0000000002328,0,0,experiment,NA,NA,2,0.5,0.5,4,5,282,7,NA
fcp-trial,318,1685418,0.0-293.0-0.0,voc_e2,11811,"[{""event"":""fullscreenenter"",""trial"":1,""time"":3143},{""event"":""blur"",""trial"":278,""time"":1499007},{""event"":""focus"",""trial"":278,""time"":1513193},{""event"":""blur"",""trial"":278,""time"":1513496},{""event"":""fullscreenexit"",""trial"":279,""time"":1524758},{""event"":""focus"",""trial"":279,""time"":1524808}]",NA,NA,NA,NA,NA,5,#D8271C,#741CD8,0,0,0,40,0,1272,37,1,778,0,0,experiment,NA,NA,1,0.3,0.7,3,2,283,7,NA
fcp-trial,319,1689800,0.0-294.0-0.0,voc_e2,11811,"[{""event"":""fullscreenenter"",""trial"":1,""time"":3143},{""event"":""blur"",""trial"":278,""time"":1499007},{""event"":""focus"",""trial"":278,""time"":1513193},{""event"":""blur"",""trial"":278,""time"":1513496},{""event"":""fullscreenexit"",""trial"":279,""time"":1524758},{""event"":""focus"",""trial"":279,""time"":1524808}]",NA,NA,NA,NA,NA,3,#D8271C,#741CD8,0,10,0,40,0,1862,39,0,1005,10,1,experiment,NA,NA,1,0.3,0.7,3,2,284,7,NA
fcp-trial,320,1704805,0.0-295.0-0.0,voc_e2,11811,"[{""event"":""fullscreenenter"",""trial"":1,""time"":3143},{""event"":""blur"",""trial"":278,""time"":1499007},{""event"":""focus"",""trial"":278,""time"":1513193},{""event"":""blur"",""trial"":278,""time"":1513496},{""event"":""fullscreenexit"",""trial"":279,""time"":1524758},{""event"":""focus"",""trial"":279,""time"":1524808},{""event"":""blur"",""trial"":320,""time"":1690364},{""event"":""focus"",""trial"":320,""time"":1697066}]",NA,NA,NA,NA,NA,2,#D8271C,#741CD8,10,0,0,null,null,null,null,null,null,NA,0,experiment,NA,NA,1,0.3,0.7,3,2,285,7,NA
fcp-trial,321,1709188,0.0-296.0-0.0,voc_e2,11811,"[{""event"":""fullscreenenter"",""trial"":1,""time"":3143},{""event"":""blur"",""trial"":278,""time"":1499007},{""event"":""focus"",""trial"":278,""time"":1513193},{""event"":""blur"",""trial"":278,""time"":1513496},{""event"":""fullscreenexit"",""trial"":279,""time"":1524758},{""event"":""focus"",""trial"":279,""time"":1524808},{""event"":""blur"",""trial"":320,""time"":1690364},{""event"":""focus"",""trial"":320,""time"":1697066}]",NA,NA,NA,NA,NA,2,#FA92F8,#1CD855,0,0,0,38,1,1747,39,0,1132,0,1,experiment,NA,NA,0,0.1,0.9,1,0,286,7,NA
fcp-trial,322,1714811,0.0-297.0-0.0,voc_e2,11811,"[{""event"":""fullscreenenter"",""trial"":1,""time"":3143},{""event"":""blur"",""trial"":278,""time"":1499007},{""event"":""focus"",""trial"":278,""time"":1513193},{""event"":""blur"",""trial"":278,""time"":1513496},{""event"":""fullscreenexit"",""trial"":279,""time"":1524758},{""event"":""focus"",""trial"":279,""time"":1524808},{""event"":""blur"",""trial"":320,""time"":1690364},{""event"":""focus"",""trial"":320,""time"":1697066}]",NA,NA,NA,NA,NA,5,#D89F1C,#3386FF,0,10,1,38,1,2448.000000000233,39,0,1665,10,0,experiment,NA,NA,2,0.5,0.5,4,5,287,7,NA
fcp-trial,323,1719662,0.0-298.0-0.0,voc_e2,11811,"[{""event"":""fullscreenenter"",""trial"":1,""time"":3143},{""event"":""blur"",""trial"":278,""time"":1499007},{""event"":""focus"",""trial"":278,""time"":1513193},{""event"":""blur"",""trial"":278,""time"":1513496},{""event"":""fullscreenexit"",""trial"":279,""time"":1524758},{""event"":""focus"",""trial"":279,""time"":1524808},{""event"":""blur"",""trial"":320,""time"":1690364},{""event"":""focus"",""trial"":320,""time"":1697066}]",NA,NA,NA,NA,NA,2,#3386FF,#D89F1C,0,0,0,38,1,2585.000000000233,37,1,755,0,0,experiment,NA,NA,2,0.5,0.5,5,4,288,7,NA
fcp-trial,324,1728371,0.0-299.0-0.0,voc_e2,11811,"[{""event"":""fullscreenenter"",""trial"":1,""time"":3143},{""event"":""blur"",""trial"":278,""time"":1499007},{""event"":""focus"",""trial"":278,""time"":1513193},{""event"":""blur"",""trial"":278,""time"":1513496},{""event"":""fullscreenexit"",""trial"":279,""time"":1524758},{""event"":""focus"",""trial"":279,""time"":1524808},{""event"":""blur"",""trial"":320,""time"":1690364},{""event"":""focus"",""trial"":320,""time"":1697066}]",NA,NA,NA,NA,NA,0,#D8271C,#741CD8,0,0,0,38,1,6625,37,1,577,0,0,experiment,NA,NA,1,0.3,0.7,3,2,289,7,NA
fcp-trial,325,1732368,0.0-300.0-0.0,voc_e2,11811,"[{""event"":""fullscreenenter"",""trial"":1,""time"":3143},{""event"":""blur"",""trial"":278,""time"":1499007},{""event"":""focus"",""trial"":278,""time"":1513193},{""event"":""blur"",""trial"":278,""time"":1513496},{""event"":""fullscreenexit"",""trial"":279,""time"":1524758},{""event"":""focus"",""trial"":279,""time"":1524808},{""event"":""blur"",""trial"":320,""time"":1690364},{""event"":""focus"",""trial"":320,""time"":1697066}]",NA,NA,NA,NA,NA,0,#FA92F8,#1CD855,0,10,0,40,0,1293,39,0,1194.9999999997672,10,1,experiment,NA,NA,0,0.1,0.9,1,0,290,7,NA
fcp-trial,326,1736702,0.0-301.0-0.0,voc_e2,11811,"[{""event"":""fullscreenenter"",""trial"":1,""time"":3143},{""event"":""blur"",""trial"":278,""time"":1499007},{""event"":""focus"",""trial"":278,""time"":1513193},{""event"":""blur"",""trial"":278,""time"":1513496},{""event"":""fullscreenexit"",""trial"":279,""time"":1524758},{""event"":""focus"",""trial"":279,""time"":1524808},{""event"":""blur"",""trial"":320,""time"":1690364},{""event"":""focus"",""trial"":320,""time"":1697066}]",NA,NA,NA,NA,NA,6,#1CD855,#FA92F8,10,0,1,40,0,1981,39,0,846,0,0,experiment,NA,NA,0,0.9,0.1,0,1,291,7,NA
fcp-trial,327,1740909,0.0-302.0-0.0,voc_e2,11811,"[{""event"":""fullscreenenter"",""trial"":1,""time"":3143},{""event"":""blur"",""trial"":278,""time"":1499007},{""event"":""focus"",""trial"":278,""time"":1513193},{""event"":""blur"",""trial"":278,""time"":1513496},{""event"":""fullscreenexit"",""trial"":279,""time"":1524758},{""event"":""focus"",""trial"":279,""time"":1524808},{""event"":""blur"",""trial"":320,""time"":1690364},{""event"":""focus"",""trial"":320,""time"":1697066}]",NA,NA,NA,NA,NA,0,#D89F1C,#3386FF,10,10,1,38,1,1950,39,0,749,10,0,experiment,NA,NA,2,0.5,0.5,4,5,292,7,NA
fcp-trial,328,1744585,0.0-303.0-0.0,voc_e2,11811,"[{""event"":""fullscreenenter"",""trial"":1,""time"":3143},{""event"":""blur"",""trial"":278,""time"":1499007},{""event"":""focus"",""trial"":278,""time"":1513193},{""event"":""blur"",""trial"":278,""time"":1513496},{""event"":""fullscreenexit"",""trial"":279,""time"":1524758},{""event"":""focus"",""trial"":279,""time"":1524808},{""event"":""blur"",""trial"":320,""time"":1690364},{""event"":""focus"",""trial"":320,""time"":1697066}]",NA,NA,NA,NA,NA,6,#D89F1C,#3386FF,0,0,1,40,0,1273,37,1,895,0,1,experiment,NA,NA,2,0.5,0.5,4,5,293,7,NA
fcp-trial,329,1749561,0.0-304.0-0.0,voc_e2,11811,"[{""event"":""fullscreenenter"",""trial"":1,""time"":3143},{""event"":""blur"",""trial"":278,""time"":1499007},{""event"":""focus"",""trial"":278,""time"":1513193},{""event"":""blur"",""trial"":278,""time"":1513496},{""event"":""fullscreenexit"",""trial"":279,""time"":1524758},{""event"":""focus"",""trial"":279,""time"":1524808},{""event"":""blur"",""trial"":320,""time"":1690364},{""event"":""focus"",""trial"":320,""time"":1697066}]",NA,NA,NA,NA,NA,1,#741CD8,#D8271C,10,0,1,38,1,2747,37,1,721,10,1,experiment,NA,NA,1,0.7,0.3,2,3,294,7,NA
fcp-trial,330,1752890,0.0-305.0-0.0,voc_e2,11811,"[{""event"":""fullscreenenter"",""trial"":1,""time"":3143},{""event"":""blur"",""trial"":278,""time"":1499007},{""event"":""focus"",""trial"":278,""time"":1513193},{""event"":""blur"",""trial"":278,""time"":1513496},{""event"":""fullscreenexit"",""trial"":279,""time"":1524758},{""event"":""focus"",""trial"":279,""time"":1524808},{""event"":""blur"",""trial"":320,""time"":1690364},{""event"":""focus"",""trial"":320,""time"":1697066}]",NA,NA,NA,NA,NA,2,#1CD855,#FA92F8,10,0,1,38,1,1186.9999999997672,37,1,633,10,1,experiment,NA,NA,0,0.9,0.1,0,1,295,7,NA
fcp-trial,331,1756240,0.0-306.0-0.0,voc_e2,11811,"[{""event"":""fullscreenenter"",""trial"":1,""time"":3143},{""event"":""blur"",""trial"":278,""time"":1499007},{""event"":""focus"",""trial"":278,""time"":1513193},{""event"":""blur"",""trial"":278,""time"":1513496},{""event"":""fullscreenexit"",""trial"":279,""time"":1524758},{""event"":""focus"",""trial"":279,""time"":1524808},{""event"":""blur"",""trial"":320,""time"":1690364},{""event"":""focus"",""trial"":320,""time"":1697066}]",NA,NA,NA,NA,NA,5,#3386FF,#D89F1C,10,0,0,38,1,1243,37,1,598,10,0,experiment,NA,NA,2,0.5,0.5,5,4,296,7,NA
fcp-trial,332,1759407,0.0-307.0-0.0,voc_e2,11811,"[{""event"":""fullscreenenter"",""trial"":1,""time"":3143},{""event"":""blur"",""trial"":278,""time"":1499007},{""event"":""focus"",""trial"":278,""time"":1513193},{""event"":""blur"",""trial"":278,""time"":1513496},{""event"":""fullscreenexit"",""trial"":279,""time"":1524758},{""event"":""focus"",""trial"":279,""time"":1524808},{""event"":""blur"",""trial"":320,""time"":1690364},{""event"":""focus"",""trial"":320,""time"":1697066}]",NA,NA,NA,NA,NA,4,#3386FF,#D89F1C,0,0,0,38,1,939,37,1,716.0000000002328,0,0,experiment,NA,NA,2,0.5,0.5,5,4,297,7,NA
fcp-trial,333,1762719,0.0-308.0-0.0,voc_e2,11811,"[{""event"":""fullscreenenter"",""trial"":1,""time"":3143},{""event"":""blur"",""trial"":278,""time"":1499007},{""event"":""focus"",""trial"":278,""time"":1513193},{""event"":""blur"",""trial"":278,""time"":1513496},{""event"":""fullscreenexit"",""trial"":279,""time"":1524758},{""event"":""focus"",""trial"":279,""time"":1524808},{""event"":""blur"",""trial"":320,""time"":1690364},{""event"":""focus"",""trial"":320,""time"":1697066}]",NA,NA,NA,NA,NA,3,#741CD8,#D8271C,10,0,1,40,0,1129,37,1,674,10,1,experiment,NA,NA,1,0.7,0.3,2,3,298,7,NA
fcp-trial,334,1767191,0.0-309.0-0.0,voc_e2,11811,"[{""event"":""fullscreenenter"",""trial"":1,""time"":3143},{""event"":""blur"",""trial"":278,""time"":1499007},{""event"":""focus"",""trial"":278,""time"":1513193},{""event"":""blur"",""trial"":278,""time"":1513496},{""event"":""fullscreenexit"",""trial"":279,""time"":1524758},{""event"":""focus"",""trial"":279,""time"":1524808},{""event"":""blur"",""trial"":320,""time"":1690364},{""event"":""focus"",""trial"":320,""time"":1697066}]",NA,NA,NA,NA,NA,6,#1CD855,#FA92F8,0,0,1,38,1,2400.000000000233,37,1,563.9999999997672,0,1,experiment,NA,NA,0,0.9,0.1,0,1,299,7,NA
fcp-trial,335,1770358,0.0-310.0-0.0,voc_e2,11811,"[{""event"":""fullscreenenter"",""trial"":1,""time"":3143},{""event"":""blur"",""trial"":278,""time"":1499007},{""event"":""focus"",""trial"":278,""time"":1513193},{""event"":""blur"",""trial"":278,""time"":1513496},{""event"":""fullscreenexit"",""trial"":279,""time"":1524758},{""event"":""focus"",""trial"":279,""time"":1524808},{""event"":""blur"",""trial"":320,""time"":1690364},{""event"":""focus"",""trial"":320,""time"":1697066}]",NA,NA,NA,NA,NA,2,#D8271C,#741CD8,10,10,0,40,0,1004.0000000002328,37,1,634,10,0,experiment,NA,NA,1,0.3,0.7,3,2,300,7,NA
fcp-trial,336,1773970,0.0-311.0-0.0,voc_e2,11811,"[{""event"":""fullscreenenter"",""trial"":1,""time"":3143},{""event"":""blur"",""trial"":278,""time"":1499007},{""event"":""focus"",""trial"":278,""time"":1513193},{""event"":""blur"",""trial"":278,""time"":1513496},{""event"":""fullscreenexit"",""trial"":279,""time"":1524758},{""event"":""focus"",""trial"":279,""time"":1524808},{""event"":""blur"",""trial"":320,""time"":1690364},{""event"":""focus"",""trial"":320,""time"":1697066}]",NA,NA,NA,NA,NA,0,#D8271C,#741CD8,10,10,0,40,0,1292,37,1,811,10,0,experiment,NA,NA,1,0.3,0.7,3,2,301,7,NA
fcp-trial,337,1777569,0.0-312.0-0.0,voc_e2,11811,"[{""event"":""fullscreenenter"",""trial"":1,""time"":3143},{""event"":""blur"",""trial"":278,""time"":1499007},{""event"":""focus"",""trial"":278,""time"":1513193},{""event"":""blur"",""trial"":278,""time"":1513496},{""event"":""fullscreenexit"",""trial"":279,""time"":1524758},{""event"":""focus"",""trial"":279,""time"":1524808},{""event"":""blur"",""trial"":320,""time"":1690364},{""event"":""focus"",""trial"":320,""time"":1697066}]",NA,NA,NA,NA,NA,6,#3386FF,#D89F1C,0,10,0,40,0,1478,37,1,611.0000000002328,0,0,experiment,NA,NA,2,0.5,0.5,5,4,302,7,NA
fcp-trial,338,1780662,0.0-313.0-0.0,voc_e2,11811,"[{""event"":""fullscreenenter"",""trial"":1,""time"":3143},{""event"":""blur"",""trial"":278,""time"":1499007},{""event"":""focus"",""trial"":278,""time"":1513193},{""event"":""blur"",""trial"":278,""time"":1513496},{""event"":""fullscreenexit"",""trial"":279,""time"":1524758},{""event"":""focus"",""trial"":279,""time"":1524808},{""event"":""blur"",""trial"":320,""time"":1690364},{""event"":""focus"",""trial"":320,""time"":1697066}]",NA,NA,NA,NA,NA,1,#FA92F8,#1CD855,0,10,0,38,1,1049,39,0,531,10,1,experiment,NA,NA,0,0.1,0.9,1,0,303,7,NA
fcp-trial,339,1783974,0.0-314.0-0.0,voc_e2,11811,"[{""event"":""fullscreenenter"",""trial"":1,""time"":3143},{""event"":""blur"",""trial"":278,""time"":1499007},{""event"":""focus"",""trial"":278,""time"":1513193},{""event"":""blur"",""trial"":278,""time"":1513496},{""event"":""fullscreenexit"",""trial"":279,""time"":1524758},{""event"":""focus"",""trial"":279,""time"":1524808},{""event"":""blur"",""trial"":320,""time"":1690364},{""event"":""focus"",""trial"":320,""time"":1697066}]",NA,NA,NA,NA,NA,0,#3386FF,#D89F1C,10,10,0,38,1,1255,37,1,550.0000000002328,10,0,experiment,NA,NA,2,0.5,0.5,5,4,304,7,NA
fcp-trial,340,1787472,0.0-315.0-0.0,voc_e2,11811,"[{""event"":""fullscreenenter"",""trial"":1,""time"":3143},{""event"":""blur"",""trial"":278,""time"":1499007},{""event"":""focus"",""trial"":278,""time"":1513193},{""event"":""blur"",""trial"":278,""time"":1513496},{""event"":""fullscreenexit"",""trial"":279,""time"":1524758},{""event"":""focus"",""trial"":279,""time"":1524808},{""event"":""blur"",""trial"":320,""time"":1690364},{""event"":""focus"",""trial"":320,""time"":1697066}]",NA,NA,NA,NA,NA,4,#741CD8,#D8271C,0,0,1,40,0,1373.9999999997672,37,1,615,0,1,experiment,NA,NA,1,0.7,0.3,2,3,305,7,NA
fcp-trial,341,1790511,0.0-316.0-0.0,voc_e2,11811,"[{""event"":""fullscreenenter"",""trial"":1,""time"":3143},{""event"":""blur"",""trial"":278,""time"":1499007},{""event"":""focus"",""trial"":278,""time"":1513193},{""event"":""blur"",""trial"":278,""time"":1513496},{""event"":""fullscreenexit"",""trial"":279,""time"":1524758},{""event"":""focus"",""trial"":279,""time"":1524808},{""event"":""blur"",""trial"":320,""time"":1690364},{""event"":""focus"",""trial"":320,""time"":1697066}]",NA,NA,NA,NA,NA,5,#1CD855,#FA92F8,10,0,1,38,1,1045,37,1,484,10,1,experiment,NA,NA,0,0.9,0.1,0,1,306,7,NA
fcp-trial,342,1794125,0.0-317.0-0.0,voc_e2,11811,"[{""event"":""fullscreenenter"",""trial"":1,""time"":3143},{""event"":""blur"",""trial"":278,""time"":1499007},{""event"":""focus"",""trial"":278,""time"":1513193},{""event"":""blur"",""trial"":278,""time"":1513496},{""event"":""fullscreenexit"",""trial"":279,""time"":1524758},{""event"":""focus"",""trial"":279,""time"":1524808},{""event"":""blur"",""trial"":320,""time"":1690364},{""event"":""focus"",""trial"":320,""time"":1697066}]",NA,NA,NA,NA,NA,1,#D8271C,#741CD8,10,10,0,40,0,1138.0000000002328,39,0,966,10,1,experiment,NA,NA,1,0.3,0.7,3,2,307,7,NA
fcp-trial,343,1797387,0.0-318.0-0.0,voc_e2,11811,"[{""event"":""fullscreenenter"",""trial"":1,""time"":3143},{""event"":""blur"",""trial"":278,""time"":1499007},{""event"":""focus"",""trial"":278,""time"":1513193},{""event"":""blur"",""trial"":278,""time"":1513496},{""event"":""fullscreenexit"",""trial"":279,""time"":1524758},{""event"":""focus"",""trial"":279,""time"":1524808},{""event"":""blur"",""trial"":320,""time"":1690364},{""event"":""focus"",""trial"":320,""time"":1697066}]",NA,NA,NA,NA,NA,1,#3386FF,#D89F1C,10,10,0,40,0,1257,37,1,497,10,0,experiment,NA,NA,2,0.5,0.5,5,4,308,7,NA
fcp-trial,344,1800854,0.0-319.0-0.0,voc_e2,11811,"[{""event"":""fullscreenenter"",""trial"":1,""time"":3143},{""event"":""blur"",""trial"":278,""time"":1499007},{""event"":""focus"",""trial"":278,""time"":1513193},{""event"":""blur"",""trial"":278,""time"":1513496},{""event"":""fullscreenexit"",""trial"":279,""time"":1524758},{""event"":""focus"",""trial"":279,""time"":1524808},{""event"":""blur"",""trial"":320,""time"":1690364},{""event"":""focus"",""trial"":320,""time"":1697066}]",NA,NA,NA,NA,NA,2,#3386FF,#D89F1C,10,10,0,40,0,1429,37,1,529,10,0,experiment,NA,NA,2,0.5,0.5,5,4,309,7,NA
fcp-trial,345,1804420,0.0-320.0-0.0,voc_e2,11811,"[{""event"":""fullscreenenter"",""trial"":1,""time"":3143},{""event"":""blur"",""trial"":278,""time"":1499007},{""event"":""focus"",""trial"":278,""time"":1513193},{""event"":""blur"",""trial"":278,""time"":1513496},{""event"":""fullscreenexit"",""trial"":279,""time"":1524758},{""event"":""focus"",""trial"":279,""time"":1524808},{""event"":""blur"",""trial"":320,""time"":1690364},{""event"":""focus"",""trial"":320,""time"":1697066}]",NA,NA,NA,NA,NA,6,#741CD8,#D8271C,10,0,1,40,0,1112.0000000002328,39,0,945.9999999997672,0,0,experiment,NA,NA,1,0.7,0.3,2,3,310,7,NA
fcp-trial,346,1808460,0.0-321.0-0.0,voc_e2,11811,"[{""event"":""fullscreenenter"",""trial"":1,""time"":3143},{""event"":""blur"",""trial"":278,""time"":1499007},{""event"":""focus"",""trial"":278,""time"":1513193},{""event"":""blur"",""trial"":278,""time"":1513496},{""event"":""fullscreenexit"",""trial"":279,""time"":1524758},{""event"":""focus"",""trial"":279,""time"":1524808},{""event"":""blur"",""trial"":320,""time"":1690364},{""event"":""focus"",""trial"":320,""time"":1697066}]",NA,NA,NA,NA,NA,4,#FA92F8,#1CD855,0,10,0,38,1,1896,39,0,635,10,1,experiment,NA,NA,0,0.1,0.9,1,0,311,7,NA
fcp-trial,347,1811788,0.0-322.0-0.0,voc_e2,11811,"[{""event"":""fullscreenenter"",""trial"":1,""time"":3143},{""event"":""blur"",""trial"":278,""time"":1499007},{""event"":""focus"",""trial"":278,""time"":1513193},{""event"":""blur"",""trial"":278,""time"":1513496},{""event"":""fullscreenexit"",""trial"":279,""time"":1524758},{""event"":""focus"",""trial"":279,""time"":1524808},{""event"":""blur"",""trial"":320,""time"":1690364},{""event"":""focus"",""trial"":320,""time"":1697066}]",NA,NA,NA,NA,NA,5,#741CD8,#D8271C,10,10,1,40,0,990,37,1,829,10,1,experiment,NA,NA,1,0.7,0.3,2,3,312,7,NA
fcp-trial,348,1814991,0.0-323.0-0.0,voc_e2,11811,"[{""event"":""fullscreenenter"",""trial"":1,""time"":3143},{""event"":""blur"",""trial"":278,""time"":1499007},{""event"":""focus"",""trial"":278,""time"":1513193},{""event"":""blur"",""trial"":278,""time"":1513496},{""event"":""fullscreenexit"",""trial"":279,""time"":1524758},{""event"":""focus"",""trial"":279,""time"":1524808},{""event"":""blur"",""trial"":320,""time"":1690364},{""event"":""focus"",""trial"":320,""time"":1697066}]",NA,NA,NA,NA,NA,3,#1CD855,#FA92F8,10,0,1,38,1,1161,37,1,533,10,1,experiment,NA,NA,0,0.9,0.1,0,1,313,7,NA
