trial_type,trial_index,time_elapsed,internal_node_id,task_version,subject_id,interactions,success,rt,stimulus,key_press,button_pressed,offer,arcade_color_L,arcade_color_R,arcade_outcome_L,arcade_outcome_R,correct,stage_1_key,stage_1_choice,stage_1_rt,stage_2_key,stage_2_choice,stage_2_rt,stage_3_outcome,accuracy,phase,responses,num_errors,context,reward_prob_L,reward_prob_R,arcade_id_L,arcade_id_R,trial,block,response
pavlovia,0,16,0.0-0.0,voc_e2,12081,[],NA,NA,NA,NA,NA,NA,NA,NA,NA,NA,NA,NA,NA,NA,NA,NA,NA,NA,NA,NA,NA,NA,NA,NA,NA,NA,NA,NA,NA,NA
fullscreen,1,5443,0.0-1.0,voc_e2,12081,"[{""event"":""fullscreenenter"",""trial"":1,""time"":4447}]",TRUE,NA,NA,NA,NA,NA,NA,NA,NA,NA,NA,NA,NA,NA,NA,NA,NA,NA,NA,NA,NA,NA,NA,NA,NA,NA,NA,NA,NA,NA
audio-keyboard-response,2,8183,0.0-2.0,voc_e2,12081,"[{""event"":""fullscreenenter"",""trial"":1,""time"":4447}]",NA,2672,static/audio/beep_loop.wav,32,NA,NA,NA,NA,NA,NA,NA,NA,NA,NA,NA,NA,NA,NA,NA,NA,NA,NA,NA,NA,NA,NA,NA,NA,NA,NA
audio-test,3,11614,0.0-3.0,voc_e2,12081,"[{""event"":""fullscreenenter"",""trial"":1,""time"":4447}]",NA,NA,static/audio/turtle.wav,NA,3,NA,NA,NA,NA,NA,NA,NA,NA,NA,NA,NA,NA,NA,NA,NA,NA,NA,NA,NA,NA,NA,NA,NA,NA,NA
audio-test,4,14274,0.0-4.0,voc_e2,12081,"[{""event"":""fullscreenenter"",""trial"":1,""time"":4447}]",NA,NA,static/audio/shark.wav,NA,2,NA,NA,NA,NA,NA,NA,NA,NA,NA,NA,NA,NA,NA,NA,NA,NA,NA,NA,NA,NA,NA,NA,NA,NA,NA
audio-instructions,5,21472,0.0-5.0-0.0,voc_e2,12081,"[{""event"":""fullscreenenter"",""trial"":1,""time"":4447}]",NA,1416.5999999996277,static/audio/instructions1.wav,NA,0,NA,NA,NA,NA,NA,NA,NA,NA,NA,NA,NA,NA,NA,NA,NA,NA,NA,NA,NA,NA,NA,NA,NA,NA,NA
audio-instructions,6,31186,0.0-5.0-1.0,voc_e2,12081,"[{""event"":""fullscreenenter"",""trial"":1,""time"":4447}]",NA,2971.5,static/audio/instructions2.wav,NA,0,NA,NA,NA,NA,NA,NA,NA,NA,NA,NA,NA,NA,NA,NA,NA,NA,NA,NA,NA,NA,NA,NA,NA,NA,NA
audio-instructions,7,39625,0.0-5.0-2.0,voc_e2,12081,"[{""event"":""fullscreenenter"",""trial"":1,""time"":4447}]",NA,2637.2000000001863,static/audio/instructions3.wav,NA,0,NA,NA,NA,NA,NA,NA,NA,NA,NA,NA,NA,NA,NA,NA,NA,NA,NA,NA,NA,NA,NA,NA,NA,NA,NA
audio-instructions,8,53701,0.0-5.0-3.0,voc_e2,12081,"[{""event"":""fullscreenenter"",""trial"":1,""time"":4447}]",NA,846.5,static/audio/instructions4.wav,NA,0,NA,NA,NA,NA,NA,NA,NA,NA,NA,NA,NA,NA,NA,NA,NA,NA,NA,NA,NA,NA,NA,NA,NA,NA,NA
audio-instructions,9,63968,0.0-5.0-4.0,voc_e2,12081,"[{""event"":""fullscreenenter"",""trial"":1,""time"":4447}]",NA,878.7999999998137,static/audio/instructions5.wav,NA,0,NA,NA,NA,NA,NA,NA,NA,NA,NA,NA,NA,NA,NA,NA,NA,NA,NA,NA,NA,NA,NA,NA,NA,NA,NA
fcp-practice,10,72277,0.0-5.0-5.0-0.0,voc_e2,12081,"[{""event"":""fullscreenenter"",""trial"":1,""time"":4447}]",NA,NA,NA,NA,NA,NA,#EDC948,#46d3c8,10,0,1,null,null,null,37,1,6794.100000000559,10,1,practice,NA,NA,NA,NA,NA,NA,NA,NA,NA,NA
fcp-practice,11,74585,0.0-5.0-5.0-1.0,voc_e2,12081,"[{""event"":""fullscreenenter"",""trial"":1,""time"":4447}]",NA,NA,NA,NA,NA,NA,#EDC948,#46d3c8,10,0,1,null,null,null,37,1,800.7000000001863,10,1,practice,NA,NA,NA,NA,NA,NA,NA,NA,NA,NA
fcp-practice,12,76928,0.0-5.0-5.0-2.0,voc_e2,12081,"[{""event"":""fullscreenenter"",""trial"":1,""time"":4447}]",NA,NA,NA,NA,NA,NA,#EDC948,#46d3c8,0,10,1,null,null,null,37,1,835.2999999998137,0,1,practice,NA,NA,NA,NA,NA,NA,NA,NA,NA,NA
fcp-practice,13,78994,0.0-5.0-5.0-3.0,voc_e2,12081,"[{""event"":""fullscreenenter"",""trial"":1,""time"":4447}]",NA,NA,NA,NA,NA,NA,#EDC948,#46d3c8,10,0,1,null,null,null,37,1,558.7000000001863,10,1,practice,NA,NA,NA,NA,NA,NA,NA,NA,NA,NA
fcp-practice,14,81465,0.0-5.0-5.0-4.0,voc_e2,12081,"[{""event"":""fullscreenenter"",""trial"":1,""time"":4447}]",NA,NA,NA,NA,NA,NA,#EDC948,#46d3c8,10,0,1,null,null,null,37,1,963.5,10,1,practice,NA,NA,NA,NA,NA,NA,NA,NA,NA,NA
audio-instructions,15,103388,0.0-5.0-6.0,voc_e2,12081,"[{""event"":""fullscreenenter"",""trial"":1,""time"":4447}]",NA,3915.800000000745,static/audio/instructions6.wav,NA,0,NA,NA,NA,NA,NA,NA,NA,NA,NA,NA,NA,NA,NA,NA,NA,NA,NA,NA,NA,NA,NA,NA,NA,NA,NA
audio-instructions,16,123363,0.0-5.0-7.0,voc_e2,12081,"[{""event"":""fullscreenenter"",""trial"":1,""time"":4447}]",NA,776.0999999996275,static/audio/instructions7.wav,NA,0,NA,NA,NA,NA,NA,NA,NA,NA,NA,NA,NA,NA,NA,NA,NA,NA,NA,NA,NA,NA,NA,NA,NA,NA,NA
audio-instructions,17,133539,0.0-5.0-8.0,voc_e2,12081,"[{""event"":""fullscreenenter"",""trial"":1,""time"":4447}]",NA,702.2999999998137,static/audio/instructions8.wav,NA,0,NA,NA,NA,NA,NA,NA,NA,NA,NA,NA,NA,NA,NA,NA,NA,NA,NA,NA,NA,NA,NA,NA,NA,NA,NA
fcp-comprehension,18,143825,0.0-5.0-9.0,voc_e2,12081,"[{""event"":""fullscreenenter"",""trial"":1,""time"":4447}]",NA,10282.799999999814,NA,NA,NA,NA,NA,NA,NA,NA,NA,NA,NA,NA,NA,NA,NA,NA,NA,NA,"false,true",1,NA,NA,NA,NA,NA,NA,NA,NA
audio-instructions,19,149461,0.0-5.1-0.1,voc_e2,12081,"[{""event"":""fullscreenenter"",""trial"":1,""time"":4447}]",NA,859.0999999996275,static/audio/instructions1.wav,NA,0,NA,NA,NA,NA,NA,NA,NA,NA,NA,NA,NA,NA,NA,NA,NA,NA,NA,NA,NA,NA,NA,NA,NA,NA,NA
audio-instructions,20,157264,0.0-5.1-1.1,voc_e2,12081,"[{""event"":""fullscreenenter"",""trial"":1,""time"":4447}]",NA,1062.8999999994412,static/audio/instructions2.wav,NA,0,NA,NA,NA,NA,NA,NA,NA,NA,NA,NA,NA,NA,NA,NA,NA,NA,NA,NA,NA,NA,NA,NA,NA,NA,NA
audio-instructions,21,172069,0.0-5.1-2.1,voc_e2,12081,"[{""event"":""fullscreenenter"",""trial"":1,""time"":4447}]",NA,9003.200000000186,static/audio/instructions3.wav,NA,0,NA,NA,NA,NA,NA,NA,NA,NA,NA,NA,NA,NA,NA,NA,NA,NA,NA,NA,NA,NA,NA,NA,NA,NA,NA
audio-instructions,22,186552,0.0-5.1-3.1,voc_e2,12081,"[{""event"":""fullscreenenter"",""trial"":1,""time"":4447}]",NA,1257.199999999255,static/audio/instructions4.wav,NA,0,NA,NA,NA,NA,NA,NA,NA,NA,NA,NA,NA,NA,NA,NA,NA,NA,NA,NA,NA,NA,NA,NA,NA,NA,NA
audio-instructions,23,209184,0.0-5.1-4.1,voc_e2,12081,"[{""event"":""fullscreenenter"",""trial"":1,""time"":4447}]",NA,13244.599999999627,static/audio/instructions5.wav,NA,0,NA,NA,NA,NA,NA,NA,NA,NA,NA,NA,NA,NA,NA,NA,NA,NA,NA,NA,NA,NA,NA,NA,NA,NA,NA
fcp-practice,24,211256,0.0-5.1-5.1-0.1,voc_e2,12081,"[{""event"":""fullscreenenter"",""trial"":1,""time"":4447}]",NA,NA,NA,NA,NA,NA,#EDC948,#46d3c8,10,0,1,null,null,null,37,1,565.8000000007451,10,1,practice,NA,NA,NA,NA,NA,NA,NA,NA,NA,NA
fcp-practice,25,215061,0.0-5.1-5.1-1.1,voc_e2,12081,"[{""event"":""fullscreenenter"",""trial"":1,""time"":4447}]",NA,NA,NA,NA,NA,NA,#EDC948,#46d3c8,10,0,1,null,null,null,37,1,2299.7000000001863,10,1,practice,NA,NA,NA,NA,NA,NA,NA,NA,NA,NA
fcp-practice,26,216751,0.0-5.1-5.1-2.1,voc_e2,12081,"[{""event"":""fullscreenenter"",""trial"":1,""time"":4447}]",NA,NA,NA,NA,NA,NA,#EDC948,#46d3c8,0,10,1,null,null,null,37,1,182.40000000037253,0,1,practice,NA,NA,NA,NA,NA,NA,NA,NA,NA,NA
fcp-practice,27,219364,0.0-5.1-5.1-3.1,voc_e2,12081,"[{""event"":""fullscreenenter"",""trial"":1,""time"":4447}]",NA,NA,NA,NA,NA,NA,#EDC948,#46d3c8,10,0,1,null,null,null,37,1,1106.5,10,1,practice,NA,NA,NA,NA,NA,NA,NA,NA,NA,NA
fcp-practice,28,221786,0.0-5.1-5.1-4.1,voc_e2,12081,"[{""event"":""fullscreenenter"",""trial"":1,""time"":4447}]",NA,NA,NA,NA,NA,NA,#EDC948,#46d3c8,10,0,1,null,null,null,37,1,916.7999999998137,10,1,practice,NA,NA,NA,NA,NA,NA,NA,NA,NA,NA
audio-instructions,29,241236,0.0-5.1-6.1,voc_e2,12081,"[{""event"":""fullscreenenter"",""trial"":1,""time"":4447}]",NA,1447,static/audio/instructions6.wav,NA,0,NA,NA,NA,NA,NA,NA,NA,NA,NA,NA,NA,NA,NA,NA,NA,NA,NA,NA,NA,NA,NA,NA,NA,NA,NA
audio-instructions,30,262143,0.0-5.1-7.1,voc_e2,12081,"[{""event"":""fullscreenenter"",""trial"":1,""time"":4447}]",NA,1708.800000000745,static/audio/instructions7.wav,NA,0,NA,NA,NA,NA,NA,NA,NA,NA,NA,NA,NA,NA,NA,NA,NA,NA,NA,NA,NA,NA,NA,NA,NA,NA,NA
audio-instructions,31,272307,0.0-5.1-8.1,voc_e2,12081,"[{""event"":""fullscreenenter"",""trial"":1,""time"":4447}]",NA,694.1999999992549,static/audio/instructions8.wav,NA,0,NA,NA,NA,NA,NA,NA,NA,NA,NA,NA,NA,NA,NA,NA,NA,NA,NA,NA,NA,NA,NA,NA,NA,NA,NA
fcp-comprehension,32,283007,0.0-5.1-9.1,voc_e2,12081,"[{""event"":""fullscreenenter"",""trial"":1,""time"":4447}]",NA,10696.699999999257,NA,NA,NA,NA,NA,NA,NA,NA,NA,NA,NA,NA,NA,NA,NA,NA,NA,NA,"true,true",0,NA,NA,NA,NA,NA,NA,NA,NA
audio-instructions,33,290465,0.0-6.0-0.0,voc_e2,12081,"[{""event"":""fullscreenenter"",""trial"":1,""time"":4447}]",NA,1908.39999999851,static/audio/instructions9.wav,NA,0,NA,NA,NA,NA,NA,NA,NA,NA,NA,NA,NA,NA,NA,NA,NA,NA,NA,NA,NA,NA,NA,NA,NA,NA,NA
audio-instructions,34,304722,0.0-6.0-1.0,voc_e2,12081,"[{""event"":""fullscreenenter"",""trial"":1,""time"":4447}]",NA,2138.7999999988824,static/audio/instructions10.wav,NA,0,NA,NA,NA,NA,NA,NA,NA,NA,NA,NA,NA,NA,NA,NA,NA,NA,NA,NA,NA,NA,NA,NA,NA,NA,NA
fcp-trial,35,315679,0.0-6.0-2.0,voc_e2,12081,"[{""event"":""fullscreenenter"",""trial"":1,""time"":4447}]",NA,NA,NA,NA,NA,0,#EDC948,#46d3c8,10,10,1,38,1,7587.200000001118,39,0,1854.7000000011176,10,0,practice,NA,NA,NA,NA,NA,NA,NA,NA,NA,NA
audio-instructions,36,327503,0.0-6.0-3.0,voc_e2,12081,"[{""event"":""fullscreenenter"",""trial"":1,""time"":4447}]",NA,813.4000000003725,static/audio/instructions11.wav,NA,0,NA,NA,NA,NA,NA,NA,NA,NA,NA,NA,NA,NA,NA,NA,NA,NA,NA,NA,NA,NA,NA,NA,NA,NA,NA
fcp-trial,37,334361,0.0-6.0-4.0,voc_e2,12081,"[{""event"":""fullscreenenter"",""trial"":1,""time"":4447}]",NA,NA,NA,NA,NA,6,#EDC948,#46d3c8,10,10,1,40,0,2145.5,37,1,3204.5999999996275,10,1,practice,NA,NA,NA,NA,NA,NA,NA,NA,NA,NA
audio-instructions,38,355022,0.0-6.0-5.0,voc_e2,12081,"[{""event"":""fullscreenenter"",""trial"":1,""time"":4447}]",NA,1970.699999999255,static/audio/instructions12.wav,NA,0,NA,NA,NA,NA,NA,NA,NA,NA,NA,NA,NA,NA,NA,NA,NA,NA,NA,NA,NA,NA,NA,NA,NA,NA,NA
audio-instructions,39,363455,0.0-6.0-6.0,voc_e2,12081,"[{""event"":""fullscreenenter"",""trial"":1,""time"":4447}]",NA,840.9000000003725,static/audio/instructions13.wav,NA,0,NA,NA,NA,NA,NA,NA,NA,NA,NA,NA,NA,NA,NA,NA,NA,NA,NA,NA,NA,NA,NA,NA,NA,NA,NA
audio-instructions,40,372907,0.0-6.0-7.0,voc_e2,12081,"[{""event"":""fullscreenenter"",""trial"":1,""time"":4447}]",NA,1002.9000000003724,static/audio/instructions14.wav,NA,0,NA,NA,NA,NA,NA,NA,NA,NA,NA,NA,NA,NA,NA,NA,NA,NA,NA,NA,NA,NA,NA,NA,NA,NA,NA
audio-instructions,41,380228,0.0-7.0-0.0,voc_e2,12081,"[{""event"":""fullscreenenter"",""trial"":1,""time"":4447}]",NA,409.19999999925494,static/audio/instructions15.wav,NA,0,NA,NA,NA,NA,NA,NA,NA,NA,NA,NA,NA,NA,NA,NA,NA,NA,NA,NA,NA,NA,NA,NA,NA,NA,NA
audio-instructions,42,387356,0.0-7.0-1.0,voc_e2,12081,"[{""event"":""fullscreenenter"",""trial"":1,""time"":4447}]",NA,299.59999999962747,static/audio/instructions16.wav,NA,0,NA,NA,NA,NA,NA,NA,NA,NA,NA,NA,NA,NA,NA,NA,NA,NA,NA,NA,NA,NA,NA,NA,NA,NA,NA
audio-instructions,43,395523,0.0-7.0-2.0,voc_e2,12081,"[{""event"":""fullscreenenter"",""trial"":1,""time"":4447}]",NA,488.69999999925494,static/audio/instructions17.wav,NA,0,NA,NA,NA,NA,NA,NA,NA,NA,NA,NA,NA,NA,NA,NA,NA,NA,NA,NA,NA,NA,NA,NA,NA,NA,NA
audio-instructions,44,404534,0.0-7.0-3.0,voc_e2,12081,"[{""event"":""fullscreenenter"",""trial"":1,""time"":4447}]",NA,1243.5,static/audio/instructions18.wav,NA,0,NA,NA,NA,NA,NA,NA,NA,NA,NA,NA,NA,NA,NA,NA,NA,NA,NA,NA,NA,NA,NA,NA,NA,NA,NA
audio-instructions,45,413250,0.0-7.0-4.0,voc_e2,12081,"[{""event"":""fullscreenenter"",""trial"":1,""time"":4447}]",NA,1975.9000000003723,static/audio/instructions19.wav,NA,0,NA,NA,NA,NA,NA,NA,NA,NA,NA,NA,NA,NA,NA,NA,NA,NA,NA,NA,NA,NA,NA,NA,NA,NA,NA
fcp-comprehension,46,423110,0.0-7.0-5.0,voc_e2,12081,"[{""event"":""fullscreenenter"",""trial"":1,""time"":4447}]",NA,9857.199999999257,NA,NA,NA,NA,NA,NA,NA,NA,NA,NA,NA,NA,NA,NA,NA,NA,NA,NA,"false,false,false,true",0,NA,NA,NA,NA,NA,NA,NA,NA
audio-instructions,47,432820,0.0-8.0,voc_e2,12081,"[{""event"":""fullscreenenter"",""trial"":1,""time"":4447}]",NA,489.80000000074506,static/audio/ready.wav,NA,0,NA,NA,NA,NA,NA,NA,NA,NA,NA,NA,NA,NA,NA,NA,NA,NA,NA,NA,NA,NA,NA,NA,NA,NA,NA
fcp-trial,48,438046,0.0-9.0-0.0,voc_e2,12081,"[{""event"":""fullscreenenter"",""trial"":1,""time"":4447}]",NA,NA,NA,NA,NA,6,#D89F1C,#3386FF,10,10,1,40,0,2957.2000000011176,37,1,759.5999999996275,10,1,experiment,NA,NA,2,0.5,0.5,4,5,1,1,NA
fcp-trial,49,448251,0.0-10.0-0.0,voc_e2,12081,"[{""event"":""fullscreenenter"",""trial"":1,""time"":4447}]",NA,NA,NA,NA,NA,1,#741CD8,#D8271C,10,10,1,38,1,7603.799999998882,39,0,1093.4000000003725,10,0,experiment,NA,NA,0,0.9,0.1,0,1,2,1,NA
fcp-trial,50,457692,0.0-11.0-0.0,voc_e2,12081,"[{""event"":""fullscreenenter"",""trial"":1,""time"":4447}]",NA,NA,NA,NA,NA,4,#1CD855,#FA92F8,10,0,1,40,0,7317.800000000745,37,1,616.0999999996275,10,1,experiment,NA,NA,1,0.7,0.3,2,3,3,1,NA
fcp-trial,51,467588,0.0-12.0-0.0,voc_e2,12081,"[{""event"":""fullscreenenter"",""trial"":1,""time"":4447}]",NA,NA,NA,NA,NA,5,#D8271C,#741CD8,0,10,0,40,0,7620.800000000745,39,0,764.5999999996275,10,1,experiment,NA,NA,0,0.1,0.9,1,0,4,1,NA
fcp-trial,52,477824,0.0-13.0-0.0,voc_e2,12081,"[{""event"":""fullscreenenter"",""trial"":1,""time"":4447}]",NA,NA,NA,NA,NA,0,#741CD8,#D8271C,10,10,1,38,1,6365.5999999996275,39,0,2362.60000000149,10,0,experiment,NA,NA,0,0.9,0.1,0,1,5,1,NA
fcp-trial,53,488369,0.0-14.0-0.0,voc_e2,12081,"[{""event"":""fullscreenenter"",""trial"":1,""time"":4447}]",NA,NA,NA,NA,NA,2,#D89F1C,#3386FF,10,10,1,38,1,5650.300000000745,37,1,3387.5999999996275,10,1,experiment,NA,NA,2,0.5,0.5,4,5,6,1,NA
fcp-trial,54,495358,0.0-15.0-0.0,voc_e2,12081,"[{""event"":""fullscreenenter"",""trial"":1,""time"":4447}]",NA,NA,NA,NA,NA,6,#1CD855,#FA92F8,10,0,1,40,0,4299.299999998882,37,1,1181.199999999255,10,1,experiment,NA,NA,1,0.7,0.3,2,3,7,1,NA
fcp-trial,55,500353,0.0-16.0-0.0,voc_e2,12081,"[{""event"":""fullscreenenter"",""trial"":1,""time"":4447}]",NA,NA,NA,NA,NA,6,#741CD8,#D8271C,10,0,1,40,0,2898.800000000745,39,0,587.6999999992549,0,0,experiment,NA,NA,0,0.9,0.1,0,1,8,1,NA
fcp-trial,56,508285,0.0-17.0-0.0,voc_e2,12081,"[{""event"":""fullscreenenter"",""trial"":1,""time"":4447}]",NA,NA,NA,NA,NA,5,#D89F1C,#3386FF,10,10,1,40,0,5809.800000000745,39,0,614.2999999988824,10,0,experiment,NA,NA,2,0.5,0.5,4,5,9,1,NA
fcp-trial,57,512868,0.0-18.0-0.0,voc_e2,12081,"[{""event"":""fullscreenenter"",""trial"":1,""time"":4447}]",NA,NA,NA,NA,NA,2,#FA92F8,#1CD855,0,0,0,38,1,2198.7000000011176,39,0,875.8000000007451,0,1,experiment,NA,NA,1,0.3,0.7,3,2,10,1,NA
fcp-trial,58,519904,0.0-19.0-0.0,voc_e2,12081,"[{""event"":""fullscreenenter"",""trial"":1,""time"":4447}]",NA,NA,NA,NA,NA,3,#1CD855,#FA92F8,10,10,1,40,0,4853.5,39,0,676.0999999996275,10,0,experiment,NA,NA,1,0.7,0.3,2,3,11,1,NA
fcp-trial,59,524237,0.0-20.0-0.0,voc_e2,12081,"[{""event"":""fullscreenenter"",""trial"":1,""time"":4447}]",NA,NA,NA,NA,NA,3,#741CD8,#D8271C,10,0,1,38,1,2230.5,39,0,596.1999999992549,0,0,experiment,NA,NA,0,0.9,0.1,0,1,12,1,NA
fcp-trial,60,531023,0.0-21.0-0.0,voc_e2,12081,"[{""event"":""fullscreenenter"",""trial"":1,""time"":4447}]",NA,NA,NA,NA,NA,0,#FA92F8,#1CD855,0,0,0,38,1,2452.7000000011176,37,1,2825.60000000149,0,0,experiment,NA,NA,1,0.3,0.7,3,2,13,1,NA
fcp-trial,61,538689,0.0-22.0-0.0,voc_e2,12081,"[{""event"":""fullscreenenter"",""trial"":1,""time"":4447}]",NA,NA,NA,NA,NA,0,#3386FF,#D89F1C,0,0,0,38,1,5658.4000000003725,37,1,498.09999999962747,0,0,experiment,NA,NA,2,0.5,0.5,5,4,14,1,NA
fcp-trial,62,544256,0.0-23.0-0.0,voc_e2,12081,"[{""event"":""fullscreenenter"",""trial"":1,""time"":4447}]",NA,NA,NA,NA,NA,4,#3386FF,#D89F1C,10,10,0,40,0,3051.5,37,1,1006.5,10,0,experiment,NA,NA,2,0.5,0.5,5,4,15,1,NA
fcp-trial,63,549990,0.0-24.0-0.0,voc_e2,12081,"[{""event"":""fullscreenenter"",""trial"":1,""time"":4447}]",NA,NA,NA,NA,NA,1,#FA92F8,#1CD855,10,10,0,38,1,1954.5,39,0,2272.699999999255,10,1,experiment,NA,NA,1,0.3,0.7,3,2,16,1,NA
fcp-trial,64,555266,0.0-25.0-0.0,voc_e2,12081,"[{""event"":""fullscreenenter"",""trial"":1,""time"":4447}]",NA,NA,NA,NA,NA,4,#D8271C,#741CD8,0,10,0,40,0,3316.7999999988824,37,1,450.69999999925494,0,0,experiment,NA,NA,0,0.1,0.9,1,0,17,1,NA
fcp-trial,65,559537,0.0-26.0-0.0,voc_e2,12081,"[{""event"":""fullscreenenter"",""trial"":1,""time"":4447}]",NA,NA,NA,NA,NA,5,#FA92F8,#1CD855,10,10,0,40,0,2298.699999999255,37,1,464.09999999962747,10,0,experiment,NA,NA,1,0.3,0.7,3,2,18,1,NA
fcp-trial,66,569676,0.0-27.0-0.0,voc_e2,12081,"[{""event"":""fullscreenenter"",""trial"":1,""time"":4447}]",NA,NA,NA,NA,NA,1,#3386FF,#D89F1C,0,10,0,38,1,5120.5,39,0,3512.5999999996275,10,1,experiment,NA,NA,2,0.5,0.5,5,4,19,1,NA
fcp-trial,67,575631,0.0-28.0-0.0,voc_e2,12081,"[{""event"":""fullscreenenter"",""trial"":1,""time"":4447}]",NA,NA,NA,NA,NA,3,#3386FF,#D89F1C,0,10,0,40,0,3970,39,0,477.09999999962747,10,1,experiment,NA,NA,2,0.5,0.5,5,4,20,1,NA
fcp-trial,68,583557,0.0-29.0-0.0,voc_e2,12081,"[{""event"":""fullscreenenter"",""trial"":1,""time"":4447}]",NA,NA,NA,NA,NA,2,#D8271C,#741CD8,0,10,0,40,0,5681.5999999996275,37,1,734.5999999996275,0,0,experiment,NA,NA,0,0.1,0.9,1,0,21,1,NA
fcp-trial,69,592634,0.0-30.0-0.0,voc_e2,12081,"[{""event"":""fullscreenenter"",""trial"":1,""time"":4447}]",NA,NA,NA,NA,NA,4,#741CD8,#D8271C,10,0,1,40,0,7052.5,37,1,514.4000000003725,10,1,experiment,NA,NA,0,0.9,0.1,0,1,22,1,NA
fcp-trial,70,596978,0.0-31.0-0.0,voc_e2,12081,"[{""event"":""fullscreenenter"",""trial"":1,""time"":4447}]",NA,NA,NA,NA,NA,2,#3386FF,#D89F1C,0,0,0,40,0,2102.4000000003725,39,0,733.8000000007451,0,1,experiment,NA,NA,2,0.5,0.5,5,4,23,1,NA
fcp-trial,71,608056,0.0-32.0-0.0,voc_e2,12081,"[{""event"":""fullscreenenter"",""trial"":1,""time"":4447}]",NA,NA,NA,NA,NA,1,#741CD8,#D8271C,10,0,1,38,1,7333.199999999255,39,0,2237.800000000745,0,0,experiment,NA,NA,0,0.9,0.1,0,1,24,1,NA
fcp-trial,72,613256,0.0-33.0-0.0,voc_e2,12081,"[{""event"":""fullscreenenter"",""trial"":1,""time"":4447}]",NA,NA,NA,NA,NA,0,#741CD8,#D8271C,10,0,1,38,1,3219,37,1,472,10,1,experiment,NA,NA,0,0.9,0.1,0,1,25,1,NA
fcp-trial,73,620454,0.0-34.0-0.0,voc_e2,12081,"[{""event"":""fullscreenenter"",""trial"":1,""time"":4447}]",NA,NA,NA,NA,NA,3,#FA92F8,#1CD855,0,10,0,38,1,4011.699999999255,39,0,1678.7000000011176,10,1,experiment,NA,NA,1,0.3,0.7,3,2,26,1,NA
fcp-trial,74,625806,0.0-35.0-0.0,voc_e2,12081,"[{""event"":""fullscreenenter"",""trial"":1,""time"":4447}]",NA,NA,NA,NA,NA,0,#3386FF,#D89F1C,10,0,0,38,1,3106.0999999996275,39,0,738.7000000011176,0,1,experiment,NA,NA,2,0.5,0.5,5,4,27,1,NA
fcp-trial,75,631313,0.0-36.0-0.0,voc_e2,12081,"[{""event"":""fullscreenenter"",""trial"":1,""time"":4447}]",NA,NA,NA,NA,NA,6,#D8271C,#741CD8,0,10,0,40,0,3355.5,37,1,642,0,0,experiment,NA,NA,0,0.1,0.9,1,0,28,1,NA
fcp-trial,76,639461,0.0-37.0-0.0,voc_e2,12081,"[{""event"":""fullscreenenter"",""trial"":1,""time"":4447}]",NA,NA,NA,NA,NA,0,#FA92F8,#1CD855,0,10,0,38,1,5061.699999999255,39,0,1581.300000000745,10,1,experiment,NA,NA,1,0.3,0.7,3,2,29,1,NA
fcp-trial,77,643186,0.0-38.0-0.0,voc_e2,12081,"[{""event"":""fullscreenenter"",""trial"":1,""time"":4447}]",NA,NA,NA,NA,NA,6,#FA92F8,#1CD855,0,0,0,40,0,1544.2000000011176,39,0,674,0,1,experiment,NA,NA,1,0.3,0.7,3,2,30,1,NA
fcp-trial,78,648685,0.0-39.0-0.0,voc_e2,12081,"[{""event"":""fullscreenenter"",""trial"":1,""time"":4447}]",NA,NA,NA,NA,NA,6,#D89F1C,#3386FF,10,0,1,40,0,3404.4000000003725,39,0,588.3000000007451,0,0,experiment,NA,NA,2,0.5,0.5,4,5,31,1,NA
fcp-trial,79,652579,0.0-40.0-0.0,voc_e2,12081,"[{""event"":""fullscreenenter"",""trial"":1,""time"":4447}]",NA,NA,NA,NA,NA,5,#741CD8,#D8271C,10,0,1,40,0,1865.199999999255,39,0,521.6999999992549,0,0,experiment,NA,NA,0,0.9,0.1,0,1,32,1,NA
fcp-trial,80,655974,0.0-41.0-0.0,voc_e2,12081,"[{""event"":""fullscreenenter"",""trial"":1,""time"":4447}]",NA,NA,NA,NA,NA,1,#3386FF,#D89F1C,10,10,0,38,1,1423.0999999996275,37,1,464.09999999962747,10,0,experiment,NA,NA,2,0.5,0.5,5,4,33,1,NA
fcp-trial,81,660009,0.0-42.0-0.0,voc_e2,12081,"[{""event"":""fullscreenenter"",""trial"":1,""time"":4447}]",NA,NA,NA,NA,NA,5,#FA92F8,#1CD855,0,10,0,40,0,1880.199999999255,39,0,647.5,10,1,experiment,NA,NA,1,0.3,0.7,3,2,34,1,NA
fcp-trial,82,663189,0.0-43.0-0.0,voc_e2,12081,"[{""event"":""fullscreenenter"",""trial"":1,""time"":4447}]",NA,NA,NA,NA,NA,4,#3386FF,#D89F1C,0,10,0,40,0,1229.5999999996275,39,0,442.5,10,1,experiment,NA,NA,2,0.5,0.5,5,4,35,1,NA
fcp-trial,83,665909,0.0-44.0-0.0,voc_e2,12081,"[{""event"":""fullscreenenter"",""trial"":1,""time"":4447}]",NA,NA,NA,NA,NA,5,#D89F1C,#3386FF,10,0,1,40,0,738.8000000007451,37,1,473,10,1,experiment,NA,NA,2,0.5,0.5,4,5,36,1,NA
fcp-trial,84,668891,0.0-45.0-0.0,voc_e2,12081,"[{""event"":""fullscreenenter"",""trial"":1,""time"":4447}]",NA,NA,NA,NA,NA,2,#741CD8,#D8271C,10,0,1,40,0,889.9000000003725,37,1,585.2999999988824,10,1,experiment,NA,NA,0,0.9,0.1,0,1,37,1,NA
fcp-trial,85,671721,0.0-46.0-0.0,voc_e2,12081,"[{""event"":""fullscreenenter"",""trial"":1,""time"":4447}]",NA,NA,NA,NA,NA,4,#FA92F8,#1CD855,0,0,0,40,0,870.2000000011176,39,0,448.7999999988824,0,1,experiment,NA,NA,1,0.3,0.7,3,2,38,1,NA
fcp-trial,86,675448,0.0-47.0-0.0,voc_e2,12081,"[{""event"":""fullscreenenter"",""trial"":1,""time"":4447}]",NA,NA,NA,NA,NA,2,#FA92F8,#1CD855,0,10,0,40,0,1745.800000000745,37,1,473.30000000074506,0,0,experiment,NA,NA,1,0.3,0.7,3,2,39,1,NA
fcp-trial,87,680021,0.0-48.0-0.0,voc_e2,12081,"[{""event"":""fullscreenenter"",""trial"":1,""time"":4447}]",NA,NA,NA,NA,NA,3,#D8271C,#741CD8,0,0,0,40,0,2333.60000000149,37,1,730.8999999985099,0,0,experiment,NA,NA,0,0.1,0.9,1,0,40,1,NA
fcp-trial,88,686278,0.0-49.0-0.0,voc_e2,12081,"[{""event"":""fullscreenenter"",""trial"":1,""time"":4447}]",NA,NA,NA,NA,NA,3,#D89F1C,#3386FF,0,10,1,38,1,2785.2000000011176,39,0,1964.699999999255,10,0,experiment,NA,NA,2,0.5,0.5,4,5,41,1,NA
fcp-trial,89,690139,0.0-50.0-0.0,voc_e2,12081,"[{""event"":""fullscreenenter"",""trial"":1,""time"":4447}]",NA,NA,NA,NA,NA,1,#FA92F8,#1CD855,0,10,0,38,1,1819.5,37,1,533.0999999996275,0,0,experiment,NA,NA,1,0.3,0.7,3,2,42,1,NA
fcp-trial,90,695748,0.0-51.0-0.0,voc_e2,12081,"[{""event"":""fullscreenenter"",""trial"":1,""time"":4447}]",NA,NA,NA,NA,NA,4,#741CD8,#D8271C,10,0,1,40,0,3644.10000000149,37,1,455.80000000074506,10,1,experiment,NA,NA,0,0.9,0.1,0,1,43,1,NA
fcp-trial,91,699220,0.0-52.0-0.0,voc_e2,12081,"[{""event"":""fullscreenenter"",""trial"":1,""time"":4447}]",NA,NA,NA,NA,NA,1,#D8271C,#741CD8,0,10,0,38,1,1568.199999999255,39,0,395.90000000037253,10,1,experiment,NA,NA,0,0.1,0.9,1,0,44,1,NA
fcp-trial,92,705563,0.0-53.0-0.0,voc_e2,12081,"[{""event"":""fullscreenenter"",""trial"":1,""time"":4447}]",NA,NA,NA,NA,NA,0,#3386FF,#D89F1C,0,0,0,38,1,2226.9000000003725,39,0,2606.7000000011176,0,1,experiment,NA,NA,2,0.5,0.5,5,4,45,1,NA
fcp-trial,93,713357,0.0-54.0-0.0,voc_e2,12081,"[{""event"":""fullscreenenter"",""trial"":1,""time"":4447}]",NA,NA,NA,NA,NA,6,#FA92F8,#1CD855,0,10,0,40,0,5700.199999999255,37,1,585.1999999992549,0,0,experiment,NA,NA,1,0.3,0.7,3,2,46,2,NA
fcp-trial,94,717816,0.0-55.0-0.0,voc_e2,12081,"[{""event"":""fullscreenenter"",""trial"":1,""time"":4447}]",NA,NA,NA,NA,NA,5,#741CD8,#D8271C,10,0,1,38,1,2524.5,37,1,425.8999999985099,10,1,experiment,NA,NA,0,0.9,0.1,0,1,47,2,NA
fcp-trial,95,722473,0.0-56.0-0.0,voc_e2,12081,"[{""event"":""fullscreenenter"",""trial"":1,""time"":4447}]",NA,NA,NA,NA,NA,4,#3386FF,#D89F1C,10,10,0,38,1,2857.7999999988824,39,0,292.19999999925494,10,1,experiment,NA,NA,2,0.5,0.5,5,4,48,2,NA
fcp-trial,96,727693,0.0-57.0-0.0,voc_e2,12081,"[{""event"":""fullscreenenter"",""trial"":1,""time"":4447}]",NA,NA,NA,NA,NA,1,#1CD855,#FA92F8,10,0,1,38,1,2731.2000000011176,37,1,982.2000000011176,10,1,experiment,NA,NA,1,0.7,0.3,2,3,49,2,NA
fcp-trial,97,731188,0.0-58.0-0.0,voc_e2,12081,"[{""event"":""fullscreenenter"",""trial"":1,""time"":4447}]",NA,NA,NA,NA,NA,4,#1CD855,#FA92F8,10,0,1,40,0,1526.4000000003725,37,1,460.69999999925494,10,1,experiment,NA,NA,1,0.7,0.3,2,3,50,2,NA
fcp-trial,98,735807,0.0-59.0-0.0,voc_e2,12081,"[{""event"":""fullscreenenter"",""trial"":1,""time"":4447}]",NA,NA,NA,NA,NA,2,#D8271C,#741CD8,0,10,0,38,1,2581.5,39,0,530,10,1,experiment,NA,NA,0,0.1,0.9,1,0,51,2,NA
fcp-trial,99,739556,0.0-60.0-0.0,voc_e2,12081,"[{""event"":""fullscreenenter"",""trial"":1,""time"":4447}]",NA,NA,NA,NA,NA,5,#D89F1C,#3386FF,10,10,1,40,0,1510.4000000003725,39,0,729.0999999996275,10,0,experiment,NA,NA,2,0.5,0.5,4,5,52,2,NA
fcp-trial,100,752866,0.0-61.0-0.0,voc_e2,12081,"[{""event"":""fullscreenenter"",""trial"":1,""time"":4447}]",NA,NA,NA,NA,NA,1,#D89F1C,#3386FF,10,10,1,38,1,9846.39999999851,37,1,1954.5999999996275,10,1,experiment,NA,NA,2,0.5,0.5,4,5,53,2,NA
fcp-trial,101,757541,0.0-62.0-0.0,voc_e2,12081,"[{""event"":""fullscreenenter"",""trial"":1,""time"":4447}]",NA,NA,NA,NA,NA,5,#1CD855,#FA92F8,10,0,1,40,0,2538.2000000011176,37,1,630.0999999996275,10,1,experiment,NA,NA,1,0.7,0.3,2,3,54,2,NA
fcp-trial,102,761281,0.0-63.0-0.0,voc_e2,12081,"[{""event"":""fullscreenenter"",""trial"":1,""time"":4447}]",NA,NA,NA,NA,NA,0,#D8271C,#741CD8,0,10,0,38,1,1790.699999999255,39,0,440.69999999925494,10,1,experiment,NA,NA,0,0.1,0.9,1,0,55,2,NA
fcp-trial,103,766636,0.0-64.0-0.0,voc_e2,12081,"[{""event"":""fullscreenenter"",""trial"":1,""time"":4447}]",NA,NA,NA,NA,NA,6,#D89F1C,#3386FF,10,0,1,40,0,3502.800000000745,37,1,345.40000000037253,10,1,experiment,NA,NA,2,0.5,0.5,4,5,56,2,NA
fcp-trial,104,772539,0.0-65.0-0.0,voc_e2,12081,"[{""event"":""fullscreenenter"",""trial"":1,""time"":4447}]",NA,NA,NA,NA,NA,3,#D89F1C,#3386FF,10,10,1,40,0,3824.699999999255,37,1,571.7999999988824,10,1,experiment,NA,NA,2,0.5,0.5,4,5,57,2,NA
fcp-trial,105,776837,0.0-66.0-0.0,voc_e2,12081,"[{""event"":""fullscreenenter"",""trial"":1,""time"":4447}]",NA,NA,NA,NA,NA,6,#D8271C,#741CD8,0,10,0,40,0,2022.699999999255,37,1,764.8000000007451,0,0,experiment,NA,NA,0,0.1,0.9,1,0,58,2,NA
fcp-trial,106,780540,0.0-67.0-0.0,voc_e2,12081,"[{""event"":""fullscreenenter"",""trial"":1,""time"":4447}]",NA,NA,NA,NA,NA,0,#1CD855,#FA92F8,0,10,1,38,1,1761.8999999985099,37,1,431.59999999962747,0,1,experiment,NA,NA,1,0.7,0.3,2,3,59,2,NA
fcp-trial,107,785921,0.0-68.0-0.0,voc_e2,12081,"[{""event"":""fullscreenenter"",""trial"":1,""time"":4447}]",NA,NA,NA,NA,NA,3,#1CD855,#FA92F8,10,10,1,40,0,3374.699999999255,39,0,496.40000000037253,10,0,experiment,NA,NA,1,0.7,0.3,2,3,60,2,NA
fcp-trial,108,793208,0.0-69.0-0.0,voc_e2,12081,"[{""event"":""fullscreenenter"",""trial"":1,""time"":4447}]",NA,NA,NA,NA,NA,2,#3386FF,#D89F1C,0,0,0,38,1,5341.5,39,0,439.40000000037253,0,1,experiment,NA,NA,2,0.5,0.5,5,4,61,2,NA
fcp-trial,109,798955,0.0-70.0-0.0,voc_e2,12081,"[{""event"":""fullscreenenter"",""trial"":1,""time"":4447}]",NA,NA,NA,NA,NA,2,#FA92F8,#1CD855,10,10,0,38,1,3945,39,0,294,10,1,experiment,NA,NA,1,0.3,0.7,3,2,62,2,NA
fcp-trial,110,804174,0.0-71.0-0.0,voc_e2,12081,"[{""event"":""fullscreenenter"",""trial"":1,""time"":4447}]",NA,NA,NA,NA,NA,3,#D8271C,#741CD8,0,10,0,40,0,3175.5,39,0,534.8000000007451,10,1,experiment,NA,NA,0,0.1,0.9,1,0,63,2,NA
fcp-trial,111,808422,0.0-72.0-0.0,voc_e2,12081,"[{""event"":""fullscreenenter"",""trial"":1,""time"":4447}]",NA,NA,NA,NA,NA,4,#D89F1C,#3386FF,0,10,1,40,0,2149.300000000745,39,0,591.9000000003725,10,0,experiment,NA,NA,2,0.5,0.5,4,5,64,2,NA
fcp-trial,112,813701,0.0-73.0-0.0,voc_e2,12081,"[{""event"":""fullscreenenter"",""trial"":1,""time"":4447}]",NA,NA,NA,NA,NA,0,#FA92F8,#1CD855,0,10,0,38,1,3451.699999999255,39,0,319.09999999962747,10,1,experiment,NA,NA,1,0.3,0.7,3,2,65,2,NA
fcp-trial,113,817750,0.0-74.0-0.0,voc_e2,12081,"[{""event"":""fullscreenenter"",""trial"":1,""time"":4447}]",NA,NA,NA,NA,NA,6,#FA92F8,#1CD855,0,0,0,40,0,1863.4000000003725,37,1,677.8999999985099,0,0,experiment,NA,NA,1,0.3,0.7,3,2,66,2,NA
fcp-trial,114,826749,0.0-75.0-0.0,voc_e2,12081,"[{""event"":""fullscreenenter"",""trial"":1,""time"":4447}]",NA,NA,NA,NA,NA,5,#D8271C,#741CD8,0,10,0,40,0,6895,37,1,597.6999999992549,0,0,experiment,NA,NA,0,0.1,0.9,1,0,67,2,NA
fcp-trial,115,829751,0.0-76.0-0.0,voc_e2,12081,"[{""event"":""fullscreenenter"",""trial"":1,""time"":4447}]",NA,NA,NA,NA,NA,4,#D8271C,#741CD8,0,10,0,40,0,1022.7000000011176,37,1,474,0,0,experiment,NA,NA,0,0.1,0.9,1,0,68,2,NA
fcp-trial,116,833844,0.0-77.0-0.0,voc_e2,12081,"[{""event"":""fullscreenenter"",""trial"":1,""time"":4447}]",NA,NA,NA,NA,NA,2,#3386FF,#D89F1C,10,0,0,38,1,1016.7999999988824,37,1,1571,10,0,experiment,NA,NA,2,0.5,0.5,5,4,69,2,NA
fcp-trial,117,844728,0.0-78.0-0.0,voc_e2,12081,"[{""event"":""fullscreenenter"",""trial"":1,""time"":4447}]",NA,NA,NA,NA,NA,2,#FA92F8,#1CD855,0,0,0,38,1,7227.699999999255,39,0,2148,0,1,experiment,NA,NA,1,0.3,0.7,3,2,70,2,NA
fcp-trial,118,848352,0.0-79.0-0.0,voc_e2,12081,"[{""event"":""fullscreenenter"",""trial"":1,""time"":4447}]",NA,NA,NA,NA,NA,3,#FA92F8,#1CD855,10,10,0,40,0,1292.9000000003725,39,0,823,10,1,experiment,NA,NA,1,0.3,0.7,3,2,71,2,NA
fcp-trial,119,852977,0.0-80.0-0.0,voc_e2,12081,"[{""event"":""fullscreenenter"",""trial"":1,""time"":4447}]",NA,NA,NA,NA,NA,1,#741CD8,#D8271C,10,0,1,38,1,1667.3999999985099,37,1,1450.5,10,1,experiment,NA,NA,0,0.9,0.1,0,1,72,2,NA
fcp-trial,120,857816,0.0-81.0-0.0,voc_e2,12081,"[{""event"":""fullscreenenter"",""trial"":1,""time"":4447}]",NA,NA,NA,NA,NA,1,#D89F1C,#3386FF,0,0,1,38,1,2580.5999999996275,37,1,749.9000000003725,0,1,experiment,NA,NA,2,0.5,0.5,4,5,73,2,NA
fcp-trial,121,861393,0.0-82.0-0.0,voc_e2,12081,"[{""event"":""fullscreenenter"",""trial"":1,""time"":4447}]",NA,NA,NA,NA,NA,3,#D8271C,#741CD8,0,10,0,38,1,1530.4000000003725,39,0,538.1999999992549,10,1,experiment,NA,NA,0,0.1,0.9,1,0,74,2,NA
fcp-trial,122,866547,0.0-83.0-0.0,voc_e2,12081,"[{""event"":""fullscreenenter"",""trial"":1,""time"":4447}]",NA,NA,NA,NA,NA,1,#1CD855,#FA92F8,0,10,1,38,1,1390.300000000745,37,1,2255,0,1,experiment,NA,NA,1,0.7,0.3,2,3,75,2,NA
fcp-trial,123,871078,0.0-84.0-0.0,voc_e2,12081,"[{""event"":""fullscreenenter"",""trial"":1,""time"":4447}]",NA,NA,NA,NA,NA,6,#D8271C,#741CD8,0,10,0,40,0,2564.5,39,0,460.09999999962747,10,1,experiment,NA,NA,0,0.1,0.9,1,0,76,2,NA
fcp-trial,124,875948,0.0-85.0-0.0,voc_e2,12081,"[{""event"":""fullscreenenter"",""trial"":1,""time"":4447}]",NA,NA,NA,NA,NA,4,#FA92F8,#1CD855,0,0,0,40,0,1627.5999999996275,39,0,1735,0,1,experiment,NA,NA,1,0.3,0.7,3,2,77,2,NA
fcp-trial,125,879119,0.0-86.0-0.0,voc_e2,12081,"[{""event"":""fullscreenenter"",""trial"":1,""time"":4447}]",NA,NA,NA,NA,NA,5,#D89F1C,#3386FF,10,0,1,40,0,1175,37,1,487.5,10,1,experiment,NA,NA,2,0.5,0.5,4,5,78,2,NA
fcp-trial,126,885856,0.0-87.0-0.0,voc_e2,12081,"[{""event"":""fullscreenenter"",""trial"":1,""time"":4447}]",NA,NA,NA,NA,NA,2,#D8271C,#741CD8,0,0,0,38,1,4375.4000000003725,39,0,854.5,0,1,experiment,NA,NA,0,0.1,0.9,1,0,79,2,NA
fcp-trial,127,891552,0.0-88.0-0.0,voc_e2,12081,"[{""event"":""fullscreenenter"",""trial"":1,""time"":4447}]",NA,NA,NA,NA,NA,5,#1CD855,#FA92F8,10,0,1,40,0,3257.89999999851,37,1,928.9000000003725,10,1,experiment,NA,NA,1,0.7,0.3,2,3,80,2,NA
fcp-trial,128,896560,0.0-89.0-0.0,voc_e2,12081,"[{""event"":""fullscreenenter"",""trial"":1,""time"":4447}]",NA,NA,NA,NA,NA,0,#3386FF,#D89F1C,0,10,0,38,1,2179.5999999996275,37,1,1321.0999999996275,0,0,experiment,NA,NA,2,0.5,0.5,5,4,81,2,NA
fcp-trial,129,901723,0.0-90.0-0.0,voc_e2,12081,"[{""event"":""fullscreenenter"",""trial"":1,""time"":4447}]",NA,NA,NA,NA,NA,0,#D8271C,#741CD8,0,10,0,38,1,1281.2000000011176,39,0,2374.5,10,1,experiment,NA,NA,0,0.1,0.9,1,0,82,2,NA
fcp-trial,130,905424,0.0-91.0-0.0,voc_e2,12081,"[{""event"":""fullscreenenter"",""trial"":1,""time"":4447}]",NA,NA,NA,NA,NA,6,#3386FF,#D89F1C,10,10,0,40,0,1521.800000000745,37,1,672.3000000007451,10,0,experiment,NA,NA,2,0.5,0.5,5,4,83,2,NA
fcp-trial,131,909732,0.0-92.0-0.0,voc_e2,12081,"[{""event"":""fullscreenenter"",""trial"":1,""time"":4447}]",NA,NA,NA,NA,NA,3,#D89F1C,#3386FF,0,10,1,40,0,2233.4000000003725,39,0,566.5999999996275,10,0,experiment,NA,NA,2,0.5,0.5,4,5,84,2,NA
fcp-trial,132,912887,0.0-93.0-0.0,voc_e2,12081,"[{""event"":""fullscreenenter"",""trial"":1,""time"":4447}]",NA,NA,NA,NA,NA,3,#3386FF,#D89F1C,10,0,0,40,0,772.6999999992549,37,1,873.9000000003725,10,0,experiment,NA,NA,2,0.5,0.5,5,4,85,2,NA
fcp-trial,133,916455,0.0-94.0-0.0,voc_e2,12081,"[{""event"":""fullscreenenter"",""trial"":1,""time"":4447}]",NA,NA,NA,NA,NA,6,#3386FF,#D89F1C,0,10,0,40,0,1141.6000000014901,37,1,921.8000000007451,0,0,experiment,NA,NA,2,0.5,0.5,5,4,86,2,NA
fcp-trial,134,921203,0.0-95.0-0.0,voc_e2,12081,"[{""event"":""fullscreenenter"",""trial"":1,""time"":4447}]",NA,NA,NA,NA,NA,3,#1CD855,#FA92F8,10,0,1,40,0,1199.9000000003725,39,0,2039.800000000745,0,0,experiment,NA,NA,1,0.7,0.3,2,3,87,2,NA
fcp-trial,135,924412,0.0-96.0-0.0,voc_e2,12081,"[{""event"":""fullscreenenter"",""trial"":1,""time"":4447}]",NA,NA,NA,NA,NA,6,#D8271C,#741CD8,0,10,0,40,0,1036.7000000011176,39,0,664.7999999988824,10,1,experiment,NA,NA,0,0.1,0.9,1,0,88,2,NA
fcp-trial,136,927948,0.0-97.0-0.0,voc_e2,12081,"[{""event"":""fullscreenenter"",""trial"":1,""time"":4447}]",NA,NA,NA,NA,NA,4,#3386FF,#D89F1C,0,10,0,40,0,1540.0999999996275,39,0,489.40000000037253,10,1,experiment,NA,NA,2,0.5,0.5,5,4,89,2,NA
fcp-trial,137,931768,0.0-98.0-0.0,voc_e2,12081,"[{""event"":""fullscreenenter"",""trial"":1,""time"":4447}]",NA,NA,NA,NA,NA,2,#D8271C,#741CD8,0,10,0,38,1,1302,39,0,1012.8000000007451,10,1,experiment,NA,NA,0,0.1,0.9,1,0,90,2,NA
fcp-trial,138,946773,0.0-99.0-0.0,voc_e2,12081,"[{""event"":""fullscreenenter"",""trial"":1,""time"":4447}]",NA,NA,NA,NA,NA,4,#D8271C,#741CD8,0,10,0,null,null,null,null,null,null,NA,0,experiment,NA,NA,0,0.1,0.9,1,0,91,3,NA
fcp-trial,139,950821,0.0-100.0-0.0,voc_e2,12081,"[{""event"":""fullscreenenter"",""trial"":1,""time"":4447}]",NA,NA,NA,NA,NA,2,#FA92F8,#1CD855,0,10,0,38,1,1697.9000000003725,39,0,841.0999999996275,10,1,experiment,NA,NA,1,0.3,0.7,3,2,92,3,NA
fcp-trial,140,954126,0.0-101.0-0.0,voc_e2,12081,"[{""event"":""fullscreenenter"",""trial"":1,""time"":4447}]",NA,NA,NA,NA,NA,5,#D89F1C,#3386FF,10,0,1,40,0,1315.4000000003725,39,0,480.59999999962747,0,0,experiment,NA,NA,2,0.5,0.5,4,5,93,3,NA
fcp-trial,141,957786,0.0-102.0-0.0,voc_e2,12081,"[{""event"":""fullscreenenter"",""trial"":1,""time"":4447}]",NA,NA,NA,NA,NA,2,#3386FF,#D89F1C,0,0,0,38,1,1338.0999999996275,37,1,814.0999999996275,0,0,experiment,NA,NA,2,0.5,0.5,5,4,94,3,NA
fcp-trial,142,961149,0.0-103.0-0.0,voc_e2,12081,"[{""event"":""fullscreenenter"",""trial"":1,""time"":4447}]",NA,NA,NA,NA,NA,3,#D8271C,#741CD8,0,10,0,38,1,1317.2999999988824,39,0,536.3000000007451,10,1,experiment,NA,NA,0,0.1,0.9,1,0,95,3,NA
fcp-trial,143,965138,0.0-104.0-0.0,voc_e2,12081,"[{""event"":""fullscreenenter"",""trial"":1,""time"":4447}]",NA,NA,NA,NA,NA,1,#1CD855,#FA92F8,10,10,1,38,1,1654.800000000745,37,1,826.7999999988824,10,1,experiment,NA,NA,1,0.7,0.3,2,3,96,3,NA
fcp-trial,144,968253,0.0-105.0-0.0,voc_e2,12081,"[{""event"":""fullscreenenter"",""trial"":1,""time"":4447}]",NA,NA,NA,NA,NA,0,#1CD855,#FA92F8,10,10,1,38,1,1045.6000000014901,37,1,561,10,1,experiment,NA,NA,1,0.7,0.3,2,3,97,3,NA
fcp-trial,145,972796,0.0-106.0-0.0,voc_e2,12081,"[{""event"":""fullscreenenter"",""trial"":1,""time"":4447}]",NA,NA,NA,NA,NA,1,#D89F1C,#3386FF,10,0,1,38,1,2357.2000000011176,37,1,676.0999999996275,10,1,experiment,NA,NA,2,0.5,0.5,4,5,98,3,NA
fcp-trial,146,977082,0.0-107.0-0.0,voc_e2,12081,"[{""event"":""fullscreenenter"",""trial"":1,""time"":4447}]",NA,NA,NA,NA,NA,6,#FA92F8,#1CD855,0,10,0,40,0,2105.2999999988824,37,1,672.1999999992549,0,0,experiment,NA,NA,1,0.3,0.7,3,2,99,3,NA
fcp-trial,147,981026,0.0-108.0-0.0,voc_e2,12081,"[{""event"":""fullscreenenter"",""trial"":1,""time"":4447}]",NA,NA,NA,NA,NA,1,#741CD8,#D8271C,10,0,1,38,1,1948.4000000003725,39,0,487.7000000011176,0,0,experiment,NA,NA,0,0.9,0.1,0,1,100,3,NA
fcp-trial,148,984577,0.0-109.0-0.0,voc_e2,12081,"[{""event"":""fullscreenenter"",""trial"":1,""time"":4447}]",NA,NA,NA,NA,NA,4,#FA92F8,#1CD855,10,10,0,40,0,1520.300000000745,37,1,523.6999999992549,10,0,experiment,NA,NA,1,0.3,0.7,3,2,101,3,NA
fcp-trial,149,987907,0.0-110.0-0.0,voc_e2,12081,"[{""event"":""fullscreenenter"",""trial"":1,""time"":4447}]",NA,NA,NA,NA,NA,0,#D8271C,#741CD8,0,0,0,38,1,1112.2999999988824,39,0,710.5999999996275,0,1,experiment,NA,NA,0,0.1,0.9,1,0,102,3,NA
fcp-trial,150,990782,0.0-111.0-0.0,voc_e2,12081,"[{""event"":""fullscreenenter"",""trial"":1,""time"":4447}]",NA,NA,NA,NA,NA,0,#D89F1C,#3386FF,10,10,1,38,1,944.4000000003725,37,1,422.5,10,1,experiment,NA,NA,2,0.5,0.5,4,5,103,3,NA
fcp-trial,151,993915,0.0-112.0-0.0,voc_e2,12081,"[{""event"":""fullscreenenter"",""trial"":1,""time"":4447}]",NA,NA,NA,NA,NA,5,#FA92F8,#1CD855,0,10,0,40,0,1118.5999999996275,39,0,506.30000000074506,10,1,experiment,NA,NA,1,0.3,0.7,3,2,104,3,NA
fcp-trial,152,997526,0.0-113.0-0.0,voc_e2,12081,"[{""event"":""fullscreenenter"",""trial"":1,""time"":4447}]",NA,NA,NA,NA,NA,5,#741CD8,#D8271C,10,0,1,40,0,1286.800000000745,37,1,817.4000000003725,10,1,experiment,NA,NA,0,0.9,0.1,0,1,105,3,NA
audio-instructions,153,1002758,0.0-114.0,voc_e2,12081,"[{""event"":""fullscreenenter"",""trial"":1,""time"":4447}]",NA,733.1999999992549,static/audio/pause.wav,NA,0,NA,NA,NA,NA,NA,NA,NA,NA,NA,NA,NA,NA,NA,NA,NA,NA,NA,NA,NA,NA,NA,NA,NA,NA,NA
fcp-trial,154,1008904,0.0-115.0-0.0,voc_e2,12081,"[{""event"":""fullscreenenter"",""trial"":1,""time"":4447}]",NA,NA,NA,NA,NA,6,#3386FF,#D89F1C,10,10,0,38,1,1218.4000000003725,37,1,3418.5999999996275,10,0,experiment,NA,NA,2,0.5,0.5,5,4,106,3,NA
fcp-trial,155,1015323,0.0-116.0-0.0,voc_e2,12081,"[{""event"":""fullscreenenter"",""trial"":1,""time"":4447}]",NA,NA,NA,NA,NA,1,#741CD8,#D8271C,10,0,1,38,1,4019.2000000011176,37,1,891.3000000007451,10,1,experiment,NA,NA,0,0.9,0.1,0,1,107,3,NA
fcp-trial,156,1018347,0.0-117.0-0.0,voc_e2,12081,"[{""event"":""fullscreenenter"",""trial"":1,""time"":4447}]",NA,NA,NA,NA,NA,1,#1CD855,#FA92F8,10,0,1,38,1,934.1999999992549,39,0,582.6999999992549,0,0,experiment,NA,NA,1,0.7,0.3,2,3,108,3,NA
fcp-trial,157,1021298,0.0-118.0-0.0,voc_e2,12081,"[{""event"":""fullscreenenter"",""trial"":1,""time"":4447}]",NA,NA,NA,NA,NA,2,#D8271C,#741CD8,0,10,0,38,1,1012.6999999992549,37,1,431.40000000037253,0,0,experiment,NA,NA,0,0.1,0.9,1,0,109,3,NA
fcp-trial,158,1024999,0.0-119.0-0.0,voc_e2,12081,"[{""event"":""fullscreenenter"",""trial"":1,""time"":4447}]",NA,NA,NA,NA,NA,1,#3386FF,#D89F1C,10,0,0,38,1,1181.199999999255,39,0,1013,0,1,experiment,NA,NA,2,0.5,0.5,5,4,110,3,NA
fcp-trial,159,1028799,0.0-120.0-0.0,voc_e2,12081,"[{""event"":""fullscreenenter"",""trial"":1,""time"":4447}]",NA,NA,NA,NA,NA,2,#1CD855,#FA92F8,0,10,1,40,0,1445.199999999255,39,0,845.7999999988824,10,0,experiment,NA,NA,1,0.7,0.3,2,3,111,3,NA
fcp-trial,160,1032018,0.0-121.0-0.0,voc_e2,12081,"[{""event"":""fullscreenenter"",""trial"":1,""time"":4447}]",NA,NA,NA,NA,NA,6,#1CD855,#FA92F8,10,0,1,40,0,860.8000000007451,37,1,850.3000000007451,10,1,experiment,NA,NA,1,0.7,0.3,2,3,112,3,NA
fcp-trial,161,1034685,0.0-122.0-0.0,voc_e2,12081,"[{""event"":""fullscreenenter"",""trial"":1,""time"":4447}]",NA,NA,NA,NA,NA,2,#D89F1C,#3386FF,10,10,1,40,0,748.5999999996275,39,0,410.19999999925494,10,0,experiment,NA,NA,2,0.5,0.5,4,5,113,3,NA
fcp-trial,162,1037200,0.0-123.0-0.0,voc_e2,12081,"[{""event"":""fullscreenenter"",""trial"":1,""time"":4447}]",NA,NA,NA,NA,NA,6,#741CD8,#D8271C,10,0,1,40,0,440.80000000074506,39,0,565.3000000007451,0,0,experiment,NA,NA,0,0.9,0.1,0,1,114,3,NA
fcp-trial,163,1040488,0.0-124.0-0.0,voc_e2,12081,"[{""event"":""fullscreenenter"",""trial"":1,""time"":4447}]",NA,NA,NA,NA,NA,3,#FA92F8,#1CD855,10,10,0,38,1,850.5999999996275,37,1,928.8000000007451,10,0,experiment,NA,NA,1,0.3,0.7,3,2,115,3,NA
fcp-trial,164,1043684,0.0-125.0-0.0,voc_e2,12081,"[{""event"":""fullscreenenter"",""trial"":1,""time"":4447}]",NA,NA,NA,NA,NA,3,#741CD8,#D8271C,0,0,1,40,0,870.1999999992549,37,1,816.6999999992549,0,1,experiment,NA,NA,0,0.9,0.1,0,1,116,3,NA
fcp-trial,165,1046224,0.0-126.0-0.0,voc_e2,12081,"[{""event"":""fullscreenenter"",""trial"":1,""time"":4447}]",NA,NA,NA,NA,NA,0,#1CD855,#FA92F8,10,0,1,40,0,578.5,39,0,456.40000000037253,0,0,experiment,NA,NA,1,0.7,0.3,2,3,117,3,NA
fcp-trial,166,1049082,0.0-127.0-0.0,voc_e2,12081,"[{""event"":""fullscreenenter"",""trial"":1,""time"":4447}]",NA,NA,NA,NA,NA,4,#D89F1C,#3386FF,0,10,1,40,0,1066.7999999988824,37,1,283.40000000037253,0,1,experiment,NA,NA,2,0.5,0.5,4,5,118,3,NA
fcp-trial,167,1054251,0.0-128.0-0.0,voc_e2,12081,"[{""event"":""fullscreenenter"",""trial"":1,""time"":4447}]",NA,NA,NA,NA,NA,0,#3386FF,#D89F1C,10,0,0,38,1,2125.300000000745,37,1,1534.7000000011176,10,0,experiment,NA,NA,2,0.5,0.5,5,4,119,3,NA
fcp-trial,168,1057282,0.0-129.0-0.0,voc_e2,12081,"[{""event"":""fullscreenenter"",""trial"":1,""time"":4447}]",NA,NA,NA,NA,NA,5,#D8271C,#741CD8,0,10,0,40,0,1060.2999999988824,39,0,462.7999999988824,10,1,experiment,NA,NA,0,0.1,0.9,1,0,120,3,NA
fcp-trial,169,1059902,0.0-130.0-0.0,voc_e2,12081,"[{""event"":""fullscreenenter"",""trial"":1,""time"":4447}]",NA,NA,NA,NA,NA,5,#D89F1C,#3386FF,10,10,1,38,1,496.59999999962747,39,0,616.8999999985099,10,0,experiment,NA,NA,2,0.5,0.5,4,5,121,3,NA
fcp-trial,170,1062701,0.0-131.0-0.0,voc_e2,12081,"[{""event"":""fullscreenenter"",""trial"":1,""time"":4447}]",NA,NA,NA,NA,NA,5,#FA92F8,#1CD855,10,0,0,40,0,861.6999999992549,39,0,428.7999999988824,0,1,experiment,NA,NA,1,0.3,0.7,3,2,122,3,NA
fcp-trial,171,1065531,0.0-132.0-0.0,voc_e2,12081,"[{""event"":""fullscreenenter"",""trial"":1,""time"":4447}]",NA,NA,NA,NA,NA,0,#D8271C,#741CD8,0,0,0,40,0,500,37,1,822.7999999988824,0,0,experiment,NA,NA,0,0.1,0.9,1,0,123,3,NA
fcp-trial,172,1068652,0.0-133.0-0.0,voc_e2,12081,"[{""event"":""fullscreenenter"",""trial"":1,""time"":4447}]",NA,NA,NA,NA,NA,3,#3386FF,#D89F1C,0,0,0,40,0,1201.800000000745,39,0,411.2999999988824,0,1,experiment,NA,NA,2,0.5,0.5,5,4,124,3,NA
fcp-trial,173,1071601,0.0-134.0-0.0,voc_e2,12081,"[{""event"":""fullscreenenter"",""trial"":1,""time"":4447}]",NA,NA,NA,NA,NA,4,#1CD855,#FA92F8,10,0,1,40,0,855.5,39,0,583.5999999996275,0,0,experiment,NA,NA,1,0.7,0.3,2,3,125,3,NA
fcp-trial,174,1074570,0.0-135.0-0.0,voc_e2,12081,"[{""event"":""fullscreenenter"",""trial"":1,""time"":4447}]",NA,NA,NA,NA,NA,4,#741CD8,#D8271C,10,0,1,40,0,957.9000000003725,39,0,503.2999999988824,0,0,experiment,NA,NA,0,0.9,0.1,0,1,126,3,NA
fcp-trial,175,1077899,0.0-136.0-0.0,voc_e2,12081,"[{""event"":""fullscreenenter"",""trial"":1,""time"":4447}]",NA,NA,NA,NA,NA,3,#FA92F8,#1CD855,0,10,0,38,1,1485.4000000003725,39,0,333.2000000011176,10,1,experiment,NA,NA,1,0.3,0.7,3,2,127,3,NA
fcp-trial,176,1081299,0.0-137.0-0.0,voc_e2,12081,"[{""event"":""fullscreenenter"",""trial"":1,""time"":4447}]",NA,NA,NA,NA,NA,3,#3386FF,#D89F1C,0,10,0,38,1,1344.2000000011176,37,1,548.5,0,0,experiment,NA,NA,2,0.5,0.5,5,4,128,3,NA
fcp-trial,177,1085734,0.0-138.0-0.0,voc_e2,12081,"[{""event"":""fullscreenenter"",""trial"":1,""time"":4447}]",NA,NA,NA,NA,NA,0,#741CD8,#D8271C,10,0,1,38,1,2374.0999999996275,39,0,553.6000000014901,0,0,experiment,NA,NA,0,0.9,0.1,0,1,129,3,NA
fcp-trial,178,1089024,0.0-139.0-0.0,voc_e2,12081,"[{""event"":""fullscreenenter"",""trial"":1,""time"":4447}]",NA,NA,NA,NA,NA,4,#D89F1C,#3386FF,10,0,1,40,0,1291.2999999988824,39,0,490.5,0,0,experiment,NA,NA,2,0.5,0.5,4,5,130,3,NA
fcp-trial,179,1092366,0.0-140.0-0.0,voc_e2,12081,"[{""event"":""fullscreenenter"",""trial"":1,""time"":4447}]",NA,NA,NA,NA,NA,5,#FA92F8,#1CD855,0,10,0,40,0,1226.5999999996275,37,1,608.6999999992549,0,0,experiment,NA,NA,1,0.3,0.7,3,2,131,3,NA
fcp-trial,180,1095965,0.0-141.0-0.0,voc_e2,12081,"[{""event"":""fullscreenenter"",""trial"":1,""time"":4447}]",NA,NA,NA,NA,NA,1,#3386FF,#D89F1C,0,0,0,38,1,1153.2000000011176,39,0,939.3000000007451,0,1,experiment,NA,NA,2,0.5,0.5,5,4,132,3,NA
fcp-trial,181,1099070,0.0-142.0-0.0,voc_e2,12081,"[{""event"":""fullscreenenter"",""trial"":1,""time"":4447}]",NA,NA,NA,NA,NA,1,#741CD8,#D8271C,0,0,1,38,1,1195.5,37,1,402.19999999925494,0,1,experiment,NA,NA,0,0.9,0.1,0,1,133,3,NA
fcp-trial,182,1103684,0.0-143.0-0.0,voc_e2,12081,"[{""event"":""fullscreenenter"",""trial"":1,""time"":4447}]",NA,NA,NA,NA,NA,5,#D89F1C,#3386FF,0,10,1,40,0,2469.7999999988824,37,1,634.2999999988824,0,1,experiment,NA,NA,2,0.5,0.5,4,5,134,3,NA
fcp-trial,183,1106873,0.0-144.0-0.0,voc_e2,12081,"[{""event"":""fullscreenenter"",""trial"":1,""time"":4447}]",NA,NA,NA,NA,NA,6,#1CD855,#FA92F8,10,0,1,40,0,1062.5999999996275,39,0,619.2000000011176,0,0,experiment,NA,NA,1,0.7,0.3,2,3,135,3,NA
fcp-trial,184,1112103,0.0-145.0-0.0,voc_e2,12081,"[{""event"":""fullscreenenter"",""trial"":1,""time"":4447}]",NA,NA,NA,NA,NA,2,#1CD855,#FA92F8,10,10,1,38,1,1859.2999999988824,39,0,1863.1000000014901,10,0,experiment,NA,NA,1,0.7,0.3,2,3,136,4,NA
fcp-trial,185,1115499,0.0-146.0-0.0,voc_e2,12081,"[{""event"":""fullscreenenter"",""trial"":1,""time"":4447}]",NA,NA,NA,NA,NA,6,#3386FF,#D89F1C,10,10,0,40,0,1359.0999999996275,37,1,528.4000000003725,10,0,experiment,NA,NA,2,0.5,0.5,5,4,137,4,NA
fcp-trial,186,1118500,0.0-147.0-0.0,voc_e2,12081,"[{""event"":""fullscreenenter"",""trial"":1,""time"":4447}]",NA,NA,NA,NA,NA,4,#D8271C,#741CD8,0,10,0,40,0,1051.7000000011176,39,0,442.90000000037253,10,1,experiment,NA,NA,0,0.1,0.9,1,0,138,4,NA
fcp-trial,187,1121079,0.0-148.0-0.0,voc_e2,12081,"[{""event"":""fullscreenenter"",""trial"":1,""time"":4447}]",NA,NA,NA,NA,NA,2,#741CD8,#D8271C,10,10,1,40,0,703.2999999988824,37,1,369.40000000037253,10,1,experiment,NA,NA,0,0.9,0.1,0,1,139,4,NA
fcp-trial,188,1124482,0.0-149.0-0.0,voc_e2,12081,"[{""event"":""fullscreenenter"",""trial"":1,""time"":4447}]",NA,NA,NA,NA,NA,0,#FA92F8,#1CD855,10,10,0,38,1,1413.5999999996275,39,0,482.80000000074506,10,1,experiment,NA,NA,1,0.3,0.7,3,2,140,4,NA
fcp-trial,189,1129184,0.0-150.0-0.0,voc_e2,12081,"[{""event"":""fullscreenenter"",""trial"":1,""time"":4447}]",NA,NA,NA,NA,NA,2,#3386FF,#D89F1C,0,0,0,40,0,2502.2999999988824,39,0,693.2000000011176,0,1,experiment,NA,NA,2,0.5,0.5,5,4,141,4,NA
fcp-trial,190,1131406,0.0-151.0-0.0,voc_e2,12081,"[{""event"":""fullscreenenter"",""trial"":1,""time"":4447}]",NA,NA,NA,NA,NA,1,#FA92F8,#1CD855,0,10,0,38,1,193.40000000037253,37,1,521.5,0,0,experiment,NA,NA,1,0.3,0.7,3,2,142,4,NA
fcp-trial,191,1134134,0.0-152.0-0.0,voc_e2,12081,"[{""event"":""fullscreenenter"",""trial"":1,""time"":4447}]",NA,NA,NA,NA,NA,6,#741CD8,#D8271C,10,0,1,40,0,682.1999999992549,37,1,537,10,1,experiment,NA,NA,0,0.9,0.1,0,1,143,4,NA
fcp-trial,192,1137104,0.0-153.0-0.0,voc_e2,12081,"[{""event"":""fullscreenenter"",""trial"":1,""time"":4447}]",NA,NA,NA,NA,NA,4,#FA92F8,#1CD855,0,10,0,40,0,941.6000000014901,37,1,520.5,0,0,experiment,NA,NA,1,0.3,0.7,3,2,144,4,NA
fcp-trial,193,1140919,0.0-154.0-0.0,voc_e2,12081,"[{""event"":""fullscreenenter"",""trial"":1,""time"":4447}]",NA,NA,NA,NA,NA,0,#3386FF,#D89F1C,0,10,0,38,1,954.5999999996275,37,1,1350.9000000003725,0,0,experiment,NA,NA,2,0.5,0.5,5,4,145,4,NA
fcp-trial,194,1144022,0.0-155.0-0.0,voc_e2,12081,"[{""event"":""fullscreenenter"",""trial"":1,""time"":4447}]",NA,NA,NA,NA,NA,3,#D8271C,#741CD8,0,10,0,40,0,1065.800000000745,37,1,529.5,0,0,experiment,NA,NA,0,0.1,0.9,1,0,146,4,NA
fcp-trial,195,1147214,0.0-156.0-0.0,voc_e2,12081,"[{""event"":""fullscreenenter"",""trial"":1,""time"":4447}]",NA,NA,NA,NA,NA,5,#741CD8,#D8271C,10,0,1,40,0,1004,39,0,680.4000000003725,0,0,experiment,NA,NA,0,0.9,0.1,0,1,147,4,NA
fcp-trial,196,1150801,0.0-157.0-0.0,voc_e2,12081,"[{""event"":""fullscreenenter"",""trial"":1,""time"":4447}]",NA,NA,NA,NA,NA,1,#D89F1C,#3386FF,10,0,1,38,1,1246.2999999988824,37,1,832.7000000011176,10,1,experiment,NA,NA,2,0.5,0.5,4,5,148,4,NA
fcp-trial,197,1154185,0.0-158.0-0.0,voc_e2,12081,"[{""event"":""fullscreenenter"",""trial"":1,""time"":4447}]",NA,NA,NA,NA,NA,3,#1CD855,#FA92F8,10,0,1,40,0,1447.699999999255,39,0,427.5,0,0,experiment,NA,NA,1,0.7,0.3,2,3,149,4,NA
fcp-trial,198,1157249,0.0-159.0-0.0,voc_e2,12081,"[{""event"":""fullscreenenter"",""trial"":1,""time"":4447}]",NA,NA,NA,NA,NA,2,#1CD855,#FA92F8,10,0,1,40,0,955.9000000003725,37,1,599,10,1,experiment,NA,NA,1,0.7,0.3,2,3,150,4,NA
fcp-trial,199,1161372,0.0-160.0-0.0,voc_e2,12081,"[{""event"":""fullscreenenter"",""trial"":1,""time"":4447}]",NA,NA,NA,NA,NA,4,#3386FF,#D89F1C,10,0,0,40,0,2285.800000000745,39,0,330,0,1,experiment,NA,NA,2,0.5,0.5,5,4,151,4,NA
fcp-trial,200,1166430,0.0-161.0-0.0,voc_e2,12081,"[{""event"":""fullscreenenter"",""trial"":1,""time"":4447}]",NA,NA,NA,NA,NA,1,#741CD8,#D8271C,10,0,1,38,1,2260.89999999851,37,1,1289.0999999996275,10,1,experiment,NA,NA,0,0.9,0.1,0,1,152,4,NA
fcp-trial,201,1169531,0.0-162.0-0.0,voc_e2,12081,"[{""event"":""fullscreenenter"",""trial"":1,""time"":4447}]",NA,NA,NA,NA,NA,2,#D8271C,#741CD8,0,10,0,40,0,1157.3999999985099,37,1,437.5,0,0,experiment,NA,NA,0,0.1,0.9,1,0,153,4,NA
fcp-trial,202,1172464,0.0-163.0-0.0,voc_e2,12081,"[{""event"":""fullscreenenter"",""trial"":1,""time"":4447}]",NA,NA,NA,NA,NA,6,#D89F1C,#3386FF,0,0,1,40,0,928.1999999992549,37,1,497.30000000074506,0,1,experiment,NA,NA,2,0.5,0.5,4,5,154,4,NA
fcp-trial,203,1175690,0.0-164.0-0.0,voc_e2,12081,"[{""event"":""fullscreenenter"",""trial"":1,""time"":4447}]",NA,NA,NA,NA,NA,0,#1CD855,#FA92F8,0,10,1,38,1,1037.199999999255,37,1,683.0999999996275,0,1,experiment,NA,NA,1,0.7,0.3,2,3,155,4,NA
fcp-trial,204,1178147,0.0-165.0-0.0,voc_e2,12081,"[{""event"":""fullscreenenter"",""trial"":1,""time"":4447}]",NA,NA,NA,NA,NA,0,#D89F1C,#3386FF,0,10,1,40,0,87.29999999888241,39,0,860.8000000007451,10,0,experiment,NA,NA,2,0.5,0.5,4,5,156,4,NA
fcp-trial,205,1181198,0.0-166.0-0.0,voc_e2,12081,"[{""event"":""fullscreenenter"",""trial"":1,""time"":4447}]",NA,NA,NA,NA,NA,0,#741CD8,#D8271C,10,10,1,38,1,1064.2999999988824,37,1,480,10,1,experiment,NA,NA,0,0.9,0.1,0,1,157,4,NA
fcp-trial,206,1185838,0.0-167.0-0.0,voc_e2,12081,"[{""event"":""fullscreenenter"",""trial"":1,""time"":4447}]",NA,NA,NA,NA,NA,2,#3386FF,#D89F1C,0,10,0,40,0,2560.800000000745,37,1,571.2999999988824,0,0,experiment,NA,NA,2,0.5,0.5,5,4,158,4,NA
fcp-trial,207,1188997,0.0-168.0-0.0,voc_e2,12081,"[{""event"":""fullscreenenter"",""trial"":1,""time"":4447}]",NA,NA,NA,NA,NA,3,#741CD8,#D8271C,10,0,1,40,0,1255.2000000011176,39,0,395.59999999962747,0,0,experiment,NA,NA,0,0.9,0.1,0,1,159,4,NA
fcp-trial,208,1194495,0.0-169.0-0.0,voc_e2,12081,"[{""event"":""fullscreenenter"",""trial"":1,""time"":4447}]",NA,NA,NA,NA,NA,6,#FA92F8,#1CD855,0,0,0,38,1,1426.0999999996275,39,0,2565,0,1,experiment,NA,NA,1,0.3,0.7,3,2,160,4,NA
fcp-trial,209,1197650,0.0-170.0-0.0,voc_e2,12081,"[{""event"":""fullscreenenter"",""trial"":1,""time"":4447}]",NA,NA,NA,NA,NA,5,#3386FF,#D89F1C,10,0,0,40,0,988.2000000011176,39,0,659.7999999988824,0,1,experiment,NA,NA,2,0.5,0.5,5,4,161,4,NA
fcp-trial,210,1200363,0.0-171.0-0.0,voc_e2,12081,"[{""event"":""fullscreenenter"",""trial"":1,""time"":4447}]",NA,NA,NA,NA,NA,5,#FA92F8,#1CD855,10,0,0,40,0,675.3000000007451,37,1,532.8000000007451,10,0,experiment,NA,NA,1,0.3,0.7,3,2,162,4,NA
fcp-trial,211,1203425,0.0-172.0-0.0,voc_e2,12081,"[{""event"":""fullscreenenter"",""trial"":1,""time"":4447}]",NA,NA,NA,NA,NA,4,#D8271C,#741CD8,0,10,0,40,0,1112.199999999255,39,0,438,10,1,experiment,NA,NA,0,0.1,0.9,1,0,163,4,NA
fcp-trial,212,1206243,0.0-173.0-0.0,voc_e2,12081,"[{""event"":""fullscreenenter"",""trial"":1,""time"":4447}]",NA,NA,NA,NA,NA,4,#1CD855,#FA92F8,0,0,1,40,0,840.7000000011176,39,0,470.09999999962747,0,0,experiment,NA,NA,1,0.7,0.3,2,3,164,4,NA
fcp-trial,213,1210006,0.0-174.0-0.0,voc_e2,12081,"[{""event"":""fullscreenenter"",""trial"":1,""time"":4447}]",NA,NA,NA,NA,NA,6,#D8271C,#741CD8,0,10,0,38,1,999.6000000014901,37,1,1256.800000000745,0,0,experiment,NA,NA,0,0.1,0.9,1,0,165,4,NA
fcp-trial,214,1213000,0.0-175.0-0.0,voc_e2,12081,"[{""event"":""fullscreenenter"",""trial"":1,""time"":4447}]",NA,NA,NA,NA,NA,3,#3386FF,#D89F1C,0,0,0,40,0,1038.699999999255,39,0,445.80000000074506,0,1,experiment,NA,NA,2,0.5,0.5,5,4,166,4,NA
fcp-trial,215,1215840,0.0-176.0-0.0,voc_e2,12081,"[{""event"":""fullscreenenter"",""trial"":1,""time"":4447}]",NA,NA,NA,NA,NA,5,#D8271C,#741CD8,0,10,0,40,0,837.8000000007451,39,0,494.19999999925494,10,1,experiment,NA,NA,0,0.1,0.9,1,0,167,4,NA
fcp-trial,216,1219065,0.0-177.0-0.0,voc_e2,12081,"[{""event"":""fullscreenenter"",""trial"":1,""time"":4447}]",NA,NA,NA,NA,NA,1,#1CD855,#FA92F8,0,0,1,38,1,1070.4000000003725,37,1,647.5,0,1,experiment,NA,NA,1,0.7,0.3,2,3,168,4,NA
fcp-trial,217,1223637,0.0-178.0-0.0,voc_e2,12081,"[{""event"":""fullscreenenter"",""trial"":1,""time"":4447}]",NA,NA,NA,NA,NA,0,#FA92F8,#1CD855,10,10,0,38,1,2292,39,0,772.1999999992549,10,1,experiment,NA,NA,1,0.3,0.7,3,2,169,4,NA
fcp-trial,218,1227049,0.0-179.0-0.0,voc_e2,12081,"[{""event"":""fullscreenenter"",""trial"":1,""time"":4447}]",NA,NA,NA,NA,NA,2,#3386FF,#D89F1C,0,0,0,38,1,1457.800000000745,39,0,445.5,0,1,experiment,NA,NA,2,0.5,0.5,5,4,170,4,NA
fcp-trial,219,1230679,0.0-180.0-0.0,voc_e2,12081,"[{""event"":""fullscreenenter"",""trial"":1,""time"":4447}]",NA,NA,NA,NA,NA,4,#FA92F8,#1CD855,0,0,0,40,0,1296.6000000014901,39,0,825.5999999996275,0,1,experiment,NA,NA,1,0.3,0.7,3,2,171,4,NA
fcp-trial,220,1235445,0.0-181.0-0.0,voc_e2,12081,"[{""event"":""fullscreenenter"",""trial"":1,""time"":4447}]",NA,NA,NA,NA,NA,1,#D8271C,#741CD8,0,10,0,40,0,2396.2000000011176,39,0,862.7000000011176,10,1,experiment,NA,NA,0,0.1,0.9,1,0,172,4,NA
fcp-trial,221,1240135,0.0-182.0-0.0,voc_e2,12081,"[{""event"":""fullscreenenter"",""trial"":1,""time"":4447}]",NA,NA,NA,NA,NA,0,#D89F1C,#3386FF,0,0,1,38,1,1850.0999999996275,37,1,1332.1000000014901,0,1,experiment,NA,NA,2,0.5,0.5,4,5,173,4,NA
fcp-trial,222,1244008,0.0-183.0-0.0,voc_e2,12081,"[{""event"":""fullscreenenter"",""trial"":1,""time"":4447}]",NA,NA,NA,NA,NA,6,#D89F1C,#3386FF,10,0,1,40,0,1230,37,1,1134.199999999255,10,1,experiment,NA,NA,2,0.5,0.5,4,5,174,4,NA
fcp-trial,223,1247047,0.0-184.0-0.0,voc_e2,12081,"[{""event"":""fullscreenenter"",""trial"":1,""time"":4447}]",NA,NA,NA,NA,NA,5,#D8271C,#741CD8,0,10,0,40,0,1099.300000000745,39,0,431.09999999962747,10,1,experiment,NA,NA,0,0.1,0.9,1,0,175,4,NA
fcp-trial,224,1249833,0.0-185.0-0.0,voc_e2,12081,"[{""event"":""fullscreenenter"",""trial"":1,""time"":4447}]",NA,NA,NA,NA,NA,3,#1CD855,#FA92F8,0,0,1,40,0,765.5999999996275,37,1,512.2999999988824,0,1,experiment,NA,NA,1,0.7,0.3,2,3,176,4,NA
fcp-trial,225,1252682,0.0-186.0-0.0,voc_e2,12081,"[{""event"":""fullscreenenter"",""trial"":1,""time"":4447}]",NA,NA,NA,NA,NA,3,#D8271C,#741CD8,0,10,0,40,0,509.7999999988824,39,0,831.7999999988824,10,1,experiment,NA,NA,0,0.1,0.9,1,0,177,4,NA
fcp-trial,226,1256499,0.0-187.0-0.0,voc_e2,12081,"[{""event"":""fullscreenenter"",""trial"":1,""time"":4447}]",NA,NA,NA,NA,NA,2,#1CD855,#FA92F8,10,10,1,40,0,1615.7000000011176,39,0,694.2000000011176,10,0,experiment,NA,NA,1,0.7,0.3,2,3,178,4,NA
fcp-trial,227,1259047,0.0-188.0-0.0,voc_e2,12081,"[{""event"":""fullscreenenter"",""trial"":1,""time"":4447}]",NA,NA,NA,NA,NA,3,#D89F1C,#3386FF,10,0,1,40,0,709.5999999996275,39,0,332,0,0,experiment,NA,NA,2,0.5,0.5,4,5,179,4,NA
fcp-trial,228,1262270,0.0-189.0-0.0,voc_e2,12081,"[{""event"":""fullscreenenter"",""trial"":1,""time"":4447}]",NA,NA,NA,NA,NA,5,#1CD855,#FA92F8,10,0,1,40,0,859.5,39,0,856.3000000007451,0,0,experiment,NA,NA,1,0.7,0.3,2,3,180,4,NA
fcp-trial,229,1265181,0.0-190.0-0.0,voc_e2,12081,"[{""event"":""fullscreenenter"",""trial"":1,""time"":4447}]",NA,NA,NA,NA,NA,5,#3386FF,#D89F1C,10,0,0,40,0,810.4000000003725,37,1,592.5,10,0,experiment,NA,NA,2,0.5,0.5,5,4,181,5,NA
fcp-trial,230,1269282,0.0-191.0-0.0,voc_e2,12081,"[{""event"":""fullscreenenter"",""trial"":1,""time"":4447}]",NA,NA,NA,NA,NA,2,#D8271C,#741CD8,0,10,0,38,1,1491,39,0,1099.7999999988824,10,1,experiment,NA,NA,0,0.1,0.9,1,0,182,5,NA
fcp-trial,231,1272714,0.0-192.0-0.0,voc_e2,12081,"[{""event"":""fullscreenenter"",""trial"":1,""time"":4447}]",NA,NA,NA,NA,NA,1,#D89F1C,#3386FF,10,0,1,38,1,902.1999999992549,37,1,1022.5,10,1,experiment,NA,NA,2,0.5,0.5,4,5,183,5,NA
fcp-trial,232,1276332,0.0-193.0-0.0,voc_e2,12081,"[{""event"":""fullscreenenter"",""trial"":1,""time"":4447}]",NA,NA,NA,NA,NA,4,#741CD8,#D8271C,10,0,1,40,0,1583.199999999255,37,1,527.4000000003725,10,1,experiment,NA,NA,0,0.9,0.1,0,1,184,5,NA
fcp-trial,233,1278949,0.0-194.0-0.0,voc_e2,12081,"[{""event"":""fullscreenenter"",""trial"":1,""time"":4447}]",NA,NA,NA,NA,NA,6,#1CD855,#FA92F8,0,0,1,40,0,619.9000000003725,39,0,488.90000000037253,0,0,experiment,NA,NA,1,0.7,0.3,2,3,185,5,NA
fcp-trial,234,1281906,0.0-195.0-0.0,voc_e2,12081,"[{""event"":""fullscreenenter"",""trial"":1,""time"":4447}]",NA,NA,NA,NA,NA,6,#D8271C,#741CD8,0,10,0,40,0,1060,37,1,390.7000000011176,0,0,experiment,NA,NA,0,0.1,0.9,1,0,186,5,NA
fcp-trial,235,1285632,0.0-196.0-0.0,voc_e2,12081,"[{""event"":""fullscreenenter"",""trial"":1,""time"":4447}]",NA,NA,NA,NA,NA,4,#3386FF,#D89F1C,10,10,0,40,0,1393,37,1,824.6999999992549,10,0,experiment,NA,NA,2,0.5,0.5,5,4,187,5,NA
fcp-trial,236,1289501,0.0-197.0-0.0,voc_e2,12081,"[{""event"":""fullscreenenter"",""trial"":1,""time"":4447}]",NA,NA,NA,NA,NA,0,#D8271C,#741CD8,0,0,0,38,1,1357.9000000003725,39,0,1003.6999999992549,0,1,experiment,NA,NA,0,0.1,0.9,1,0,188,5,NA
fcp-trial,237,1294627,0.0-198.0-0.0,voc_e2,12081,"[{""event"":""fullscreenenter"",""trial"":1,""time"":4447}]",NA,NA,NA,NA,NA,1,#FA92F8,#1CD855,0,0,0,38,1,2041,37,1,1578.2999999988824,0,0,experiment,NA,NA,1,0.3,0.7,3,2,189,5,NA
fcp-trial,238,1297716,0.0-199.0-0.0,voc_e2,12081,"[{""event"":""fullscreenenter"",""trial"":1,""time"":4447}]",NA,NA,NA,NA,NA,6,#D8271C,#741CD8,0,10,0,40,0,1050.5,39,0,531.6999999992549,10,1,experiment,NA,NA,0,0.1,0.9,1,0,190,5,NA
fcp-trial,239,1300949,0.0-200.0-0.0,voc_e2,12081,"[{""event"":""fullscreenenter"",""trial"":1,""time"":4447}]",NA,NA,NA,NA,NA,1,#D89F1C,#3386FF,0,10,1,38,1,1122.7999999988824,39,0,601.5,10,0,experiment,NA,NA,2,0.5,0.5,4,5,191,5,NA
fcp-trial,240,1303870,0.0-201.0-0.0,voc_e2,12081,"[{""event"":""fullscreenenter"",""trial"":1,""time"":4447}]",NA,NA,NA,NA,NA,5,#D89F1C,#3386FF,10,10,1,40,0,959,37,1,453.5,10,1,experiment,NA,NA,2,0.5,0.5,4,5,192,5,NA
fcp-trial,241,1309298,0.0-202.0-0.0,voc_e2,12081,"[{""event"":""fullscreenenter"",""trial"":1,""time"":4447}]",NA,NA,NA,NA,NA,3,#D8271C,#741CD8,0,10,0,40,0,3284.300000000745,39,0,635,10,1,experiment,NA,NA,0,0.1,0.9,1,0,193,5,NA
fcp-trial,242,1312364,0.0-203.0-0.0,voc_e2,12081,"[{""event"":""fullscreenenter"",""trial"":1,""time"":4447}]",NA,NA,NA,NA,NA,1,#1CD855,#FA92F8,10,0,1,38,1,986.5999999996275,37,1,570.8000000007451,10,1,experiment,NA,NA,1,0.7,0.3,2,3,194,5,NA
fcp-trial,243,1315065,0.0-204.0-0.0,voc_e2,12081,"[{""event"":""fullscreenenter"",""trial"":1,""time"":4447}]",NA,NA,NA,NA,NA,5,#FA92F8,#1CD855,0,0,0,40,0,844.4000000003725,39,0,348.40000000037253,0,1,experiment,NA,NA,1,0.3,0.7,3,2,195,5,NA
fcp-trial,244,1317699,0.0-205.0-0.0,voc_e2,12081,"[{""event"":""fullscreenenter"",""trial"":1,""time"":4447}]",NA,NA,NA,NA,NA,0,#3386FF,#D89F1C,0,0,0,38,1,840.4000000003725,37,1,285.40000000037253,0,0,experiment,NA,NA,2,0.5,0.5,5,4,196,5,NA
fcp-trial,245,1320347,0.0-206.0-0.0,voc_e2,12081,"[{""event"":""fullscreenenter"",""trial"":1,""time"":4447}]",NA,NA,NA,NA,NA,0,#D8271C,#741CD8,0,10,0,38,1,849.0999999996275,39,0,289.2999999988824,10,1,experiment,NA,NA,0,0.1,0.9,1,0,197,5,NA
fcp-trial,246,1324116,0.0-207.0-0.0,voc_e2,12081,"[{""event"":""fullscreenenter"",""trial"":1,""time"":4447}]",NA,NA,NA,NA,NA,4,#D8271C,#741CD8,0,0,0,40,0,1839.300000000745,37,1,423,0,0,experiment,NA,NA,0,0.1,0.9,1,0,198,5,NA
fcp-trial,247,1339119,0.0-208.0-0.0,voc_e2,12081,"[{""event"":""fullscreenenter"",""trial"":1,""time"":4447}]",NA,NA,NA,NA,NA,4,#FA92F8,#1CD855,10,10,0,null,null,null,null,null,null,NA,0,experiment,NA,NA,1,0.3,0.7,3,2,199,5,NA
fcp-trial,248,1351130,0.0-209.0-0.0,voc_e2,12081,"[{""event"":""fullscreenenter"",""trial"":1,""time"":4447}]",NA,NA,NA,NA,NA,0,#FA92F8,#1CD855,0,10,0,38,1,9351.599999999627,39,0,1148.6000000014901,10,1,experiment,NA,NA,1,0.3,0.7,3,2,200,5,NA
fcp-trial,249,1354207,0.0-210.0-0.0,voc_e2,12081,"[{""event"":""fullscreenenter"",""trial"":1,""time"":4447}]",NA,NA,NA,NA,NA,3,#3386FF,#D89F1C,0,10,0,40,0,1042.4000000003725,37,1,526.5,0,0,experiment,NA,NA,2,0.5,0.5,5,4,201,5,NA
fcp-trial,250,1357124,0.0-211.0-0.0,voc_e2,12081,"[{""event"":""fullscreenenter"",""trial"":1,""time"":4447}]",NA,NA,NA,NA,NA,3,#1CD855,#FA92F8,10,0,1,40,0,1012.2999999988824,39,0,396.59999999962747,0,0,experiment,NA,NA,1,0.7,0.3,2,3,202,5,NA
fcp-trial,251,1360236,0.0-212.0-0.0,voc_e2,12081,"[{""event"":""fullscreenenter"",""trial"":1,""time"":4447}]",NA,NA,NA,NA,NA,5,#D8271C,#741CD8,0,10,0,40,0,1107.7000000011176,37,1,498.8999999985099,0,0,experiment,NA,NA,0,0.1,0.9,1,0,203,5,NA
fcp-trial,252,1362794,0.0-213.0-0.0,voc_e2,12081,"[{""event"":""fullscreenenter"",""trial"":1,""time"":4447}]",NA,NA,NA,NA,NA,6,#3386FF,#D89F1C,0,0,0,40,0,682.0999999996275,39,0,370,0,1,experiment,NA,NA,2,0.5,0.5,5,4,204,5,NA
fcp-trial,253,1366799,0.0-214.0-0.0,voc_e2,12081,"[{""event"":""fullscreenenter"",""trial"":1,""time"":4447}]",NA,NA,NA,NA,NA,2,#1CD855,#FA92F8,10,0,1,38,1,1717.800000000745,37,1,781.4000000003725,10,1,experiment,NA,NA,1,0.7,0.3,2,3,205,5,NA
fcp-trial,254,1369325,0.0-215.0-0.0,voc_e2,12081,"[{""event"":""fullscreenenter"",""trial"":1,""time"":4447}]",NA,NA,NA,NA,NA,4,#3386FF,#D89F1C,0,0,0,40,0,566,39,0,453.09999999962747,0,1,experiment,NA,NA,2,0.5,0.5,5,4,206,5,NA
fcp-trial,255,1373210,0.0-216.0-0.0,voc_e2,12081,"[{""event"":""fullscreenenter"",""trial"":1,""time"":4447}]",NA,NA,NA,NA,NA,2,#741CD8,#D8271C,10,0,1,38,1,1115.5999999996275,37,1,1261.5,10,1,experiment,NA,NA,0,0.9,0.1,0,1,207,5,NA
fcp-trial,256,1376918,0.0-217.0-0.0,voc_e2,12081,"[{""event"":""fullscreenenter"",""trial"":1,""time"":4447}]",NA,NA,NA,NA,NA,2,#D89F1C,#3386FF,10,0,1,38,1,1803.5,39,0,397.7000000011176,0,0,experiment,NA,NA,2,0.5,0.5,4,5,208,5,NA
fcp-trial,257,1381772,0.0-218.0-0.0,voc_e2,12081,"[{""event"":""fullscreenenter"",""trial"":1,""time"":4447}]",NA,NA,NA,NA,NA,6,#FA92F8,#1CD855,10,10,0,40,0,2729.4000000003725,37,1,617.2999999988824,10,0,experiment,NA,NA,1,0.3,0.7,3,2,209,5,NA
fcp-trial,258,1386056,0.0-219.0-0.0,voc_e2,12081,"[{""event"":""fullscreenenter"",""trial"":1,""time"":4447}]",NA,NA,NA,NA,NA,1,#D8271C,#741CD8,0,10,0,38,1,848.1999999992549,39,0,1929.800000000745,10,1,experiment,NA,NA,0,0.1,0.9,1,0,210,5,NA
audio-instructions,259,1390996,0.0-220.0,voc_e2,12081,"[{""event"":""fullscreenenter"",""trial"":1,""time"":4447}]",NA,440.5,static/audio/pause.wav,NA,0,NA,NA,NA,NA,NA,NA,NA,NA,NA,NA,NA,NA,NA,NA,NA,NA,NA,NA,NA,NA,NA,NA,NA,NA,NA
fcp-trial,260,1394524,0.0-221.0-0.0,voc_e2,12081,"[{""event"":""fullscreenenter"",""trial"":1,""time"":4447}]",NA,NA,NA,NA,NA,2,#D8271C,#741CD8,0,10,0,38,1,1367.7000000011176,37,1,652.1999999992549,0,0,experiment,NA,NA,0,0.1,0.9,1,0,211,5,NA
fcp-trial,261,1397115,0.0-222.0-0.0,voc_e2,12081,"[{""event"":""fullscreenenter"",""trial"":1,""time"":4447}]",NA,NA,NA,NA,NA,3,#FA92F8,#1CD855,0,10,0,40,0,704.0999999996275,39,0,379.09999999962747,10,1,experiment,NA,NA,1,0.3,0.7,3,2,212,5,NA
fcp-trial,262,1399653,0.0-223.0-0.0,voc_e2,12081,"[{""event"":""fullscreenenter"",""trial"":1,""time"":4447}]",NA,NA,NA,NA,NA,5,#D8271C,#741CD8,0,10,0,40,0,577.9000000003725,37,1,452.1000000014901,0,0,experiment,NA,NA,0,0.1,0.9,1,0,213,5,NA
fcp-trial,263,1402177,0.0-224.0-0.0,voc_e2,12081,"[{""event"":""fullscreenenter"",""trial"":1,""time"":4447}]",NA,NA,NA,NA,NA,0,#D89F1C,#3386FF,0,10,1,40,0,524.2000000011176,39,0,491.2999999988824,10,0,experiment,NA,NA,2,0.5,0.5,4,5,214,5,NA
fcp-trial,264,1405610,0.0-225.0-0.0,voc_e2,12081,"[{""event"":""fullscreenenter"",""trial"":1,""time"":4447}]",NA,NA,NA,NA,NA,6,#3386FF,#D89F1C,0,10,0,40,0,1319,39,0,606.8000000007451,10,1,experiment,NA,NA,2,0.5,0.5,5,4,215,5,NA
fcp-trial,265,1408412,0.0-226.0-0.0,voc_e2,12081,"[{""event"":""fullscreenenter"",""trial"":1,""time"":4447}]",NA,NA,NA,NA,NA,0,#D8271C,#741CD8,0,10,0,38,1,811.5,37,1,483.90000000037253,0,0,experiment,NA,NA,0,0.1,0.9,1,0,216,5,NA
fcp-trial,266,1411317,0.0-227.0-0.0,voc_e2,12081,"[{""event"":""fullscreenenter"",""trial"":1,""time"":4447}]",NA,NA,NA,NA,NA,4,#1CD855,#FA92F8,0,0,1,40,0,688.6999999992549,37,1,710.2000000011176,0,1,experiment,NA,NA,1,0.7,0.3,2,3,217,5,NA
fcp-trial,267,1414015,0.0-228.0-0.0,voc_e2,12081,"[{""event"":""fullscreenenter"",""trial"":1,""time"":4447}]",NA,NA,NA,NA,NA,0,#FA92F8,#1CD855,0,0,0,38,1,865.6999999992549,39,0,324.1000000014901,0,1,experiment,NA,NA,1,0.3,0.7,3,2,218,5,NA
fcp-trial,268,1416538,0.0-229.0-0.0,voc_e2,12081,"[{""event"":""fullscreenenter"",""trial"":1,""time"":4447}]",NA,NA,NA,NA,NA,4,#3386FF,#D89F1C,0,10,0,40,0,608,37,1,407.90000000037253,0,0,experiment,NA,NA,2,0.5,0.5,5,4,219,5,NA
fcp-trial,269,1420284,0.0-230.0-0.0,voc_e2,12081,"[{""event"":""fullscreenenter"",""trial"":1,""time"":4447}]",NA,NA,NA,NA,NA,1,#741CD8,#D8271C,10,0,1,38,1,1904.9000000003725,39,0,334.2000000011176,0,0,experiment,NA,NA,0,0.9,0.1,0,1,220,5,NA
fcp-trial,270,1423315,0.0-231.0-0.0,voc_e2,12081,"[{""event"":""fullscreenenter"",""trial"":1,""time"":4447}]",NA,NA,NA,NA,NA,6,#D8271C,#741CD8,10,10,0,40,0,1014.6999999992549,39,0,506.7999999988824,10,1,experiment,NA,NA,0,0.1,0.9,1,0,221,5,NA
fcp-trial,271,1427899,0.0-232.0-0.0,voc_e2,12081,"[{""event"":""fullscreenenter"",""trial"":1,""time"":4447}]",NA,NA,NA,NA,NA,3,#D89F1C,#3386FF,0,0,1,40,0,1293.5,39,0,1782.699999999255,0,0,experiment,NA,NA,2,0.5,0.5,4,5,222,5,NA
fcp-trial,272,1444393,0.0-233.0-0.0,voc_e2,12081,"[{""event"":""fullscreenenter"",""trial"":1,""time"":4447}]",NA,NA,NA,NA,NA,1,#FA92F8,#1CD855,0,10,0,38,1,1234.5,null,null,null,NA,0,experiment,NA,NA,1,0.3,0.7,3,2,223,5,NA
fcp-trial,273,1449083,0.0-234.0-0.0,voc_e2,12081,"[{""event"":""fullscreenenter"",""trial"":1,""time"":4447}]",NA,NA,NA,NA,NA,6,#1CD855,#FA92F8,0,0,1,40,0,1158.5,39,0,2021.800000000745,0,0,experiment,NA,NA,1,0.7,0.3,2,3,224,5,NA
fcp-trial,274,1452060,0.0-235.0-0.0,voc_e2,12081,"[{""event"":""fullscreenenter"",""trial"":1,""time"":4447}]",NA,NA,NA,NA,NA,3,#741CD8,#D8271C,10,0,1,38,1,1044.4000000003725,37,1,423.7000000011176,10,1,experiment,NA,NA,0,0.9,0.1,0,1,225,5,NA
fcp-trial,275,1454910,0.0-236.0-0.0,voc_e2,12081,"[{""event"":""fullscreenenter"",""trial"":1,""time"":4447}]",NA,NA,NA,NA,NA,5,#FA92F8,#1CD855,10,10,0,40,0,623.8999999985099,39,0,718.8000000007451,10,1,experiment,NA,NA,1,0.3,0.7,3,2,226,6,NA
fcp-trial,276,1457916,0.0-237.0-0.0,voc_e2,12081,"[{""event"":""fullscreenenter"",""trial"":1,""time"":4447}]",NA,NA,NA,NA,NA,1,#3386FF,#D89F1C,0,0,0,38,1,733.5,37,1,764.3000000007451,0,0,experiment,NA,NA,2,0.5,0.5,5,4,227,6,NA
fcp-trial,277,1461163,0.0-238.0-0.0,voc_e2,12081,"[{""event"":""fullscreenenter"",""trial"":1,""time"":4447}]",NA,NA,NA,NA,NA,2,#D89F1C,#3386FF,0,0,1,40,0,1150.5999999996275,37,1,585.5999999996275,0,1,experiment,NA,NA,2,0.5,0.5,4,5,228,6,NA
fcp-trial,278,1464063,0.0-239.0-0.0,voc_e2,12081,"[{""event"":""fullscreenenter"",""trial"":1,""time"":4447}]",NA,NA,NA,NA,NA,4,#741CD8,#D8271C,10,0,1,40,0,884.5999999996275,39,0,507,0,0,experiment,NA,NA,0,0.9,0.1,0,1,229,6,NA
fcp-trial,279,1467951,0.0-240.0-0.0,voc_e2,12081,"[{""event"":""fullscreenenter"",""trial"":1,""time"":4447}]",NA,NA,NA,NA,NA,2,#FA92F8,#1CD855,10,0,0,38,1,1336.699999999255,37,1,1045.5999999996275,10,0,experiment,NA,NA,1,0.3,0.7,3,2,230,6,NA
fcp-trial,280,1471011,0.0-241.0-0.0,voc_e2,12081,"[{""event"":""fullscreenenter"",""trial"":1,""time"":4447}]",NA,NA,NA,NA,NA,5,#D89F1C,#3386FF,0,0,1,40,0,1064,39,0,488.19999999925494,0,0,experiment,NA,NA,2,0.5,0.5,4,5,231,6,NA
fcp-trial,281,1475659,0.0-242.0-0.0,voc_e2,12081,"[{""event"":""fullscreenenter"",""trial"":1,""time"":4447}]",NA,NA,NA,NA,NA,3,#D89F1C,#3386FF,0,0,1,38,1,956.9000000003725,39,0,2182.2000000011176,0,0,experiment,NA,NA,2,0.5,0.5,4,5,232,6,NA
fcp-trial,282,1479392,0.0-243.0-0.0,voc_e2,12081,"[{""event"":""fullscreenenter"",""trial"":1,""time"":4447}]",NA,NA,NA,NA,NA,6,#741CD8,#D8271C,0,0,1,40,0,1692.800000000745,39,0,532.8000000007451,0,0,experiment,NA,NA,0,0.9,0.1,0,1,233,6,NA
fcp-trial,283,1482993,0.0-244.0-0.0,voc_e2,12081,"[{""event"":""fullscreenenter"",""trial"":1,""time"":4447}]",NA,NA,NA,NA,NA,0,#1CD855,#FA92F8,10,0,1,38,1,1123.300000000745,39,0,969,0,0,experiment,NA,NA,1,0.7,0.3,2,3,234,6,NA
fcp-trial,284,1486426,0.0-245.0-0.0,voc_e2,12081,"[{""event"":""fullscreenenter"",""trial"":1,""time"":4447}]",NA,NA,NA,NA,NA,6,#D89F1C,#3386FF,0,0,1,40,0,1409.7999999988824,37,1,514.8000000007451,0,1,experiment,NA,NA,2,0.5,0.5,4,5,235,6,NA
fcp-trial,285,1491342,0.0-246.0-0.0,voc_e2,12081,"[{""event"":""fullscreenenter"",""trial"":1,""time"":4447}]",NA,NA,NA,NA,NA,3,#D8271C,#741CD8,0,10,0,40,0,2357.2999999988824,37,1,1050.9000000003725,0,0,experiment,NA,NA,0,0.1,0.9,1,0,236,6,NA
fcp-trial,286,1494944,0.0-247.0-0.0,voc_e2,12081,"[{""event"":""fullscreenenter"",""trial"":1,""time"":4447}]",NA,NA,NA,NA,NA,4,#FA92F8,#1CD855,10,0,0,40,0,1748.0999999996275,39,0,345.2000000011176,0,1,experiment,NA,NA,1,0.3,0.7,3,2,237,6,NA
fcp-trial,287,1498457,0.0-248.0-0.0,voc_e2,12081,"[{""event"":""fullscreenenter"",""trial"":1,""time"":4447}]",NA,NA,NA,NA,NA,2,#D8271C,#741CD8,0,10,0,38,1,1374.699999999255,37,1,630.3000000007451,0,0,experiment,NA,NA,0,0.1,0.9,1,0,238,6,NA
fcp-trial,288,1501436,0.0-249.0-0.0,voc_e2,12081,"[{""event"":""fullscreenenter"",""trial"":1,""time"":4447}]",NA,NA,NA,NA,NA,3,#1CD855,#FA92F8,0,0,1,40,0,793.0999999996275,37,1,679.2999999988824,0,1,experiment,NA,NA,1,0.7,0.3,2,3,239,6,NA
fcp-trial,289,1504363,0.0-250.0-0.0,voc_e2,12081,"[{""event"":""fullscreenenter"",""trial"":1,""time"":4447}]",NA,NA,NA,NA,NA,4,#D89F1C,#3386FF,0,0,1,40,0,833.6999999992549,37,1,585.2000000011176,0,1,experiment,NA,NA,2,0.5,0.5,4,5,240,6,NA
fcp-trial,290,1507679,0.0-251.0-0.0,voc_e2,12081,"[{""event"":""fullscreenenter"",""trial"":1,""time"":4447}]",NA,NA,NA,NA,NA,1,#3386FF,#D89F1C,0,10,0,38,1,1387.7000000011176,39,0,419.5,10,1,experiment,NA,NA,2,0.5,0.5,5,4,241,6,NA
fcp-trial,291,1512144,0.0-252.0-0.0,voc_e2,12081,"[{""event"":""fullscreenenter"",""trial"":1,""time"":4447}]",NA,NA,NA,NA,NA,5,#741CD8,#D8271C,10,0,1,40,0,2300.5,39,0,655.8000000007451,0,0,experiment,NA,NA,0,0.9,0.1,0,1,242,6,NA
fcp-trial,292,1527150,0.0-253.0-0.0,voc_e2,12081,"[{""event"":""fullscreenenter"",""trial"":1,""time"":4447}]",NA,NA,NA,NA,NA,6,#FA92F8,#1CD855,10,0,0,null,null,null,null,null,null,NA,0,experiment,NA,NA,1,0.3,0.7,3,2,243,6,NA
fcp-trial,293,1536797,0.0-254.0-0.0,voc_e2,12081,"[{""event"":""fullscreenenter"",""trial"":1,""time"":4447}]",NA,NA,NA,NA,NA,0,#D8271C,#741CD8,0,10,0,38,1,7075.39999999851,37,1,1062.0999999996275,0,0,experiment,NA,NA,0,0.1,0.9,1,0,244,6,NA
fcp-trial,294,1539734,0.0-255.0-0.0,voc_e2,12081,"[{""event"":""fullscreenenter"",""trial"":1,""time"":4447}]",NA,NA,NA,NA,NA,0,#3386FF,#D89F1C,10,10,0,38,1,1091.800000000745,39,0,337.7999999988824,10,1,experiment,NA,NA,2,0.5,0.5,5,4,245,6,NA
fcp-trial,295,1542702,0.0-256.0-0.0,voc_e2,12081,"[{""event"":""fullscreenenter"",""trial"":1,""time"":4447}]",NA,NA,NA,NA,NA,1,#D8271C,#741CD8,0,10,0,38,1,806.7000000011176,37,1,651.5,0,0,experiment,NA,NA,0,0.1,0.9,1,0,246,6,NA
fcp-trial,296,1544959,0.0-257.0-0.0,voc_e2,12081,"[{""event"":""fullscreenenter"",""trial"":1,""time"":4447}]",NA,NA,NA,NA,NA,2,#D89F1C,#3386FF,0,0,1,38,1,159,39,0,589.8000000007451,0,0,experiment,NA,NA,2,0.5,0.5,4,5,247,6,NA
fcp-trial,297,1547603,0.0-258.0-0.0,voc_e2,12081,"[{""event"":""fullscreenenter"",""trial"":1,""time"":4447}]",NA,NA,NA,NA,NA,1,#1CD855,#FA92F8,10,10,1,40,0,131.80000000074506,37,1,1004.0999999996275,10,1,experiment,NA,NA,1,0.7,0.3,2,3,248,6,NA
fcp-trial,298,1550250,0.0-259.0-0.0,voc_e2,12081,"[{""event"":""fullscreenenter"",""trial"":1,""time"":4447}]",NA,NA,NA,NA,NA,4,#D8271C,#741CD8,0,10,0,40,0,804.0999999996275,39,0,333.80000000074506,10,1,experiment,NA,NA,0,0.1,0.9,1,0,249,6,NA
fcp-trial,299,1553455,0.0-260.0-0.0,voc_e2,12081,"[{""event"":""fullscreenenter"",""trial"":1,""time"":4447}]",NA,NA,NA,NA,NA,5,#1CD855,#FA92F8,10,10,1,38,1,637.8000000007451,37,1,1059.2000000011176,10,1,experiment,NA,NA,1,0.7,0.3,2,3,250,6,NA
fcp-trial,300,1556123,0.0-261.0-0.0,voc_e2,12081,"[{""event"":""fullscreenenter"",""trial"":1,""time"":4447}]",NA,NA,NA,NA,NA,2,#FA92F8,#1CD855,10,10,0,40,0,543.9000000003725,37,1,616.1999999992549,10,0,experiment,NA,NA,1,0.3,0.7,3,2,251,6,NA
fcp-trial,301,1558631,0.0-262.0-0.0,voc_e2,12081,"[{""event"":""fullscreenenter"",""trial"":1,""time"":4447}]",NA,NA,NA,NA,NA,5,#3386FF,#D89F1C,0,0,0,40,0,734.6999999992549,39,0,264.19999999925494,0,1,experiment,NA,NA,2,0.5,0.5,5,4,252,6,NA
fcp-trial,302,1561200,0.0-263.0-0.0,voc_e2,12081,"[{""event"":""fullscreenenter"",""trial"":1,""time"":4447}]",NA,NA,NA,NA,NA,6,#D89F1C,#3386FF,0,10,1,40,0,655.5999999996275,37,1,405.09999999962747,0,1,experiment,NA,NA,2,0.5,0.5,4,5,253,6,NA
fcp-trial,303,1563543,0.0-264.0-0.0,voc_e2,12081,"[{""event"":""fullscreenenter"",""trial"":1,""time"":4447}]",NA,NA,NA,NA,NA,4,#1CD855,#FA92F8,10,0,1,40,0,492.90000000037253,39,0,340.7000000011176,0,0,experiment,NA,NA,1,0.7,0.3,2,3,254,6,NA
fcp-trial,304,1566158,0.0-265.0-0.0,voc_e2,12081,"[{""event"":""fullscreenenter"",""trial"":1,""time"":4447}]",NA,NA,NA,NA,NA,6,#D8271C,#741CD8,0,10,0,40,0,751.1000000014901,37,1,354.90000000037253,0,0,experiment,NA,NA,0,0.1,0.9,1,0,255,6,NA
fcp-trial,305,1571674,0.0-266.0-0.0,voc_e2,12081,"[{""event"":""fullscreenenter"",""trial"":1,""time"":4447}]",NA,NA,NA,NA,NA,0,#3386FF,#D89F1C,0,10,0,38,1,3125.60000000149,39,0,883.1999999992549,10,1,experiment,NA,NA,2,0.5,0.5,5,4,256,6,NA
fcp-trial,306,1574743,0.0-267.0-0.0,voc_e2,12081,"[{""event"":""fullscreenenter"",""trial"":1,""time"":4447}]",NA,NA,NA,NA,NA,0,#D8271C,#741CD8,0,10,0,38,1,1248,37,1,312,0,0,experiment,NA,NA,0,0.1,0.9,1,0,257,6,NA
fcp-trial,307,1584476,0.0-268.0-0.0,voc_e2,12081,"[{""event"":""fullscreenenter"",""trial"":1,""time"":4447}]",NA,NA,NA,NA,NA,3,#FA92F8,#1CD855,10,0,0,40,0,7921.9000000003725,39,0,303,0,1,experiment,NA,NA,1,0.3,0.7,3,2,258,6,NA
fcp-trial,308,1587999,0.0-269.0-0.0,voc_e2,12081,"[{""event"":""fullscreenenter"",""trial"":1,""time"":4447}]",NA,NA,NA,NA,NA,2,#741CD8,#D8271C,10,0,1,40,0,807.5,39,0,1207.4000000003725,0,0,experiment,NA,NA,0,0.9,0.1,0,1,259,6,NA
fcp-trial,309,1590664,0.0-270.0-0.0,voc_e2,12081,"[{""event"":""fullscreenenter"",""trial"":1,""time"":4447}]",NA,NA,NA,NA,NA,2,#FA92F8,#1CD855,10,0,0,38,1,735.6999999992549,37,1,421.19999999925494,10,0,experiment,NA,NA,1,0.3,0.7,3,2,260,6,NA
fcp-trial,310,1593747,0.0-271.0-0.0,voc_e2,12081,"[{""event"":""fullscreenenter"",""trial"":1,""time"":4447}]",NA,NA,NA,NA,NA,3,#3386FF,#D89F1C,0,0,0,38,1,1003.2999999988824,39,0,569.8999999985099,0,1,experiment,NA,NA,2,0.5,0.5,5,4,261,6,NA
fcp-trial,311,1597202,0.0-272.0-0.0,voc_e2,12081,"[{""event"":""fullscreenenter"",""trial"":1,""time"":4447}]",NA,NA,NA,NA,NA,2,#3386FF,#D89F1C,10,0,0,38,1,1133.7000000011176,37,1,813.8000000007451,10,0,experiment,NA,NA,2,0.5,0.5,5,4,262,6,NA
fcp-trial,312,1601158,0.0-273.0-0.0,voc_e2,12081,"[{""event"":""fullscreenenter"",""trial"":1,""time"":4447}]",NA,NA,NA,NA,NA,5,#1CD855,#FA92F8,10,0,1,40,0,1878.4000000003725,39,0,571.3999999985099,0,0,experiment,NA,NA,1,0.7,0.3,2,3,263,6,NA
fcp-trial,313,1608522,0.0-274.0-0.0,voc_e2,12081,"[{""event"":""fullscreenenter"",""trial"":1,""time"":4447}]",NA,NA,NA,NA,NA,4,#741CD8,#D8271C,10,0,1,40,0,4647.300000000745,37,1,1207,10,1,experiment,NA,NA,0,0.9,0.1,0,1,264,6,NA
fcp-trial,314,1611902,0.0-275.0-0.0,voc_e2,12081,"[{""event"":""fullscreenenter"",""trial"":1,""time"":4447}]",NA,NA,NA,NA,NA,5,#741CD8,#D8271C,10,0,1,40,0,1378.2999999988824,39,0,494.2000000011176,0,0,experiment,NA,NA,0,0.9,0.1,0,1,265,6,NA
fcp-trial,315,1615414,0.0-276.0-0.0,voc_e2,12081,"[{""event"":""fullscreenenter"",""trial"":1,""time"":4447}]",NA,NA,NA,NA,NA,6,#FA92F8,#1CD855,10,10,0,40,0,1393.8999999985099,37,1,609.6999999992549,10,0,experiment,NA,NA,1,0.3,0.7,3,2,266,6,NA
fcp-trial,316,1618446,0.0-277.0-0.0,voc_e2,12081,"[{""event"":""fullscreenenter"",""trial"":1,""time"":4447}]",NA,NA,NA,NA,NA,5,#D89F1C,#3386FF,0,10,1,40,0,1115.699999999255,37,1,406.7000000011176,0,1,experiment,NA,NA,2,0.5,0.5,4,5,267,6,NA
fcp-trial,317,1621316,0.0-278.0-0.0,voc_e2,12081,"[{""event"":""fullscreenenter"",""trial"":1,""time"":4447}]",NA,NA,NA,NA,NA,4,#D89F1C,#3386FF,0,0,1,40,0,832.1000000014901,37,1,530.0999999996275,0,1,experiment,NA,NA,2,0.5,0.5,4,5,268,6,NA
fcp-trial,318,1624508,0.0-279.0-0.0,voc_e2,12081,"[{""event"":""fullscreenenter"",""trial"":1,""time"":4447}]",NA,NA,NA,NA,NA,1,#D89F1C,#3386FF,0,0,1,40,0,1087,37,1,595.3000000007451,0,1,experiment,NA,NA,2,0.5,0.5,4,5,269,6,NA
fcp-trial,319,1627349,0.0-280.0-0.0,voc_e2,12081,"[{""event"":""fullscreenenter"",""trial"":1,""time"":4447}]",NA,NA,NA,NA,NA,1,#741CD8,#D8271C,10,0,1,38,1,718.0999999996275,39,0,615.1000000014901,0,0,experiment,NA,NA,0,0.9,0.1,0,1,270,6,NA
fcp-trial,320,1630984,0.0-281.0-0.0,voc_e2,12081,"[{""event"":""fullscreenenter"",""trial"":1,""time"":4447}]",NA,NA,NA,NA,NA,1,#1CD855,#FA92F8,10,0,1,38,1,1577.0999999996275,39,0,549.0999999996275,0,0,experiment,NA,NA,1,0.7,0.3,2,3,271,7,NA
fcp-trial,321,1634083,0.0-282.0-0.0,voc_e2,12081,"[{""event"":""fullscreenenter"",""trial"":1,""time"":4447}]",NA,NA,NA,NA,NA,3,#D8271C,#741CD8,0,10,0,40,0,859.2000000011176,39,0,729.7000000011176,10,1,experiment,NA,NA,0,0.1,0.9,1,0,272,7,NA
fcp-trial,322,1638985,0.0-283.0-0.0,voc_e2,12081,"[{""event"":""fullscreenenter"",""trial"":1,""time"":4447}]",NA,NA,NA,NA,NA,0,#FA92F8,#1CD855,0,10,0,38,1,1441.5,39,0,1953.300000000745,10,1,experiment,NA,NA,1,0.3,0.7,3,2,273,7,NA
fcp-trial,323,1642714,0.0-284.0-0.0,voc_e2,12081,"[{""event"":""fullscreenenter"",""trial"":1,""time"":4447}]",NA,NA,NA,NA,NA,4,#741CD8,#D8271C,10,0,1,40,0,1656.8999999985099,39,0,565,0,0,experiment,NA,NA,0,0.9,0.1,0,1,274,7,NA
fcp-trial,324,1646123,0.0-285.0-0.0,voc_e2,12081,"[{""event"":""fullscreenenter"",""trial"":1,""time"":4447}]",NA,NA,NA,NA,NA,1,#FA92F8,#1CD855,0,0,0,38,1,1114.0999999996275,37,1,786.2999999988824,0,0,experiment,NA,NA,1,0.3,0.7,3,2,275,7,NA
fcp-trial,325,1649738,0.0-286.0-0.0,voc_e2,12081,"[{""event"":""fullscreenenter"",""trial"":1,""time"":4447}]",NA,NA,NA,NA,NA,6,#D89F1C,#3386FF,10,0,1,40,0,1585.800000000745,37,1,522.6999999992549,10,1,experiment,NA,NA,2,0.5,0.5,4,5,276,7,NA
fcp-trial,326,1653029,0.0-287.0-0.0,voc_e2,12081,"[{""event"":""fullscreenenter"",""trial"":1,""time"":4447}]",NA,NA,NA,NA,NA,0,#3386FF,#D89F1C,10,10,0,38,1,1133.800000000745,39,0,648.4000000003725,10,1,experiment,NA,NA,2,0.5,0.5,5,4,277,7,NA
fcp-trial,327,1656035,0.0-288.0-0.0,voc_e2,12081,"[{""event"":""fullscreenenter"",""trial"":1,""time"":4447}]",NA,NA,NA,NA,NA,5,#1CD855,#FA92F8,0,10,1,40,0,1016.5,39,0,480.19999999925494,10,0,experiment,NA,NA,1,0.7,0.3,2,3,278,7,NA
fcp-trial,328,1658842,0.0-289.0-0.0,voc_e2,12081,"[{""event"":""fullscreenenter"",""trial"":1,""time"":4447}]",NA,NA,NA,NA,NA,1,#741CD8,#D8271C,10,0,1,38,1,813.5,37,1,486.5,10,1,experiment,NA,NA,0,0.9,0.1,0,1,279,7,NA
fcp-trial,329,1662359,0.0-290.0-0.0,voc_e2,12081,"[{""event"":""fullscreenenter"",""trial"":1,""time"":4447}]",NA,NA,NA,NA,NA,6,#1CD855,#FA92F8,0,10,1,38,1,909.9000000003725,39,0,1098.5999999996275,10,0,experiment,NA,NA,1,0.7,0.3,2,3,280,7,NA
fcp-trial,330,1665298,0.0-291.0-0.0,voc_e2,12081,"[{""event"":""fullscreenenter"",""trial"":1,""time"":4447}]",NA,NA,NA,NA,NA,4,#3386FF,#D89F1C,0,0,0,40,0,826.9000000003725,37,1,604.2999999988824,0,0,experiment,NA,NA,2,0.5,0.5,5,4,281,7,NA
fcp-trial,331,1669758,0.0-292.0-0.0,voc_e2,12081,"[{""event"":""fullscreenenter"",""trial"":1,""time"":4447}]",NA,NA,NA,NA,NA,3,#D8271C,#741CD8,0,10,0,40,0,768.7999999988824,37,1,2181.5999999996275,0,0,experiment,NA,NA,0,0.1,0.9,1,0,282,7,NA
fcp-trial,332,1674616,0.0-293.0-0.0,voc_e2,12081,"[{""event"":""fullscreenenter"",""trial"":1,""time"":4447}]",NA,NA,NA,NA,NA,0,#D8271C,#741CD8,0,10,0,38,1,1166.699999999255,39,0,2183.7000000011176,10,1,experiment,NA,NA,0,0.1,0.9,1,0,283,7,NA
fcp-trial,333,1677744,0.0-294.0-0.0,voc_e2,12081,"[{""event"":""fullscreenenter"",""trial"":1,""time"":4447}]",NA,NA,NA,NA,NA,2,#1CD855,#FA92F8,0,0,1,38,1,1094.5999999996275,37,1,525.1999999992549,0,1,experiment,NA,NA,1,0.7,0.3,2,3,284,7,NA
fcp-trial,334,1681008,0.0-295.0-0.0,voc_e2,12081,"[{""event"":""fullscreenenter"",""trial"":1,""time"":4447}]",NA,NA,NA,NA,NA,1,#D89F1C,#3386FF,0,10,1,38,1,965.0999999996275,37,1,792.2999999988824,0,1,experiment,NA,NA,2,0.5,0.5,4,5,285,7,NA
fcp-trial,335,1683922,0.0-296.0-0.0,voc_e2,12081,"[{""event"":""fullscreenenter"",""trial"":1,""time"":4447}]",NA,NA,NA,NA,NA,2,#D8271C,#741CD8,0,10,0,38,1,707.7000000011176,39,0,699.4000000003725,10,1,experiment,NA,NA,0,0.1,0.9,1,0,286,7,NA
fcp-trial,336,1687482,0.0-297.0-0.0,voc_e2,12081,"[{""event"":""fullscreenenter"",""trial"":1,""time"":4447}]",NA,NA,NA,NA,NA,4,#1CD855,#FA92F8,10,10,1,40,0,1519.199999999255,39,0,531.6999999992549,10,0,experiment,NA,NA,1,0.7,0.3,2,3,287,7,NA
fcp-trial,337,1690900,0.0-298.0-0.0,voc_e2,12081,"[{""event"":""fullscreenenter"",""trial"":1,""time"":4447}]",NA,NA,NA,NA,NA,5,#D8271C,#741CD8,0,0,0,40,0,1413,37,1,494.69999999925494,0,0,experiment,NA,NA,0,0.1,0.9,1,0,288,7,NA
fcp-trial,338,1693907,0.0-299.0-0.0,voc_e2,12081,"[{""event"":""fullscreenenter"",""trial"":1,""time"":4447}]",NA,NA,NA,NA,NA,3,#1CD855,#FA92F8,0,0,1,40,0,1166.6000000014901,37,1,330.30000000074506,0,1,experiment,NA,NA,1,0.7,0.3,2,3,289,7,NA
fcp-trial,339,1696727,0.0-300.0-0.0,voc_e2,12081,"[{""event"":""fullscreenenter"",""trial"":1,""time"":4447}]",NA,NA,NA,NA,NA,2,#3386FF,#D89F1C,0,0,0,40,0,785.5999999996275,37,1,526.3000000007451,0,0,experiment,NA,NA,2,0.5,0.5,5,4,290,7,NA
fcp-trial,340,1699370,0.0-301.0-0.0,voc_e2,12081,"[{""event"":""fullscreenenter"",""trial"":1,""time"":4447}]",NA,NA,NA,NA,NA,5,#D89F1C,#3386FF,0,0,1,40,0,666.9000000003725,39,0,468.59999999962747,0,0,experiment,NA,NA,2,0.5,0.5,4,5,291,7,NA
fcp-trial,341,1702422,0.0-302.0-0.0,voc_e2,12081,"[{""event"":""fullscreenenter"",""trial"":1,""time"":4447}]",NA,NA,NA,NA,NA,6,#741CD8,#D8271C,10,0,1,40,0,939.1999999992549,37,1,605.7999999988824,10,1,experiment,NA,NA,0,0.9,0.1,0,1,292,7,NA
fcp-trial,342,1705478,0.0-303.0-0.0,voc_e2,12081,"[{""event"":""fullscreenenter"",""trial"":1,""time"":4447}]",NA,NA,NA,NA,NA,3,#D89F1C,#3386FF,0,0,1,40,0,949.0999999996275,37,1,598,0,1,experiment,NA,NA,2,0.5,0.5,4,5,293,7,NA
fcp-trial,343,1710347,0.0-304.0-0.0,voc_e2,12081,"[{""event"":""fullscreenenter"",""trial"":1,""time"":4447}]",NA,NA,NA,NA,NA,0,#FA92F8,#1CD855,0,10,0,38,1,2677,39,0,684.0999999996275,10,1,experiment,NA,NA,1,0.3,0.7,3,2,294,7,NA
fcp-trial,344,1713707,0.0-305.0-0.0,voc_e2,12081,"[{""event"":""fullscreenenter"",""trial"":1,""time"":4447}]",NA,NA,NA,NA,NA,2,#741CD8,#D8271C,10,0,1,38,1,1383.300000000745,37,1,465.80000000074506,10,1,experiment,NA,NA,0,0.9,0.1,0,1,295,7,NA
fcp-trial,345,1717422,0.0-306.0-0.0,voc_e2,12081,"[{""event"":""fullscreenenter"",""trial"":1,""time"":4447}]",NA,NA,NA,NA,NA,0,#3386FF,#D89F1C,10,10,0,38,1,1848,37,1,357.7000000011176,10,0,experiment,NA,NA,2,0.5,0.5,5,4,296,7,NA
fcp-trial,346,1721991,0.0-307.0-0.0,voc_e2,12081,"[{""event"":""fullscreenenter"",""trial"":1,""time"":4447}]",NA,NA,NA,NA,NA,3,#D8271C,#741CD8,10,10,0,40,0,1261.0999999996275,37,1,1799.699999999255,10,0,experiment,NA,NA,0,0.1,0.9,1,0,297,7,NA
fcp-trial,347,1732771,0.0-308.0-0.0,voc_e2,12081,"[{""event"":""fullscreenenter"",""trial"":1,""time"":4447}]",NA,NA,NA,NA,NA,4,#3386FF,#D89F1C,0,10,0,40,0,2405.5999999996275,37,1,6866.39999999851,0,0,experiment,NA,NA,2,0.5,0.5,5,4,298,7,NA
fcp-trial,348,1736075,0.0-309.0-0.0,voc_e2,12081,"[{""event"":""fullscreenenter"",""trial"":1,""time"":4447}]",NA,NA,NA,NA,NA,4,#FA92F8,#1CD855,0,10,0,40,0,1179.4000000003725,39,0,617,10,1,experiment,NA,NA,1,0.3,0.7,3,2,299,7,NA
fcp-trial,349,1739092,0.0-310.0-0.0,voc_e2,12081,"[{""event"":""fullscreenenter"",""trial"":1,""time"":4447}]",NA,NA,NA,NA,NA,6,#D8271C,#741CD8,0,10,0,40,0,851.1999999992549,37,1,658.7999999988824,0,0,experiment,NA,NA,0,0.1,0.9,1,0,300,7,NA
fcp-trial,350,1742311,0.0-311.0-0.0,voc_e2,12081,"[{""event"":""fullscreenenter"",""trial"":1,""time"":4447}]",NA,NA,NA,NA,NA,1,#741CD8,#D8271C,10,0,1,38,1,1154.800000000745,39,0,557.1999999992549,0,0,experiment,NA,NA,0,0.9,0.1,0,1,301,7,NA
fcp-trial,351,1746054,0.0-312.0-0.0,voc_e2,12081,"[{""event"":""fullscreenenter"",""trial"":1,""time"":4447}]",NA,NA,NA,NA,NA,5,#1CD855,#FA92F8,10,0,1,40,0,1274.0999999996275,39,0,960.5999999996275,0,0,experiment,NA,NA,1,0.7,0.3,2,3,302,7,NA
fcp-trial,352,1748671,0.0-313.0-0.0,voc_e2,12081,"[{""event"":""fullscreenenter"",""trial"":1,""time"":4447}]",NA,NA,NA,NA,NA,3,#3386FF,#D89F1C,0,10,0,40,0,734,37,1,374.80000000074506,0,0,experiment,NA,NA,2,0.5,0.5,5,4,303,7,NA
fcp-trial,353,1751700,0.0-314.0-0.0,voc_e2,12081,"[{""event"":""fullscreenenter"",""trial"":1,""time"":4447}]",NA,NA,NA,NA,NA,0,#1CD855,#FA92F8,0,10,1,38,1,1013.8999999985099,39,0,507.7999999988824,10,0,experiment,NA,NA,1,0.7,0.3,2,3,304,7,NA
fcp-trial,354,1755151,0.0-315.0-0.0,voc_e2,12081,"[{""event"":""fullscreenenter"",""trial"":1,""time"":4447}]",NA,NA,NA,NA,NA,3,#FA92F8,#1CD855,0,10,0,40,0,1334.5,39,0,609,10,1,experiment,NA,NA,1,0.3,0.7,3,2,305,7,NA
fcp-trial,355,1758032,0.0-316.0-0.0,voc_e2,12081,"[{""event"":""fullscreenenter"",""trial"":1,""time"":4447}]",NA,NA,NA,NA,NA,4,#D8271C,#741CD8,10,0,0,40,0,913,37,1,459.40000000037253,10,0,experiment,NA,NA,0,0.1,0.9,1,0,306,7,NA
fcp-trial,356,1761161,0.0-317.0-0.0,voc_e2,12081,"[{""event"":""fullscreenenter"",""trial"":1,""time"":4447}]",NA,NA,NA,NA,NA,6,#FA92F8,#1CD855,0,0,0,40,0,1062.300000000745,39,0,557.9000000003725,0,1,experiment,NA,NA,1,0.3,0.7,3,2,307,7,NA
fcp-trial,357,1763995,0.0-318.0-0.0,voc_e2,12081,"[{""event"":""fullscreenenter"",""trial"":1,""time"":4447}]",NA,NA,NA,NA,NA,6,#D89F1C,#3386FF,0,0,1,40,0,839,37,1,486.69999999925494,0,1,experiment,NA,NA,2,0.5,0.5,4,5,308,7,NA
fcp-trial,358,1766732,0.0-319.0-0.0,voc_e2,12081,"[{""event"":""fullscreenenter"",""trial"":1,""time"":4447}]",NA,NA,NA,NA,NA,2,#FA92F8,#1CD855,0,10,0,40,0,546.8000000007451,37,1,680.0999999996275,0,0,experiment,NA,NA,1,0.3,0.7,3,2,309,7,NA
fcp-trial,359,1769791,0.0-320.0-0.0,voc_e2,12081,"[{""event"":""fullscreenenter"",""trial"":1,""time"":4447}]",NA,NA,NA,NA,NA,5,#3386FF,#D89F1C,10,0,0,40,0,1041.4000000003725,37,1,508.90000000037253,10,0,experiment,NA,NA,2,0.5,0.5,5,4,310,7,NA
fcp-trial,360,1772782,0.0-321.0-0.0,voc_e2,12081,"[{""event"":""fullscreenenter"",""trial"":1,""time"":4447}]",NA,NA,NA,NA,NA,5,#741CD8,#D8271C,10,0,1,40,0,766.3000000007451,39,0,715.8999999985099,0,0,experiment,NA,NA,0,0.9,0.1,0,1,311,7,NA
fcp-trial,361,1775590,0.0-322.0-0.0,voc_e2,12081,"[{""event"":""fullscreenenter"",""trial"":1,""time"":4447}]",NA,NA,NA,NA,NA,1,#D89F1C,#3386FF,0,10,1,38,1,826.0999999996275,37,1,473.19999999925494,0,1,experiment,NA,NA,2,0.5,0.5,4,5,312,7,NA
fcp-trial,362,1780974,0.0-323.0-0.0,voc_e2,12081,"[{""event"":""fullscreenenter"",""trial"":1,""time"":4447}]",NA,NA,NA,NA,NA,2,#3386FF,#D89F1C,0,0,0,38,1,1466.1000000014901,37,1,2409.699999999255,0,0,experiment,NA,NA,2,0.5,0.5,5,4,313,7,NA
fcp-trial,363,1784355,0.0-324.0-0.0,voc_e2,12081,"[{""event"":""fullscreenenter"",""trial"":1,""time"":4447}]",NA,NA,NA,NA,NA,1,#FA92F8,#1CD855,10,10,0,38,1,1190.300000000745,39,0,683.1999999992549,10,1,experiment,NA,NA,1,0.3,0.7,3,2,314,7,NA
fcp-trial,364,1800867,0.0-325.0-0.0,voc_e2,12081,"[{""event"":""fullscreenenter"",""trial"":1,""time"":4447}]",NA,NA,NA,NA,NA,0,#D8271C,#741CD8,10,10,0,38,1,1253.9000000003725,null,null,null,NA,0,experiment,NA,NA,0,0.1,0.9,1,0,315,7,NA
audio-instructions,365,1807797,0.0-326.0,voc_e2,12081,"[{""event"":""fullscreenenter"",""trial"":1,""time"":4447}]",NA,1239.2999999988824,static/audio/finished.wav,NA,0,NA,NA,NA,NA,NA,NA,NA,NA,NA,NA,NA,NA,NA,NA,NA,NA,NA,NA,NA,NA,NA,NA,NA,NA,NA
audio-instructions,366,1819437,0.0-327.0-0.0,voc_e2,12081,"[{""event"":""fullscreenenter"",""trial"":1,""time"":4447}]",NA,805,static/audio/explicit1.wav,NA,0,NA,NA,NA,NA,NA,NA,NA,NA,NA,NA,NA,NA,NA,NA,NA,NA,NA,NA,NA,NA,NA,NA,NA,NA,NA
audio-instructions,367,1828015,0.0-327.0-1.0,voc_e2,12081,"[{""event"":""fullscreenenter"",""trial"":1,""time"":4447}]",NA,983.3000000007452,static/audio/explicit2.wav,NA,0,NA,NA,NA,NA,NA,NA,NA,NA,NA,NA,NA,NA,NA,NA,NA,NA,NA,NA,NA,NA,NA,NA,NA,NA,NA
image-slider-response,368,1833749,0.0-328.0,voc_e2,12081,"[{""event"":""fullscreenenter"",""trial"":1,""time"":4447}]",NA,5730.700000001118,static/img/machines/machine2.png,NA,NA,NA,NA,NA,NA,NA,NA,NA,NA,NA,NA,NA,NA,NA,NA,explicit,NA,NA,NA,NA,NA,NA,NA,NA,NA,5
image-slider-response,369,1837543,0.0-329.0,voc_e2,12081,"[{""event"":""fullscreenenter"",""trial"":1,""time"":4447}]",NA,3791.39999999851,static/img/machines/machine6.png,NA,NA,NA,NA,NA,NA,NA,NA,NA,NA,NA,NA,NA,NA,NA,NA,explicit,NA,NA,NA,NA,NA,NA,NA,NA,NA,3
image-slider-response,370,1840340,0.0-330.0,voc_e2,12081,"[{""event"":""fullscreenenter"",""trial"":1,""time"":4447}]",NA,2794.7000000011176,static/img/machines/machine4.png,NA,NA,NA,NA,NA,NA,NA,NA,NA,NA,NA,NA,NA,NA,NA,NA,explicit,NA,NA,NA,NA,NA,NA,NA,NA,NA,3
image-slider-response,371,1842681,0.0-331.0,voc_e2,12081,"[{""event"":""fullscreenenter"",""trial"":1,""time"":4447}]",NA,2338.5,static/img/machines/machine3.png,NA,NA,NA,NA,NA,NA,NA,NA,NA,NA,NA,NA,NA,NA,NA,NA,explicit,NA,NA,NA,NA,NA,NA,NA,NA,NA,8
image-slider-response,372,1845072,0.0-332.0,voc_e2,12081,"[{""event"":""fullscreenenter"",""trial"":1,""time"":4447}]",NA,2388.5999999996275,static/img/machines/machine1.png,NA,NA,NA,NA,NA,NA,NA,NA,NA,NA,NA,NA,NA,NA,NA,NA,explicit,NA,NA,NA,NA,NA,NA,NA,NA,NA,7
image-slider-response,373,1848147,0.0-333.0,voc_e2,12081,"[{""event"":""fullscreenenter"",""trial"":1,""time"":4447}]",NA,3072.5,static/img/machines/machine5.png,NA,NA,NA,NA,NA,NA,NA,NA,NA,NA,NA,NA,NA,NA,NA,NA,explicit,NA,NA,NA,NA,NA,NA,NA,NA,NA,4
