trial_type,trial_index,time_elapsed,internal_node_id,task_version,subject_id,interactions,success,rt,stimulus,key_press,button_pressed,offer,arcade_color_L,arcade_color_R,arcade_outcome_L,arcade_outcome_R,correct,stage_1_key,stage_1_choice,stage_1_rt,stage_2_key,stage_2_choice,stage_2_rt,stage_3_outcome,accuracy,phase,responses,num_errors,context,reward_prob_L,reward_prob_R,arcade_id_L,arcade_id_R,trial,block,response
pavlovia,0,10,0.0-0.0,voc_e2,12049,[],NA,NA,NA,NA,NA,NA,NA,NA,NA,NA,NA,NA,NA,NA,NA,NA,NA,NA,NA,NA,NA,NA,NA,NA,NA,NA,NA,NA,NA,NA
fullscreen,1,5265,0.0-1.0,voc_e2,12049,"[{""event"":""fullscreenenter"",""trial"":1,""time"":4300}]",TRUE,NA,NA,NA,NA,NA,NA,NA,NA,NA,NA,NA,NA,NA,NA,NA,NA,NA,NA,NA,NA,NA,NA,NA,NA,NA,NA,NA,NA,NA
audio-keyboard-response,2,11674,0.0-2.0,voc_e2,12049,"[{""event"":""fullscreenenter"",""trial"":1,""time"":4300}]",NA,5461,static/audio/beep_loop.wav,32,NA,NA,NA,NA,NA,NA,NA,NA,NA,NA,NA,NA,NA,NA,NA,NA,NA,NA,NA,NA,NA,NA,NA,NA,NA,NA
audio-test,3,13216,0.0-3.0,voc_e2,12049,"[{""event"":""fullscreenenter"",""trial"":1,""time"":4300}]",NA,NA,static/audio/turtle.wav,NA,3,NA,NA,NA,NA,NA,NA,NA,NA,NA,NA,NA,NA,NA,NA,NA,NA,NA,NA,NA,NA,NA,NA,NA,NA,NA
audio-test,4,15239,0.0-4.0,voc_e2,12049,"[{""event"":""fullscreenenter"",""trial"":1,""time"":4300}]",NA,NA,static/audio/shark.wav,NA,2,NA,NA,NA,NA,NA,NA,NA,NA,NA,NA,NA,NA,NA,NA,NA,NA,NA,NA,NA,NA,NA,NA,NA,NA,NA
audio-instructions,5,33813,0.0-5.0-0.0,voc_e2,12049,"[{""event"":""fullscreenenter"",""trial"":1,""time"":4300}]",NA,12770.700000047684,static/audio/instructions1.wav,NA,0,NA,NA,NA,NA,NA,NA,NA,NA,NA,NA,NA,NA,NA,NA,NA,NA,NA,NA,NA,NA,NA,NA,NA,NA,NA
audio-instructions,6,50965,0.0-5.0-1.0,voc_e2,12049,"[{""event"":""fullscreenenter"",""trial"":1,""time"":4300}]",NA,10412.900000035765,static/audio/instructions2.wav,NA,0,NA,NA,NA,NA,NA,NA,NA,NA,NA,NA,NA,NA,NA,NA,NA,NA,NA,NA,NA,NA,NA,NA,NA,NA,NA
audio-instructions,7,59869,0.0-5.0-2.0,voc_e2,12049,"[{""event"":""fullscreenenter"",""trial"":1,""time"":4300}]",NA,3097.100000023842,static/audio/instructions3.wav,NA,0,NA,NA,NA,NA,NA,NA,NA,NA,NA,NA,NA,NA,NA,NA,NA,NA,NA,NA,NA,NA,NA,NA,NA,NA,NA
audio-instructions,8,84438,0.0-5.0-3.0,voc_e2,12049,"[{""event"":""fullscreenenter"",""trial"":1,""time"":4300}]",NA,11345.5,static/audio/instructions4.wav,NA,0,NA,NA,NA,NA,NA,NA,NA,NA,NA,NA,NA,NA,NA,NA,NA,NA,NA,NA,NA,NA,NA,NA,NA,NA,NA
audio-instructions,9,97613,0.0-5.0-4.0,voc_e2,12049,"[{""event"":""fullscreenenter"",""trial"":1,""time"":4300}]",NA,3790.899999976158,static/audio/instructions5.wav,NA,0,NA,NA,NA,NA,NA,NA,NA,NA,NA,NA,NA,NA,NA,NA,NA,NA,NA,NA,NA,NA,NA,NA,NA,NA,NA
fcp-practice,10,100880,0.0-5.0-5.0-0.0,voc_e2,12049,"[{""event"":""fullscreenenter"",""trial"":1,""time"":4300}]",NA,NA,NA,NA,NA,NA,#EDC948,#46d3c8,10,0,1,null,null,null,37,1,1750.199999988079,10,1,practice,NA,NA,NA,NA,NA,NA,NA,NA,NA,NA
fcp-practice,11,103666,0.0-5.0-5.0-1.0,voc_e2,12049,"[{""event"":""fullscreenenter"",""trial"":1,""time"":4300}]",NA,NA,NA,NA,NA,NA,#EDC948,#46d3c8,10,0,1,null,null,null,37,1,1279,10,1,practice,NA,NA,NA,NA,NA,NA,NA,NA,NA,NA
fcp-practice,12,109360,0.0-5.0-5.0-2.0,voc_e2,12049,"[{""event"":""fullscreenenter"",""trial"":1,""time"":4300}]",NA,NA,NA,NA,NA,NA,#EDC948,#46d3c8,0,10,1,null,null,null,37,1,4181.899999976158,0,1,practice,NA,NA,NA,NA,NA,NA,NA,NA,NA,NA
fcp-practice,13,111582,0.0-5.0-5.0-3.0,voc_e2,12049,"[{""event"":""fullscreenenter"",""trial"":1,""time"":4300}]",NA,NA,NA,NA,NA,NA,#EDC948,#46d3c8,10,0,1,null,null,null,37,1,705.3000000119209,10,1,practice,NA,NA,NA,NA,NA,NA,NA,NA,NA,NA
fcp-practice,14,113733,0.0-5.0-5.0-4.0,voc_e2,12049,"[{""event"":""fullscreenenter"",""trial"":1,""time"":4300}]",NA,NA,NA,NA,NA,NA,#EDC948,#46d3c8,10,0,1,null,null,null,37,1,640.9000000357628,10,1,practice,NA,NA,NA,NA,NA,NA,NA,NA,NA,NA
audio-instructions,15,134061,0.0-5.0-6.0,voc_e2,12049,"[{""event"":""fullscreenenter"",""trial"":1,""time"":4300}]",NA,2318,static/audio/instructions6.wav,NA,0,NA,NA,NA,NA,NA,NA,NA,NA,NA,NA,NA,NA,NA,NA,NA,NA,NA,NA,NA,NA,NA,NA,NA,NA,NA
audio-instructions,16,156517,0.0-5.0-7.0,voc_e2,12049,"[{""event"":""fullscreenenter"",""trial"":1,""time"":4300}]",NA,3254.800000011921,static/audio/instructions7.wav,NA,0,NA,NA,NA,NA,NA,NA,NA,NA,NA,NA,NA,NA,NA,NA,NA,NA,NA,NA,NA,NA,NA,NA,NA,NA,NA
audio-instructions,17,204380,0.0-5.0-8.0,voc_e2,12049,"[{""event"":""fullscreenenter"",""trial"":1,""time"":4300}]",NA,38388.59999996424,static/audio/instructions8.wav,NA,0,NA,NA,NA,NA,NA,NA,NA,NA,NA,NA,NA,NA,NA,NA,NA,NA,NA,NA,NA,NA,NA,NA,NA,NA,NA
fcp-comprehension,18,216980,0.0-5.0-9.0,voc_e2,12049,"[{""event"":""fullscreenenter"",""trial"":1,""time"":4300}]",NA,12598.30000001192,NA,NA,NA,NA,NA,NA,NA,NA,NA,NA,NA,NA,NA,NA,NA,NA,NA,NA,"false,true",1,NA,NA,NA,NA,NA,NA,NA,NA
audio-instructions,19,224675,0.0-5.1-0.1,voc_e2,12049,"[{""event"":""fullscreenenter"",""trial"":1,""time"":4300}]",NA,2582.5,static/audio/instructions1.wav,NA,0,NA,NA,NA,NA,NA,NA,NA,NA,NA,NA,NA,NA,NA,NA,NA,NA,NA,NA,NA,NA,NA,NA,NA,NA,NA
audio-instructions,20,237428,0.0-5.1-1.1,voc_e2,12049,"[{""event"":""fullscreenenter"",""trial"":1,""time"":4300}]",NA,6014.5,static/audio/instructions2.wav,NA,0,NA,NA,NA,NA,NA,NA,NA,NA,NA,NA,NA,NA,NA,NA,NA,NA,NA,NA,NA,NA,NA,NA,NA,NA,NA
audio-instructions,21,245468,0.0-5.1-2.1,voc_e2,12049,"[{""event"":""fullscreenenter"",""trial"":1,""time"":4300}]",NA,2235,static/audio/instructions3.wav,NA,0,NA,NA,NA,NA,NA,NA,NA,NA,NA,NA,NA,NA,NA,NA,NA,NA,NA,NA,NA,NA,NA,NA,NA,NA,NA
audio-instructions,22,263980,0.0-5.1-3.1,voc_e2,12049,"[{""event"":""fullscreenenter"",""trial"":1,""time"":4300}]",NA,5287.799999952316,static/audio/instructions4.wav,NA,0,NA,NA,NA,NA,NA,NA,NA,NA,NA,NA,NA,NA,NA,NA,NA,NA,NA,NA,NA,NA,NA,NA,NA,NA,NA
audio-instructions,23,277492,0.0-5.1-4.1,voc_e2,12049,"[{""event"":""fullscreenenter"",""trial"":1,""time"":4300}]",NA,4129.5,static/audio/instructions5.wav,NA,0,NA,NA,NA,NA,NA,NA,NA,NA,NA,NA,NA,NA,NA,NA,NA,NA,NA,NA,NA,NA,NA,NA,NA,NA,NA
fcp-practice,24,280546,0.0-5.1-5.1-0.1,voc_e2,12049,"[{""event"":""fullscreenenter"",""trial"":1,""time"":4300}]",NA,NA,NA,NA,NA,NA,#EDC948,#46d3c8,10,0,1,null,null,null,37,1,1538.8999999761581,10,1,practice,NA,NA,NA,NA,NA,NA,NA,NA,NA,NA
fcp-practice,25,282779,0.0-5.1-5.1-1.1,voc_e2,12049,"[{""event"":""fullscreenenter"",""trial"":1,""time"":4300}]",NA,NA,NA,NA,NA,NA,#EDC948,#46d3c8,10,0,1,null,null,null,37,1,724,10,1,practice,NA,NA,NA,NA,NA,NA,NA,NA,NA,NA
fcp-practice,26,284761,0.0-5.1-5.1-2.1,voc_e2,12049,"[{""event"":""fullscreenenter"",""trial"":1,""time"":4300}]",NA,NA,NA,NA,NA,NA,#EDC948,#46d3c8,0,10,1,null,null,null,37,1,475.89999997615814,0,1,practice,NA,NA,NA,NA,NA,NA,NA,NA,NA,NA
fcp-practice,27,286762,0.0-5.1-5.1-3.1,voc_e2,12049,"[{""event"":""fullscreenenter"",""trial"":1,""time"":4300}]",NA,NA,NA,NA,NA,NA,#EDC948,#46d3c8,10,0,1,null,null,null,37,1,495.19999998807907,10,1,practice,NA,NA,NA,NA,NA,NA,NA,NA,NA,NA
fcp-practice,28,288713,0.0-5.1-5.1-4.1,voc_e2,12049,"[{""event"":""fullscreenenter"",""trial"":1,""time"":4300}]",NA,NA,NA,NA,NA,NA,#EDC948,#46d3c8,10,0,1,null,null,null,37,1,438.30000001192093,10,1,practice,NA,NA,NA,NA,NA,NA,NA,NA,NA,NA
audio-instructions,29,332891,0.0-5.1-6.1,voc_e2,12049,"[{""event"":""fullscreenenter"",""trial"":1,""time"":4300}]",NA,26168.599999964237,static/audio/instructions6.wav,NA,0,NA,NA,NA,NA,NA,NA,NA,NA,NA,NA,NA,NA,NA,NA,NA,NA,NA,NA,NA,NA,NA,NA,NA,NA,NA
audio-instructions,30,360020,0.0-5.1-7.1,voc_e2,12049,"[{""event"":""fullscreenenter"",""trial"":1,""time"":4300}]",NA,7927.699999988079,static/audio/instructions7.wav,NA,0,NA,NA,NA,NA,NA,NA,NA,NA,NA,NA,NA,NA,NA,NA,NA,NA,NA,NA,NA,NA,NA,NA,NA,NA,NA
audio-instructions,31,372259,0.0-5.1-8.1,voc_e2,12049,"[{""event"":""fullscreenenter"",""trial"":1,""time"":4300}]",NA,2767.699999988079,static/audio/instructions8.wav,NA,0,NA,NA,NA,NA,NA,NA,NA,NA,NA,NA,NA,NA,NA,NA,NA,NA,NA,NA,NA,NA,NA,NA,NA,NA,NA
fcp-comprehension,32,394716,0.0-5.1-9.1,voc_e2,12049,"[{""event"":""fullscreenenter"",""trial"":1,""time"":4300}]",NA,22454.80000001192,NA,NA,NA,NA,NA,NA,NA,NA,NA,NA,NA,NA,NA,NA,NA,NA,NA,NA,"false,true",1,NA,NA,NA,NA,NA,NA,NA,NA
audio-instructions,33,401373,0.0-5.2-0.2,voc_e2,12049,"[{""event"":""fullscreenenter"",""trial"":1,""time"":4300}]",NA,1881.699999988079,static/audio/instructions1.wav,NA,0,NA,NA,NA,NA,NA,NA,NA,NA,NA,NA,NA,NA,NA,NA,NA,NA,NA,NA,NA,NA,NA,NA,NA,NA,NA
audio-instructions,34,410035,0.0-5.2-1.2,voc_e2,12049,"[{""event"":""fullscreenenter"",""trial"":1,""time"":4300}]",NA,1912.899999976158,static/audio/instructions2.wav,NA,0,NA,NA,NA,NA,NA,NA,NA,NA,NA,NA,NA,NA,NA,NA,NA,NA,NA,NA,NA,NA,NA,NA,NA,NA,NA
audio-instructions,35,419443,0.0-5.2-2.2,voc_e2,12049,"[{""event"":""fullscreenenter"",""trial"":1,""time"":4300}]",NA,3600.800000011921,static/audio/instructions3.wav,NA,0,NA,NA,NA,NA,NA,NA,NA,NA,NA,NA,NA,NA,NA,NA,NA,NA,NA,NA,NA,NA,NA,NA,NA,NA,NA
audio-instructions,36,437491,0.0-5.2-3.2,voc_e2,12049,"[{""event"":""fullscreenenter"",""trial"":1,""time"":4300}]",NA,4818.699999988079,static/audio/instructions4.wav,NA,0,NA,NA,NA,NA,NA,NA,NA,NA,NA,NA,NA,NA,NA,NA,NA,NA,NA,NA,NA,NA,NA,NA,NA,NA,NA
audio-instructions,37,450716,0.0-5.2-4.2,voc_e2,12049,"[{""event"":""fullscreenenter"",""trial"":1,""time"":4300}]",NA,3833.400000035763,static/audio/instructions5.wav,NA,0,NA,NA,NA,NA,NA,NA,NA,NA,NA,NA,NA,NA,NA,NA,NA,NA,NA,NA,NA,NA,NA,NA,NA,NA,NA
fcp-practice,38,453543,0.0-5.2-5.2-0.2,voc_e2,12049,"[{""event"":""fullscreenenter"",""trial"":1,""time"":4300}]",NA,NA,NA,NA,NA,NA,#EDC948,#46d3c8,10,0,1,null,null,null,37,1,1322.800000011921,10,1,practice,NA,NA,NA,NA,NA,NA,NA,NA,NA,NA
fcp-practice,39,456909,0.0-5.2-5.2-1.2,voc_e2,12049,"[{""event"":""fullscreenenter"",""trial"":1,""time"":4300}]",NA,NA,NA,NA,NA,NA,#EDC948,#46d3c8,10,0,1,null,null,null,37,1,1858,10,1,practice,NA,NA,NA,NA,NA,NA,NA,NA,NA,NA
fcp-practice,40,459528,0.0-5.2-5.2-2.2,voc_e2,12049,"[{""event"":""fullscreenenter"",""trial"":1,""time"":4300}]",NA,NA,NA,NA,NA,NA,#EDC948,#46d3c8,0,10,1,null,null,null,37,1,1115.7000000476837,0,1,practice,NA,NA,NA,NA,NA,NA,NA,NA,NA,NA
fcp-practice,41,462364,0.0-5.2-5.2-3.2,voc_e2,12049,"[{""event"":""fullscreenenter"",""trial"":1,""time"":4300}]",NA,NA,NA,NA,NA,NA,#EDC948,#46d3c8,10,0,1,null,null,null,37,1,1330.2999999523163,10,1,practice,NA,NA,NA,NA,NA,NA,NA,NA,NA,NA
fcp-practice,42,465745,0.0-5.2-5.2-4.2,voc_e2,12049,"[{""event"":""fullscreenenter"",""trial"":1,""time"":4300}]",NA,NA,NA,NA,NA,NA,#EDC948,#46d3c8,10,0,1,null,null,null,37,1,1871.800000011921,10,1,practice,NA,NA,NA,NA,NA,NA,NA,NA,NA,NA
audio-instructions,43,493562,0.0-5.2-6.2,voc_e2,12049,"[{""event"":""fullscreenenter"",""trial"":1,""time"":4300}]",NA,9810.80000001192,static/audio/instructions6.wav,NA,0,NA,NA,NA,NA,NA,NA,NA,NA,NA,NA,NA,NA,NA,NA,NA,NA,NA,NA,NA,NA,NA,NA,NA,NA,NA
audio-instructions,44,516035,0.0-5.2-7.2,voc_e2,12049,"[{""event"":""fullscreenenter"",""trial"":1,""time"":4300}]",NA,3272.800000011921,static/audio/instructions7.wav,NA,0,NA,NA,NA,NA,NA,NA,NA,NA,NA,NA,NA,NA,NA,NA,NA,NA,NA,NA,NA,NA,NA,NA,NA,NA,NA
audio-instructions,45,532547,0.0-5.2-8.2,voc_e2,12049,"[{""event"":""fullscreenenter"",""trial"":1,""time"":4300}]",NA,7045.5,static/audio/instructions8.wav,NA,0,NA,NA,NA,NA,NA,NA,NA,NA,NA,NA,NA,NA,NA,NA,NA,NA,NA,NA,NA,NA,NA,NA,NA,NA,NA
fcp-comprehension,46,546083,0.0-5.2-9.2,voc_e2,12049,"[{""event"":""fullscreenenter"",""trial"":1,""time"":4300}]",NA,13534.69999998808,NA,NA,NA,NA,NA,NA,NA,NA,NA,NA,NA,NA,NA,NA,NA,NA,NA,NA,"false,true",1,NA,NA,NA,NA,NA,NA,NA,NA
audio-instructions,47,557363,0.0-5.3-0.3,voc_e2,12049,"[{""event"":""fullscreenenter"",""trial"":1,""time"":4300}]",NA,6499.300000011921,static/audio/instructions1.wav,NA,0,NA,NA,NA,NA,NA,NA,NA,NA,NA,NA,NA,NA,NA,NA,NA,NA,NA,NA,NA,NA,NA,NA,NA,NA,NA
audio-instructions,48,573499,0.0-5.3-1.3,voc_e2,12049,"[{""event"":""fullscreenenter"",""trial"":1,""time"":4300}]",NA,9396.799999952316,static/audio/instructions2.wav,NA,0,NA,NA,NA,NA,NA,NA,NA,NA,NA,NA,NA,NA,NA,NA,NA,NA,NA,NA,NA,NA,NA,NA,NA,NA,NA
audio-instructions,49,583179,0.0-5.3-2.3,voc_e2,12049,"[{""event"":""fullscreenenter"",""trial"":1,""time"":4300}]",NA,3877.699999988079,static/audio/instructions3.wav,NA,0,NA,NA,NA,NA,NA,NA,NA,NA,NA,NA,NA,NA,NA,NA,NA,NA,NA,NA,NA,NA,NA,NA,NA,NA,NA
audio-instructions,50,603962,0.0-5.3-3.3,voc_e2,12049,"[{""event"":""fullscreenenter"",""trial"":1,""time"":4300}]",NA,7549.5,static/audio/instructions4.wav,NA,0,NA,NA,NA,NA,NA,NA,NA,NA,NA,NA,NA,NA,NA,NA,NA,NA,NA,NA,NA,NA,NA,NA,NA,NA,NA
audio-instructions,51,615218,0.0-5.3-4.3,voc_e2,12049,"[{""event"":""fullscreenenter"",""trial"":1,""time"":4300}]",NA,1867.100000023842,static/audio/instructions5.wav,NA,0,NA,NA,NA,NA,NA,NA,NA,NA,NA,NA,NA,NA,NA,NA,NA,NA,NA,NA,NA,NA,NA,NA,NA,NA,NA
fcp-practice,52,619019,0.0-5.3-5.3-0.3,voc_e2,12049,"[{""event"":""fullscreenenter"",""trial"":1,""time"":4300}]",NA,NA,NA,NA,NA,NA,#EDC948,#46d3c8,10,0,1,null,null,null,37,1,2282.699999988079,10,1,practice,NA,NA,NA,NA,NA,NA,NA,NA,NA,NA
fcp-practice,53,620752,0.0-5.3-5.3-1.3,voc_e2,12049,"[{""event"":""fullscreenenter"",""trial"":1,""time"":4300}]",NA,NA,NA,NA,NA,NA,#EDC948,#46d3c8,10,0,1,null,null,null,37,1,228.0999999642372,10,1,practice,NA,NA,NA,NA,NA,NA,NA,NA,NA,NA
fcp-practice,54,624720,0.0-5.3-5.3-2.3,voc_e2,12049,"[{""event"":""fullscreenenter"",""trial"":1,""time"":4300}]",NA,NA,NA,NA,NA,NA,#EDC948,#46d3c8,0,10,1,null,null,null,37,1,2452.900000035763,0,1,practice,NA,NA,NA,NA,NA,NA,NA,NA,NA,NA
fcp-practice,55,635456,0.0-5.3-5.3-3.3,voc_e2,12049,"[{""event"":""fullscreenenter"",""trial"":1,""time"":4300}]",NA,NA,NA,NA,NA,NA,#EDC948,#46d3c8,10,0,1,null,null,null,37,1,9226.700000047684,10,1,practice,NA,NA,NA,NA,NA,NA,NA,NA,NA,NA
fcp-practice,56,638607,0.0-5.3-5.3-4.3,voc_e2,12049,"[{""event"":""fullscreenenter"",""trial"":1,""time"":4300}]",NA,NA,NA,NA,NA,NA,#EDC948,#46d3c8,10,0,1,null,null,null,37,1,1639.4000000357628,10,1,practice,NA,NA,NA,NA,NA,NA,NA,NA,NA,NA
audio-instructions,57,663497,0.0-5.3-6.3,voc_e2,12049,"[{""event"":""fullscreenenter"",""trial"":1,""time"":4300}]",NA,6876.300000011921,static/audio/instructions6.wav,NA,0,NA,NA,NA,NA,NA,NA,NA,NA,NA,NA,NA,NA,NA,NA,NA,NA,NA,NA,NA,NA,NA,NA,NA,NA,NA
audio-instructions,58,683722,0.0-5.3-7.3,voc_e2,12049,"[{""event"":""fullscreenenter"",""trial"":1,""time"":4300}]",NA,1030.800000011921,static/audio/instructions7.wav,NA,0,NA,NA,NA,NA,NA,NA,NA,NA,NA,NA,NA,NA,NA,NA,NA,NA,NA,NA,NA,NA,NA,NA,NA,NA,NA
audio-instructions,59,695442,0.0-5.3-8.3,voc_e2,12049,"[{""event"":""fullscreenenter"",""trial"":1,""time"":4300}]",NA,2241.199999988079,static/audio/instructions8.wav,NA,0,NA,NA,NA,NA,NA,NA,NA,NA,NA,NA,NA,NA,NA,NA,NA,NA,NA,NA,NA,NA,NA,NA,NA,NA,NA
fcp-comprehension,60,709066,0.0-5.3-9.3,voc_e2,12049,"[{""event"":""fullscreenenter"",""trial"":1,""time"":4300}]",NA,13622.5,NA,NA,NA,NA,NA,NA,NA,NA,NA,NA,NA,NA,NA,NA,NA,NA,NA,NA,"false,true",1,NA,NA,NA,NA,NA,NA,NA,NA
audio-instructions,61,719218,0.0-5.4-0.4,voc_e2,12049,"[{""event"":""fullscreenenter"",""trial"":1,""time"":4300}]",NA,5376.800000011921,static/audio/instructions1.wav,NA,0,NA,NA,NA,NA,NA,NA,NA,NA,NA,NA,NA,NA,NA,NA,NA,NA,NA,NA,NA,NA,NA,NA,NA,NA,NA
audio-instructions,62,733505,0.0-5.4-1.4,voc_e2,12049,"[{""event"":""fullscreenenter"",""trial"":1,""time"":4300}]",NA,7545,static/audio/instructions2.wav,NA,0,NA,NA,NA,NA,NA,NA,NA,NA,NA,NA,NA,NA,NA,NA,NA,NA,NA,NA,NA,NA,NA,NA,NA,NA,NA
audio-instructions,63,751890,0.0-5.4-2.4,voc_e2,12049,"[{""event"":""fullscreenenter"",""trial"":1,""time"":4300}]",NA,12579.5,static/audio/instructions3.wav,NA,0,NA,NA,NA,NA,NA,NA,NA,NA,NA,NA,NA,NA,NA,NA,NA,NA,NA,NA,NA,NA,NA,NA,NA,NA,NA
audio-instructions,64,766178,0.0-5.4-3.4,voc_e2,12049,"[{""event"":""fullscreenenter"",""trial"":1,""time"":4300}]",NA,1057.300000011921,static/audio/instructions4.wav,NA,0,NA,NA,NA,NA,NA,NA,NA,NA,NA,NA,NA,NA,NA,NA,NA,NA,NA,NA,NA,NA,NA,NA,NA,NA,NA
audio-instructions,65,783515,0.0-5.4-4.4,voc_e2,12049,"[{""event"":""fullscreenenter"",""trial"":1,""time"":4300}]",NA,7954.699999988079,static/audio/instructions5.wav,NA,0,NA,NA,NA,NA,NA,NA,NA,NA,NA,NA,NA,NA,NA,NA,NA,NA,NA,NA,NA,NA,NA,NA,NA,NA,NA
fcp-practice,66,786981,0.0-5.4-5.4-0.4,voc_e2,12049,"[{""event"":""fullscreenenter"",""trial"":1,""time"":4300}]",NA,NA,NA,NA,NA,NA,#EDC948,#46d3c8,10,0,1,null,null,null,37,1,1954.6000000238419,10,1,practice,NA,NA,NA,NA,NA,NA,NA,NA,NA,NA
fcp-practice,67,789131,0.0-5.4-5.4-1.4,voc_e2,12049,"[{""event"":""fullscreenenter"",""trial"":1,""time"":4300}]",NA,NA,NA,NA,NA,NA,#EDC948,#46d3c8,10,0,1,null,null,null,37,1,640.6000000238419,10,1,practice,NA,NA,NA,NA,NA,NA,NA,NA,NA,NA
fcp-practice,68,791678,0.0-5.4-5.4-2.4,voc_e2,12049,"[{""event"":""fullscreenenter"",""trial"":1,""time"":4300}]",NA,NA,NA,NA,NA,NA,#EDC948,#46d3c8,0,10,1,null,null,null,37,1,1034.5999999642372,0,1,practice,NA,NA,NA,NA,NA,NA,NA,NA,NA,NA
fcp-practice,69,795108,0.0-5.4-5.4-3.4,voc_e2,12049,"[{""event"":""fullscreenenter"",""trial"":1,""time"":4300}]",NA,NA,NA,NA,NA,NA,#EDC948,#46d3c8,10,0,1,null,null,null,37,1,1920.8999999761581,10,1,practice,NA,NA,NA,NA,NA,NA,NA,NA,NA,NA
fcp-practice,70,798384,0.0-5.4-5.4-4.4,voc_e2,12049,"[{""event"":""fullscreenenter"",""trial"":1,""time"":4300}]",NA,NA,NA,NA,NA,NA,#EDC948,#46d3c8,10,0,1,null,null,null,37,1,1761.8999999761581,10,1,practice,NA,NA,NA,NA,NA,NA,NA,NA,NA,NA
audio-instructions,71,819505,0.0-5.4-6.4,voc_e2,12049,"[{""event"":""fullscreenenter"",""trial"":1,""time"":4300}]",NA,3114.899999976158,static/audio/instructions6.wav,NA,0,NA,NA,NA,NA,NA,NA,NA,NA,NA,NA,NA,NA,NA,NA,NA,NA,NA,NA,NA,NA,NA,NA,NA,NA,NA
audio-instructions,72,840241,0.0-5.4-7.4,voc_e2,12049,"[{""event"":""fullscreenenter"",""trial"":1,""time"":4300}]",NA,1541.2000000476835,static/audio/instructions7.wav,NA,0,NA,NA,NA,NA,NA,NA,NA,NA,NA,NA,NA,NA,NA,NA,NA,NA,NA,NA,NA,NA,NA,NA,NA,NA,NA
audio-instructions,73,852905,0.0-5.4-8.4,voc_e2,12049,"[{""event"":""fullscreenenter"",""trial"":1,""time"":4300}]",NA,3185.099999964237,static/audio/instructions8.wav,NA,0,NA,NA,NA,NA,NA,NA,NA,NA,NA,NA,NA,NA,NA,NA,NA,NA,NA,NA,NA,NA,NA,NA,NA,NA,NA
fcp-comprehension,74,859858,0.0-5.4-9.4,voc_e2,12049,"[{""event"":""fullscreenenter"",""trial"":1,""time"":4300}]",NA,6951.399999976158,NA,NA,NA,NA,NA,NA,NA,NA,NA,NA,NA,NA,NA,NA,NA,NA,NA,NA,"true,true",0,NA,NA,NA,NA,NA,NA,NA,NA
audio-instructions,75,869872,0.0-6.0-0.0,voc_e2,12049,"[{""event"":""fullscreenenter"",""trial"":1,""time"":4300}]",NA,4463.100000023842,static/audio/instructions9.wav,NA,0,NA,NA,NA,NA,NA,NA,NA,NA,NA,NA,NA,NA,NA,NA,NA,NA,NA,NA,NA,NA,NA,NA,NA,NA,NA
audio-instructions,76,885508,0.0-6.0-1.0,voc_e2,12049,"[{""event"":""fullscreenenter"",""trial"":1,""time"":4300}]",NA,3517.600000023842,static/audio/instructions10.wav,NA,0,NA,NA,NA,NA,NA,NA,NA,NA,NA,NA,NA,NA,NA,NA,NA,NA,NA,NA,NA,NA,NA,NA,NA,NA,NA
fcp-trial,77,897628,0.0-6.0-2.0,voc_e2,12049,"[{""event"":""fullscreenenter"",""trial"":1,""time"":4300}]",NA,NA,NA,NA,NA,0,#EDC948,#46d3c8,10,10,1,38,1,8361.800000011921,39,0,2229.600000023842,10,0,practice,NA,NA,NA,NA,NA,NA,NA,NA,NA,NA
audio-instructions,78,912529,0.0-6.0-3.0,voc_e2,12049,"[{""event"":""fullscreenenter"",""trial"":1,""time"":4300}]",NA,3889.5,static/audio/instructions11.wav,NA,0,NA,NA,NA,NA,NA,NA,NA,NA,NA,NA,NA,NA,NA,NA,NA,NA,NA,NA,NA,NA,NA,NA,NA,NA,NA
fcp-trial,79,919120,0.0-6.0-4.0,voc_e2,12049,"[{""event"":""fullscreenenter"",""trial"":1,""time"":4300}]",NA,NA,NA,NA,NA,6,#EDC948,#46d3c8,10,10,1,40,0,2858.7000000476837,37,1,2220.600000023842,10,1,practice,NA,NA,NA,NA,NA,NA,NA,NA,NA,NA
audio-instructions,80,943249,0.0-6.0-5.0,voc_e2,12049,"[{""event"":""fullscreenenter"",""trial"":1,""time"":4300}]",NA,5439,static/audio/instructions12.wav,NA,0,NA,NA,NA,NA,NA,NA,NA,NA,NA,NA,NA,NA,NA,NA,NA,NA,NA,NA,NA,NA,NA,NA,NA,NA,NA
audio-instructions,81,952563,0.0-6.0-6.0,voc_e2,12049,"[{""event"":""fullscreenenter"",""trial"":1,""time"":4300}]",NA,1713,static/audio/instructions13.wav,NA,0,NA,NA,NA,NA,NA,NA,NA,NA,NA,NA,NA,NA,NA,NA,NA,NA,NA,NA,NA,NA,NA,NA,NA,NA,NA
audio-instructions,82,967000,0.0-6.0-7.0,voc_e2,12049,"[{""event"":""fullscreenenter"",""trial"":1,""time"":4300}]",NA,5990.899999976158,static/audio/instructions14.wav,NA,0,NA,NA,NA,NA,NA,NA,NA,NA,NA,NA,NA,NA,NA,NA,NA,NA,NA,NA,NA,NA,NA,NA,NA,NA,NA
audio-instructions,83,978473,0.0-7.0-0.0,voc_e2,12049,"[{""event"":""fullscreenenter"",""trial"":1,""time"":4300}]",NA,4553.899999976158,static/audio/instructions15.wav,NA,0,NA,NA,NA,NA,NA,NA,NA,NA,NA,NA,NA,NA,NA,NA,NA,NA,NA,NA,NA,NA,NA,NA,NA,NA,NA
audio-instructions,84,988312,0.0-7.0-1.0,voc_e2,12049,"[{""event"":""fullscreenenter"",""trial"":1,""time"":4300}]",NA,3012.199999988079,static/audio/instructions16.wav,NA,0,NA,NA,NA,NA,NA,NA,NA,NA,NA,NA,NA,NA,NA,NA,NA,NA,NA,NA,NA,NA,NA,NA,NA,NA,NA
audio-instructions,85,997163,0.0-7.0-2.0,voc_e2,12049,"[{""event"":""fullscreenenter"",""trial"":1,""time"":4300}]",NA,1174.199999988079,static/audio/instructions17.wav,NA,0,NA,NA,NA,NA,NA,NA,NA,NA,NA,NA,NA,NA,NA,NA,NA,NA,NA,NA,NA,NA,NA,NA,NA,NA,NA
audio-instructions,86,1007624,0.0-7.0-3.0,voc_e2,12049,"[{""event"":""fullscreenenter"",""trial"":1,""time"":4300}]",NA,2694.899999976158,static/audio/instructions18.wav,NA,0,NA,NA,NA,NA,NA,NA,NA,NA,NA,NA,NA,NA,NA,NA,NA,NA,NA,NA,NA,NA,NA,NA,NA,NA,NA
audio-instructions,87,1016376,0.0-7.0-4.0,voc_e2,12049,"[{""event"":""fullscreenenter"",""trial"":1,""time"":4300}]",NA,2006.899999976158,static/audio/instructions19.wav,NA,0,NA,NA,NA,NA,NA,NA,NA,NA,NA,NA,NA,NA,NA,NA,NA,NA,NA,NA,NA,NA,NA,NA,NA,NA,NA
fcp-comprehension,88,1041534,0.0-7.0-5.0,voc_e2,12049,"[{""event"":""fullscreenenter"",""trial"":1,""time"":4300}]",NA,25155.60000002384,NA,NA,NA,NA,NA,NA,NA,NA,NA,NA,NA,NA,NA,NA,NA,NA,NA,NA,"true,false,false,true",1,NA,NA,NA,NA,NA,NA,NA,NA
audio-instructions,89,1052072,0.0-7.1-0.1,voc_e2,12049,"[{""event"":""fullscreenenter"",""trial"":1,""time"":4300}]",NA,3622.799999952316,static/audio/instructions15.wav,NA,0,NA,NA,NA,NA,NA,NA,NA,NA,NA,NA,NA,NA,NA,NA,NA,NA,NA,NA,NA,NA,NA,NA,NA,NA,NA
audio-instructions,90,1059986,0.0-7.1-1.1,voc_e2,12049,"[{""event"":""fullscreenenter"",""trial"":1,""time"":4300}]",NA,1086.5,static/audio/instructions16.wav,NA,0,NA,NA,NA,NA,NA,NA,NA,NA,NA,NA,NA,NA,NA,NA,NA,NA,NA,NA,NA,NA,NA,NA,NA,NA,NA
audio-instructions,91,1068961,0.0-7.1-2.1,voc_e2,12049,"[{""event"":""fullscreenenter"",""trial"":1,""time"":4300}]",NA,1302.199999988079,static/audio/instructions17.wav,NA,0,NA,NA,NA,NA,NA,NA,NA,NA,NA,NA,NA,NA,NA,NA,NA,NA,NA,NA,NA,NA,NA,NA,NA,NA,NA
audio-instructions,92,1077304,0.0-7.1-3.1,voc_e2,12049,"[{""event"":""fullscreenenter"",""trial"":1,""time"":4300}]",NA,575.8000000119209,static/audio/instructions18.wav,NA,0,NA,NA,NA,NA,NA,NA,NA,NA,NA,NA,NA,NA,NA,NA,NA,NA,NA,NA,NA,NA,NA,NA,NA,NA,NA
audio-instructions,93,1084784,0.0-7.1-4.1,voc_e2,12049,"[{""event"":""fullscreenenter"",""trial"":1,""time"":4300}]",NA,734.7999999523163,static/audio/instructions19.wav,NA,0,NA,NA,NA,NA,NA,NA,NA,NA,NA,NA,NA,NA,NA,NA,NA,NA,NA,NA,NA,NA,NA,NA,NA,NA,NA
fcp-comprehension,94,1100628,0.0-7.1-5.1,voc_e2,12049,"[{""event"":""fullscreenenter"",""trial"":1,""time"":4300}]",NA,15842.19999998808,NA,NA,NA,NA,NA,NA,NA,NA,NA,NA,NA,NA,NA,NA,NA,NA,NA,NA,"false,false,false,true",0,NA,NA,NA,NA,NA,NA,NA,NA
audio-instructions,95,1113983,0.0-8.0,voc_e2,12049,"[{""event"":""fullscreenenter"",""trial"":1,""time"":4300}]",NA,4135.600000023842,static/audio/ready.wav,NA,0,NA,NA,NA,NA,NA,NA,NA,NA,NA,NA,NA,NA,NA,NA,NA,NA,NA,NA,NA,NA,NA,NA,NA,NA,NA
fcp-trial,96,1122087,0.0-9.0-0.0,voc_e2,12049,"[{""event"":""fullscreenenter"",""trial"":1,""time"":4300}]",NA,NA,NA,NA,NA,1,#3386FF,#D89F1C,10,0,0,40,0,5363.700000047684,37,1,1227.0999999642372,10,0,experiment,NA,NA,2,0.5,0.5,5,4,1,1,NA
fcp-trial,97,1125705,0.0-10.0-0.0,voc_e2,12049,"[{""event"":""fullscreenenter"",""trial"":1,""time"":4300}]",NA,NA,NA,NA,NA,3,#1CD855,#FA92F8,0,0,1,40,0,1234.7999999523163,37,1,862.8000000119209,0,1,experiment,NA,NA,0,0.9,0.1,0,1,2,1,NA
fcp-trial,98,1128989,0.0-11.0-0.0,voc_e2,12049,"[{""event"":""fullscreenenter"",""trial"":1,""time"":4300}]",NA,NA,NA,NA,NA,0,#741CD8,#D8271C,10,0,0,40,0,971.6000000238419,37,1,790.5,10,0,experiment,NA,NA,1,0.3,0.7,3,2,3,1,NA
fcp-trial,99,1134356,0.0-12.0-0.0,voc_e2,12049,"[{""event"":""fullscreenenter"",""trial"":1,""time"":4300}]",NA,NA,NA,NA,NA,5,#FA92F8,#1CD855,0,10,0,38,1,2693.900000035763,39,0,1153.1000000238419,10,1,experiment,NA,NA,0,0.1,0.9,1,0,4,1,NA
fcp-trial,100,1138844,0.0-13.0-0.0,voc_e2,12049,"[{""event"":""fullscreenenter"",""trial"":1,""time"":4300}]",NA,NA,NA,NA,NA,6,#D89F1C,#3386FF,0,0,1,40,0,1159.300000011921,39,0,1805.1000000238419,0,0,experiment,NA,NA,2,0.5,0.5,4,5,5,1,NA
fcp-trial,101,1142829,0.0-14.0-0.0,voc_e2,12049,"[{""event"":""fullscreenenter"",""trial"":1,""time"":4300}]",NA,NA,NA,NA,NA,6,#FA92F8,#1CD855,0,10,0,40,0,1428.300000011921,37,1,1048,0,0,experiment,NA,NA,0,0.1,0.9,1,0,6,1,NA
fcp-trial,102,1149676,0.0-15.0-0.0,voc_e2,12049,"[{""event"":""fullscreenenter"",""trial"":1,""time"":4300}]",NA,NA,NA,NA,NA,6,#D8271C,#741CD8,0,0,1,40,0,976.7999999523163,37,1,4359.800000011921,0,1,experiment,NA,NA,1,0.7,0.3,2,3,7,1,NA
fcp-trial,103,1157006,0.0-16.0-0.0,voc_e2,12049,"[{""event"":""fullscreenenter"",""trial"":1,""time"":4300}]",NA,NA,NA,NA,NA,2,#D8271C,#741CD8,0,10,1,40,0,3132.399999976158,39,0,2687.800000011921,10,0,experiment,NA,NA,1,0.7,0.3,2,3,8,1,NA
fcp-trial,104,1163573,0.0-17.0-0.0,voc_e2,12049,"[{""event"":""fullscreenenter"",""trial"":1,""time"":4300}]",NA,NA,NA,NA,NA,4,#1CD855,#FA92F8,10,0,1,40,0,2974.5,37,1,2085.599999964237,10,1,experiment,NA,NA,0,0.9,0.1,0,1,9,1,NA
fcp-trial,105,1167749,0.0-18.0-0.0,voc_e2,12049,"[{""event"":""fullscreenenter"",""trial"":1,""time"":4300}]",NA,NA,NA,NA,NA,5,#D89F1C,#3386FF,0,10,1,40,0,1303.1000000238419,39,0,1366,10,0,experiment,NA,NA,2,0.5,0.5,4,5,10,1,NA
fcp-trial,106,1172108,0.0-19.0-0.0,voc_e2,12049,"[{""event"":""fullscreenenter"",""trial"":1,""time"":4300}]",NA,NA,NA,NA,NA,3,#D89F1C,#3386FF,0,0,1,40,0,1070.3999999761581,37,1,1783.5,0,1,experiment,NA,NA,2,0.5,0.5,4,5,11,1,NA
fcp-trial,107,1178085,0.0-20.0-0.0,voc_e2,12049,"[{""event"":""fullscreenenter"",""trial"":1,""time"":4300}]",NA,NA,NA,NA,NA,2,#3386FF,#D89F1C,10,10,0,38,1,2359.7000000476837,37,1,2112.399999976158,10,0,experiment,NA,NA,2,0.5,0.5,5,4,12,1,NA
fcp-trial,108,1183340,0.0-21.0-0.0,voc_e2,12049,"[{""event"":""fullscreenenter"",""trial"":1,""time"":4300}]",NA,NA,NA,NA,NA,1,#D8271C,#741CD8,10,10,1,38,1,2246.199999988079,39,0,1499.5,10,0,experiment,NA,NA,1,0.7,0.3,2,3,13,1,NA
fcp-trial,109,1186628,0.0-22.0-0.0,voc_e2,12049,"[{""event"":""fullscreenenter"",""trial"":1,""time"":4300}]",NA,NA,NA,NA,NA,1,#FA92F8,#1CD855,0,10,0,38,1,712,37,1,1070.699999988079,0,0,experiment,NA,NA,0,0.1,0.9,1,0,14,1,NA
fcp-trial,110,1190484,0.0-23.0-0.0,voc_e2,12049,"[{""event"":""fullscreenenter"",""trial"":1,""time"":4300}]",NA,NA,NA,NA,NA,0,#D89F1C,#3386FF,10,0,1,38,1,1143.1000000238419,39,0,1208.1000000238419,0,0,experiment,NA,NA,2,0.5,0.5,4,5,15,1,NA
fcp-trial,111,1194347,0.0-24.0-0.0,voc_e2,12049,"[{""event"":""fullscreenenter"",""trial"":1,""time"":4300}]",NA,NA,NA,NA,NA,4,#741CD8,#D8271C,0,10,0,38,1,1647.9000000357628,37,1,710.2999999523163,0,0,experiment,NA,NA,1,0.3,0.7,3,2,16,1,NA
fcp-trial,112,1198332,0.0-25.0-0.0,voc_e2,12049,"[{""event"":""fullscreenenter"",""trial"":1,""time"":4300}]",NA,NA,NA,NA,NA,2,#1CD855,#FA92F8,10,10,1,38,1,1369.1000000238419,37,1,1111.6000000238419,10,1,experiment,NA,NA,0,0.9,0.1,0,1,17,1,NA
fcp-trial,113,1202940,0.0-26.0-0.0,voc_e2,12049,"[{""event"":""fullscreenenter"",""trial"":1,""time"":4300}]",NA,NA,NA,NA,NA,3,#D8271C,#741CD8,10,0,1,40,0,1833,39,0,1262.0999999642372,0,0,experiment,NA,NA,1,0.7,0.3,2,3,18,1,NA
fcp-trial,114,1206396,0.0-27.0-0.0,voc_e2,12049,"[{""event"":""fullscreenenter"",""trial"":1,""time"":4300}]",NA,NA,NA,NA,NA,0,#1CD855,#FA92F8,10,0,1,38,1,1097.800000011921,37,1,853.1999999880791,10,1,experiment,NA,NA,0,0.9,0.1,0,1,19,1,NA
fcp-trial,115,1209522,0.0-28.0-0.0,voc_e2,12049,"[{""event"":""fullscreenenter"",""trial"":1,""time"":4300}]",NA,NA,NA,NA,NA,4,#D89F1C,#3386FF,0,0,1,38,1,576.6999999880791,37,1,1041.2999999523163,0,1,experiment,NA,NA,2,0.5,0.5,4,5,20,1,NA
fcp-trial,116,1214069,0.0-29.0-0.0,voc_e2,12049,"[{""event"":""fullscreenenter"",""trial"":1,""time"":4300}]",NA,NA,NA,NA,NA,5,#741CD8,#D8271C,0,10,0,40,0,2018.199999988079,39,0,1022.2999999523163,10,1,experiment,NA,NA,1,0.3,0.7,3,2,21,1,NA
fcp-trial,117,1219822,0.0-30.0-0.0,voc_e2,12049,"[{""event"":""fullscreenenter"",""trial"":1,""time"":4300}]",NA,NA,NA,NA,NA,6,#1CD855,#FA92F8,10,0,1,40,0,2726.899999976158,37,1,1521,10,1,experiment,NA,NA,0,0.9,0.1,0,1,22,1,NA
fcp-trial,118,1225421,0.0-31.0-0.0,voc_e2,12049,"[{""event"":""fullscreenenter"",""trial"":1,""time"":4300}]",NA,NA,NA,NA,NA,2,#3386FF,#D89F1C,10,10,0,38,1,2126,37,1,1967.1000000238419,10,0,experiment,NA,NA,2,0.5,0.5,5,4,23,1,NA
fcp-trial,119,1229261,0.0-32.0-0.0,voc_e2,12049,"[{""event"":""fullscreenenter"",""trial"":1,""time"":4300}]",NA,NA,NA,NA,NA,5,#D89F1C,#3386FF,0,10,1,40,0,1613.9000000357628,39,0,719.1999999880791,10,0,experiment,NA,NA,2,0.5,0.5,4,5,24,1,NA
fcp-trial,120,1236469,0.0-33.0-0.0,voc_e2,12049,"[{""event"":""fullscreenenter"",""trial"":1,""time"":4300}]",NA,NA,NA,NA,NA,4,#D8271C,#741CD8,10,0,1,38,1,2726.699999988079,37,1,2975.400000035763,10,1,experiment,NA,NA,1,0.7,0.3,2,3,25,1,NA
fcp-trial,121,1240814,0.0-34.0-0.0,voc_e2,12049,"[{""event"":""fullscreenenter"",""trial"":1,""time"":4300}]",NA,NA,NA,NA,NA,2,#1CD855,#FA92F8,10,0,1,38,1,1899.699999988079,39,0,938,0,0,experiment,NA,NA,0,0.9,0.1,0,1,26,1,NA
fcp-trial,122,1246534,0.0-35.0-0.0,voc_e2,12049,"[{""event"":""fullscreenenter"",""trial"":1,""time"":4300}]",NA,NA,NA,NA,NA,1,#D8271C,#741CD8,10,10,1,38,1,1303.699999988079,39,0,2908.099999964237,10,0,experiment,NA,NA,1,0.7,0.3,2,3,27,1,NA
fcp-trial,123,1250931,0.0-36.0-0.0,voc_e2,12049,"[{""event"":""fullscreenenter"",""trial"":1,""time"":4300}]",NA,NA,NA,NA,NA,2,#D8271C,#741CD8,10,0,1,38,1,1861.1000000238419,39,0,1032.300000011921,0,0,experiment,NA,NA,1,0.7,0.3,2,3,28,1,NA
fcp-trial,124,1257757,0.0-37.0-0.0,voc_e2,12049,"[{""event"":""fullscreenenter"",""trial"":1,""time"":4300}]",NA,NA,NA,NA,NA,1,#D89F1C,#3386FF,0,10,1,38,1,3994.199999988079,39,0,1325.5999999642372,10,0,experiment,NA,NA,2,0.5,0.5,4,5,29,1,NA
fcp-trial,125,1266084,0.0-38.0-0.0,voc_e2,12049,"[{""event"":""fullscreenenter"",""trial"":1,""time"":4300}]",NA,NA,NA,NA,NA,0,#741CD8,#D8271C,0,10,0,38,1,5886.099999964237,37,1,935.2000000476837,0,0,experiment,NA,NA,1,0.3,0.7,3,2,30,1,NA
fcp-trial,126,1272316,0.0-39.0-0.0,voc_e2,12049,"[{""event"":""fullscreenenter"",""trial"":1,""time"":4300}]",NA,NA,NA,NA,NA,0,#FA92F8,#1CD855,0,10,0,38,1,3752,37,1,976.2999999523163,0,0,experiment,NA,NA,0,0.1,0.9,1,0,31,1,NA
fcp-trial,127,1275867,0.0-40.0-0.0,voc_e2,12049,"[{""event"":""fullscreenenter"",""trial"":1,""time"":4300}]",NA,NA,NA,NA,NA,4,#3386FF,#D89F1C,10,10,0,38,1,1384.699999988079,39,0,662.6999999880791,10,1,experiment,NA,NA,2,0.5,0.5,5,4,32,1,NA
fcp-trial,128,1279860,0.0-41.0-0.0,voc_e2,12049,"[{""event"":""fullscreenenter"",""trial"":1,""time"":4300}]",NA,NA,NA,NA,NA,6,#D8271C,#741CD8,10,0,1,40,0,1431,37,1,1056.699999988079,10,1,experiment,NA,NA,1,0.7,0.3,2,3,33,1,NA
fcp-trial,129,1283650,0.0-42.0-0.0,voc_e2,12049,"[{""event"":""fullscreenenter"",""trial"":1,""time"":4300}]",NA,NA,NA,NA,NA,3,#1CD855,#FA92F8,10,0,1,38,1,1566.5,39,0,715.8000000119209,0,0,experiment,NA,NA,0,0.9,0.1,0,1,34,1,NA
fcp-trial,130,1291635,0.0-43.0-0.0,voc_e2,12049,"[{""event"":""fullscreenenter"",""trial"":1,""time"":4300}]",NA,NA,NA,NA,NA,5,#D8271C,#741CD8,10,10,1,40,0,4696.400000035763,37,1,1780.2000000476837,10,1,experiment,NA,NA,1,0.7,0.3,2,3,35,1,NA
fcp-trial,131,1297796,0.0-44.0-0.0,voc_e2,12049,"[{""event"":""fullscreenenter"",""trial"":1,""time"":4300}]",NA,NA,NA,NA,NA,4,#FA92F8,#1CD855,0,10,0,38,1,4297.799999952316,39,0,357.60000002384186,10,1,experiment,NA,NA,0,0.1,0.9,1,0,36,1,NA
fcp-trial,132,1305374,0.0-45.0-0.0,voc_e2,12049,"[{""event"":""fullscreenenter"",""trial"":1,""time"":4300}]",NA,NA,NA,NA,NA,3,#3386FF,#D89F1C,0,10,0,40,0,4950.5,37,1,1122.6000000238419,0,0,experiment,NA,NA,2,0.5,0.5,5,4,37,1,NA
fcp-trial,133,1313438,0.0-46.0-0.0,voc_e2,12049,"[{""event"":""fullscreenenter"",""trial"":1,""time"":4300}]",NA,NA,NA,NA,NA,0,#D89F1C,#3386FF,0,0,1,38,1,6061.300000011921,39,0,498,0,0,experiment,NA,NA,2,0.5,0.5,4,5,38,1,NA
fcp-trial,134,1325981,0.0-47.0-0.0,voc_e2,12049,"[{""event"":""fullscreenenter"",""trial"":1,""time"":4300}]",NA,NA,NA,NA,NA,3,#D8271C,#741CD8,0,0,1,40,0,9507.399999976158,39,0,1527.8999999761581,0,0,experiment,NA,NA,1,0.7,0.3,2,3,39,1,NA
fcp-trial,135,1332149,0.0-48.0-0.0,voc_e2,12049,"[{""event"":""fullscreenenter"",""trial"":1,""time"":4300}]",NA,NA,NA,NA,NA,5,#1CD855,#FA92F8,10,10,1,40,0,2220.800000011921,37,1,2440.899999976158,10,1,experiment,NA,NA,0,0.9,0.1,0,1,40,1,NA
fcp-trial,136,1337627,0.0-49.0-0.0,voc_e2,12049,"[{""event"":""fullscreenenter"",""trial"":1,""time"":4300}]",NA,NA,NA,NA,NA,1,#1CD855,#FA92F8,10,0,1,38,1,3246.199999988079,39,0,727.1999999880791,0,0,experiment,NA,NA,0,0.9,0.1,0,1,41,1,NA
fcp-trial,137,1342355,0.0-50.0-0.0,voc_e2,12049,"[{""event"":""fullscreenenter"",""trial"":1,""time"":4300}]",NA,NA,NA,NA,NA,6,#3386FF,#D89F1C,10,10,0,40,0,2182.699999988079,37,1,1030.699999988079,10,0,experiment,NA,NA,2,0.5,0.5,5,4,42,1,NA
fcp-trial,138,1346894,0.0-51.0-0.0,voc_e2,12049,"[{""event"":""fullscreenenter"",""trial"":1,""time"":4300}]",NA,NA,NA,NA,NA,5,#D89F1C,#3386FF,10,0,1,40,0,2214.5,39,0,818.5,0,0,experiment,NA,NA,2,0.5,0.5,4,5,43,1,NA
fcp-trial,139,1353274,0.0-52.0-0.0,voc_e2,12049,"[{""event"":""fullscreenenter"",""trial"":1,""time"":4300}]",NA,NA,NA,NA,NA,3,#741CD8,#D8271C,0,10,0,40,0,2582.300000011921,37,1,2293.800000011921,0,0,experiment,NA,NA,1,0.3,0.7,3,2,44,1,NA
fcp-trial,140,1359938,0.0-53.0-0.0,voc_e2,12049,"[{""event"":""fullscreenenter"",""trial"":1,""time"":4300}]",NA,NA,NA,NA,NA,3,#FA92F8,#1CD855,0,10,0,38,1,3224,39,0,1934.9000000357628,10,1,experiment,NA,NA,0,0.1,0.9,1,0,45,1,NA
fcp-trial,141,1365188,0.0-54.0-0.0,voc_e2,12049,"[{""event"":""fullscreenenter"",""trial"":1,""time"":4300}]",NA,NA,NA,NA,NA,2,#741CD8,#D8271C,10,0,0,38,1,3088,39,0,651.6999999880791,0,1,experiment,NA,NA,1,0.3,0.7,3,2,46,2,NA
fcp-trial,142,1372204,0.0-55.0-0.0,voc_e2,12049,"[{""event"":""fullscreenenter"",""trial"":1,""time"":4300}]",NA,NA,NA,NA,NA,1,#1CD855,#FA92F8,10,0,1,38,1,4846.599999964237,37,1,663.2000000476837,10,1,experiment,NA,NA,0,0.9,0.1,0,1,47,2,NA
fcp-trial,143,1376758,0.0-56.0-0.0,voc_e2,12049,"[{""event"":""fullscreenenter"",""trial"":1,""time"":4300}]",NA,NA,NA,NA,NA,0,#3386FF,#D89F1C,10,10,0,38,1,2181.5,39,0,865,10,1,experiment,NA,NA,2,0.5,0.5,5,4,48,2,NA
fcp-trial,144,1383398,0.0-57.0-0.0,voc_e2,12049,"[{""event"":""fullscreenenter"",""trial"":1,""time"":4300}]",NA,NA,NA,NA,NA,0,#1CD855,#FA92F8,10,0,1,38,1,4691.899999976158,37,1,443.19999998807907,10,1,experiment,NA,NA,0,0.9,0.1,0,1,49,2,NA
fcp-trial,145,1387219,0.0-58.0-0.0,voc_e2,12049,"[{""event"":""fullscreenenter"",""trial"":1,""time"":4300}]",NA,NA,NA,NA,NA,1,#D89F1C,#3386FF,10,10,1,38,1,1979.8999999761581,37,1,335.2000000476837,10,1,experiment,NA,NA,2,0.5,0.5,4,5,50,2,NA
fcp-trial,146,1390293,0.0-59.0-0.0,voc_e2,12049,"[{""event"":""fullscreenenter"",""trial"":1,""time"":4300}]",NA,NA,NA,NA,NA,4,#D8271C,#741CD8,0,0,1,38,1,1289,37,1,274.10000002384186,0,1,experiment,NA,NA,1,0.7,0.3,2,3,51,2,NA
fcp-trial,147,1395771,0.0-60.0-0.0,voc_e2,12049,"[{""event"":""fullscreenenter"",""trial"":1,""time"":4300}]",NA,NA,NA,NA,NA,5,#741CD8,#D8271C,0,10,0,38,1,3349,39,0,620.8999999761581,10,1,experiment,NA,NA,1,0.3,0.7,3,2,52,2,NA
fcp-trial,148,1399309,0.0-61.0-0.0,voc_e2,12049,"[{""event"":""fullscreenenter"",""trial"":1,""time"":4300}]",NA,NA,NA,NA,NA,3,#3386FF,#D89F1C,0,10,0,38,1,1454.199999988079,39,0,577,10,1,experiment,NA,NA,2,0.5,0.5,5,4,53,2,NA
fcp-trial,149,1402796,0.0-62.0-0.0,voc_e2,12049,"[{""event"":""fullscreenenter"",""trial"":1,""time"":4300}]",NA,NA,NA,NA,NA,6,#FA92F8,#1CD855,10,10,0,38,1,1504.2999999523163,39,0,478.60000002384186,10,1,experiment,NA,NA,0,0.1,0.9,1,0,54,2,NA
fcp-trial,150,1406202,0.0-63.0-0.0,voc_e2,12049,"[{""event"":""fullscreenenter"",""trial"":1,""time"":4300}]",NA,NA,NA,NA,NA,0,#D8271C,#741CD8,10,10,1,38,1,1539.9000000357628,37,1,358.39999997615814,10,1,experiment,NA,NA,1,0.7,0.3,2,3,55,2,NA
fcp-trial,151,1410618,0.0-64.0-0.0,voc_e2,12049,"[{""event"":""fullscreenenter"",""trial"":1,""time"":4300}]",NA,NA,NA,NA,NA,4,#D89F1C,#3386FF,10,10,1,38,1,2584.599999964237,37,1,326.80000001192093,10,1,experiment,NA,NA,2,0.5,0.5,4,5,56,2,NA
fcp-trial,152,1414138,0.0-65.0-0.0,voc_e2,12049,"[{""event"":""fullscreenenter"",""trial"":1,""time"":4300}]",NA,NA,NA,NA,NA,4,#FA92F8,#1CD855,0,10,0,38,1,1688.800000011921,39,0,327.5,10,1,experiment,NA,NA,0,0.1,0.9,1,0,57,2,NA
fcp-trial,153,1417699,0.0-66.0-0.0,voc_e2,12049,"[{""event"":""fullscreenenter"",""trial"":1,""time"":4300}]",NA,NA,NA,NA,NA,2,#D89F1C,#3386FF,0,10,1,38,1,1738.699999988079,37,1,317.10000002384186,0,1,experiment,NA,NA,2,0.5,0.5,4,5,58,2,NA
fcp-trial,154,1420670,0.0-67.0-0.0,voc_e2,12049,"[{""event"":""fullscreenenter"",""trial"":1,""time"":4300}]",NA,NA,NA,NA,NA,6,#D89F1C,#3386FF,0,10,1,38,1,1206.199999988079,37,1,257.10000002384186,0,1,experiment,NA,NA,2,0.5,0.5,4,5,59,2,NA
fcp-trial,155,1423596,0.0-68.0-0.0,voc_e2,12049,"[{""event"":""fullscreenenter"",""trial"":1,""time"":4300}]",NA,NA,NA,NA,NA,1,#D8271C,#741CD8,10,0,1,38,1,1157.4000000357628,37,1,262.69999998807907,10,1,experiment,NA,NA,1,0.7,0.3,2,3,60,2,NA
fcp-trial,156,1427171,0.0-69.0-0.0,voc_e2,12049,"[{""event"":""fullscreenenter"",""trial"":1,""time"":4300}]",NA,NA,NA,NA,NA,2,#1CD855,#FA92F8,10,0,1,38,1,1607.8999999761581,37,1,460,10,1,experiment,NA,NA,0,0.9,0.1,0,1,61,2,NA
fcp-trial,157,1430116,0.0-70.0-0.0,voc_e2,12049,"[{""event"":""fullscreenenter"",""trial"":1,""time"":4300}]",NA,NA,NA,NA,NA,6,#D8271C,#741CD8,0,10,1,38,1,1102.7999999523163,37,1,336.2000000476837,0,1,experiment,NA,NA,1,0.7,0.3,2,3,62,2,NA
fcp-trial,158,1433452,0.0-71.0-0.0,voc_e2,12049,"[{""event"":""fullscreenenter"",""trial"":1,""time"":4300}]",NA,NA,NA,NA,NA,5,#FA92F8,#1CD855,0,10,0,38,1,1430.300000011921,39,0,398.5999999642372,10,1,experiment,NA,NA,0,0.1,0.9,1,0,63,2,NA
fcp-trial,159,1436284,0.0-72.0-0.0,voc_e2,12049,"[{""event"":""fullscreenenter"",""trial"":1,""time"":4300}]",NA,NA,NA,NA,NA,0,#FA92F8,#1CD855,0,10,0,38,1,950.5999999642372,39,0,376.0999999642372,10,1,experiment,NA,NA,0,0.1,0.9,1,0,64,2,NA
fcp-trial,160,1439458,0.0-73.0-0.0,voc_e2,12049,"[{""event"":""fullscreenenter"",""trial"":1,""time"":4300}]",NA,NA,NA,NA,NA,4,#3386FF,#D89F1C,10,0,0,38,1,1255.3999999761581,39,0,415.39999997615814,0,1,experiment,NA,NA,2,0.5,0.5,5,4,65,2,NA
fcp-trial,161,1442939,0.0-74.0-0.0,voc_e2,12049,"[{""event"":""fullscreenenter"",""trial"":1,""time"":4300}]",NA,NA,NA,NA,NA,6,#D8271C,#741CD8,10,0,1,38,1,1622.5,37,1,351.7999999523163,10,1,experiment,NA,NA,1,0.7,0.3,2,3,66,2,NA
fcp-trial,162,1446796,0.0-75.0-0.0,voc_e2,12049,"[{""event"":""fullscreenenter"",""trial"":1,""time"":4300}]",NA,NA,NA,NA,NA,0,#3386FF,#D89F1C,10,10,0,38,1,2037.5,39,0,312.39999997615814,10,1,experiment,NA,NA,2,0.5,0.5,5,4,67,2,NA
fcp-trial,163,1449817,0.0-76.0-0.0,voc_e2,12049,"[{""event"":""fullscreenenter"",""trial"":1,""time"":4300}]",NA,NA,NA,NA,NA,2,#D8271C,#741CD8,0,10,1,38,1,1183.1000000238419,37,1,333.0999999642372,0,1,experiment,NA,NA,1,0.7,0.3,2,3,68,2,NA
fcp-trial,164,1453011,0.0-77.0-0.0,voc_e2,12049,"[{""event"":""fullscreenenter"",""trial"":1,""time"":4300}]",NA,NA,NA,NA,NA,6,#1CD855,#FA92F8,10,0,1,38,1,1165.9000000357628,37,1,520.5,10,1,experiment,NA,NA,0,0.9,0.1,0,1,69,2,NA
fcp-trial,165,1457981,0.0-78.0-0.0,voc_e2,12049,"[{""event"":""fullscreenenter"",""trial"":1,""time"":4300}]",NA,NA,NA,NA,NA,5,#D89F1C,#3386FF,0,10,1,38,1,3116.100000023842,37,1,347,0,1,experiment,NA,NA,2,0.5,0.5,4,5,70,2,NA
fcp-trial,166,1465185,0.0-79.0-0.0,voc_e2,12049,"[{""event"":""fullscreenenter"",""trial"":1,""time"":4300}]",NA,NA,NA,NA,NA,1,#D89F1C,#3386FF,0,0,1,38,1,896.5,37,1,4800.399999976158,0,1,experiment,NA,NA,2,0.5,0.5,4,5,71,2,NA
fcp-trial,167,1469825,0.0-80.0-0.0,voc_e2,12049,"[{""event"":""fullscreenenter"",""trial"":1,""time"":4300}]",NA,NA,NA,NA,NA,3,#741CD8,#D8271C,0,10,0,38,1,1137,39,0,1997.0999999642372,10,1,experiment,NA,NA,1,0.3,0.7,3,2,72,2,NA
fcp-trial,168,1472593,0.0-81.0-0.0,voc_e2,12049,"[{""event"":""fullscreenenter"",""trial"":1,""time"":4300}]",NA,NA,NA,NA,NA,0,#741CD8,#D8271C,10,10,0,38,1,911.8999999761581,39,0,350.39999997615814,10,1,experiment,NA,NA,1,0.3,0.7,3,2,73,2,NA
fcp-trial,169,1475682,0.0-82.0-0.0,voc_e2,12049,"[{""event"":""fullscreenenter"",""trial"":1,""time"":4300}]",NA,NA,NA,NA,NA,2,#FA92F8,#1CD855,0,10,0,38,1,1209.300000011921,39,0,370.4000000357628,10,1,experiment,NA,NA,0,0.1,0.9,1,0,74,2,NA
fcp-trial,170,1478994,0.0-83.0-0.0,voc_e2,12049,"[{""event"":""fullscreenenter"",""trial"":1,""time"":4300}]",NA,NA,NA,NA,NA,5,#1CD855,#FA92F8,0,0,1,38,1,1486.199999988079,37,1,319.0999999642372,0,1,experiment,NA,NA,0,0.9,0.1,0,1,75,2,NA
fcp-trial,171,1482022,0.0-84.0-0.0,voc_e2,12049,"[{""event"":""fullscreenenter"",""trial"":1,""time"":4300}]",NA,NA,NA,NA,NA,2,#3386FF,#D89F1C,10,0,0,38,1,1237.300000011921,39,0,283.69999998807907,0,1,experiment,NA,NA,2,0.5,0.5,5,4,76,2,NA
fcp-trial,172,1484971,0.0-85.0-0.0,voc_e2,12049,"[{""event"":""fullscreenenter"",""trial"":1,""time"":4300}]",NA,NA,NA,NA,NA,3,#3386FF,#D89F1C,0,0,0,38,1,1154.5,39,0,286.10000002384186,0,1,experiment,NA,NA,2,0.5,0.5,5,4,77,2,NA
fcp-trial,173,1488258,0.0-86.0-0.0,voc_e2,12049,"[{""event"":""fullscreenenter"",""trial"":1,""time"":4300}]",NA,NA,NA,NA,NA,1,#741CD8,#D8271C,10,10,0,38,1,1463.699999988079,39,0,315.5,10,1,experiment,NA,NA,1,0.3,0.7,3,2,78,2,NA
fcp-trial,174,1491901,0.0-87.0-0.0,voc_e2,12049,"[{""event"":""fullscreenenter"",""trial"":1,""time"":4300}]",NA,NA,NA,NA,NA,3,#FA92F8,#1CD855,0,10,0,38,1,1551.0999999642372,39,0,575,10,1,experiment,NA,NA,0,0.1,0.9,1,0,79,2,NA
fcp-trial,175,1494705,0.0-88.0-0.0,voc_e2,12049,"[{""event"":""fullscreenenter"",""trial"":1,""time"":4300}]",NA,NA,NA,NA,NA,1,#1CD855,#FA92F8,10,0,1,38,1,1016.5999999642372,39,0,280.2000000476837,0,0,experiment,NA,NA,0,0.9,0.1,0,1,80,2,NA
fcp-trial,176,1500522,0.0-89.0-0.0,voc_e2,12049,"[{""event"":""fullscreenenter"",""trial"":1,""time"":4300}]",NA,NA,NA,NA,NA,6,#D89F1C,#3386FF,10,0,1,38,1,1261.1000000238419,37,1,3049.199999988079,10,1,experiment,NA,NA,2,0.5,0.5,4,5,81,2,NA
fcp-trial,177,1503936,0.0-90.0-0.0,voc_e2,12049,"[{""event"":""fullscreenenter"",""trial"":1,""time"":4300}]",NA,NA,NA,NA,NA,4,#D8271C,#741CD8,0,10,1,38,1,1509.5,37,1,397.80000001192093,0,1,experiment,NA,NA,1,0.7,0.3,2,3,82,2,NA
fcp-trial,178,1507850,0.0-91.0-0.0,voc_e2,12049,"[{""event"":""fullscreenenter"",""trial"":1,""time"":4300}]",NA,NA,NA,NA,NA,4,#1CD855,#FA92F8,10,0,1,38,1,2023.199999988079,37,1,382.4000000357628,10,1,experiment,NA,NA,0,0.9,0.1,0,1,83,2,NA
fcp-trial,179,1512124,0.0-92.0-0.0,voc_e2,12049,"[{""event"":""fullscreenenter"",""trial"":1,""time"":4300}]",NA,NA,NA,NA,NA,5,#741CD8,#D8271C,10,10,0,38,1,2444.699999988079,39,0,318.5,10,1,experiment,NA,NA,1,0.3,0.7,3,2,84,2,NA
fcp-trial,180,1515629,0.0-93.0-0.0,voc_e2,12049,"[{""event"":""fullscreenenter"",""trial"":1,""time"":4300}]",NA,NA,NA,NA,NA,2,#FA92F8,#1CD855,0,10,0,38,1,1707.5,39,0,285.7000000476837,10,1,experiment,NA,NA,0,0.1,0.9,1,0,85,2,NA
fcp-trial,181,1519074,0.0-94.0-0.0,voc_e2,12049,"[{""event"":""fullscreenenter"",""trial"":1,""time"":4300}]",NA,NA,NA,NA,NA,3,#D89F1C,#3386FF,0,0,1,38,1,1619.5,37,1,318.60000002384186,0,1,experiment,NA,NA,2,0.5,0.5,4,5,86,2,NA
fcp-trial,182,1522522,0.0-95.0-0.0,voc_e2,12049,"[{""event"":""fullscreenenter"",""trial"":1,""time"":4300}]",NA,NA,NA,NA,NA,4,#741CD8,#D8271C,0,10,0,38,1,1575.7999999523163,39,0,365.2000000476837,10,1,experiment,NA,NA,1,0.3,0.7,3,2,87,2,NA
fcp-trial,183,1525844,0.0-96.0-0.0,voc_e2,12049,"[{""event"":""fullscreenenter"",""trial"":1,""time"":4300}]",NA,NA,NA,NA,NA,2,#741CD8,#D8271C,0,0,0,38,1,1382.7000000476837,39,0,431.7999999523163,0,1,experiment,NA,NA,1,0.3,0.7,3,2,88,2,NA
fcp-trial,184,1528803,0.0-97.0-0.0,voc_e2,12049,"[{""event"":""fullscreenenter"",""trial"":1,""time"":4300}]",NA,NA,NA,NA,NA,0,#D8271C,#741CD8,10,0,1,38,1,1022.3000000119209,37,1,429.80000001192093,10,1,experiment,NA,NA,1,0.7,0.3,2,3,89,2,NA
fcp-trial,185,1532715,0.0-98.0-0.0,voc_e2,12049,"[{""event"":""fullscreenenter"",""trial"":1,""time"":4300}]",NA,NA,NA,NA,NA,6,#1CD855,#FA92F8,10,0,1,38,1,2048.100000023842,37,1,359.30000001192093,10,1,experiment,NA,NA,0,0.9,0.1,0,1,90,2,NA
fcp-trial,186,1537171,0.0-99.0-0.0,voc_e2,12049,"[{""event"":""fullscreenenter"",""trial"":1,""time"":4300}]",NA,NA,NA,NA,NA,5,#3386FF,#D89F1C,0,0,0,40,0,1000,37,1,1951.699999988079,0,0,experiment,NA,NA,2,0.5,0.5,5,4,91,3,NA
fcp-trial,187,1541132,0.0-100.0-0.0,voc_e2,12049,"[{""event"":""fullscreenenter"",""trial"":1,""time"":4300}]",NA,NA,NA,NA,NA,0,#FA92F8,#1CD855,0,10,0,38,1,2127.300000011921,39,0,328.80000001192093,10,1,experiment,NA,NA,0,0.1,0.9,1,0,92,3,NA
fcp-trial,188,1545467,0.0-101.0-0.0,voc_e2,12049,"[{""event"":""fullscreenenter"",""trial"":1,""time"":4300}]",NA,NA,NA,NA,NA,0,#D89F1C,#3386FF,10,0,1,38,1,974.0999999642372,37,1,1853.699999988079,10,1,experiment,NA,NA,2,0.5,0.5,4,5,93,3,NA
fcp-trial,189,1548315,0.0-102.0-0.0,voc_e2,12049,"[{""event"":""fullscreenenter"",""trial"":1,""time"":4300}]",NA,NA,NA,NA,NA,5,#D8271C,#741CD8,10,10,1,38,1,950.6999999880791,37,1,392.69999998807907,10,1,experiment,NA,NA,1,0.7,0.3,2,3,94,3,NA
fcp-trial,190,1551611,0.0-103.0-0.0,voc_e2,12049,"[{""event"":""fullscreenenter"",""trial"":1,""time"":4300}]",NA,NA,NA,NA,NA,1,#1CD855,#FA92F8,10,0,1,38,1,1383.5,37,1,404.89999997615814,10,1,experiment,NA,NA,0,0.9,0.1,0,1,95,3,NA
fcp-trial,191,1554906,0.0-104.0-0.0,voc_e2,12049,"[{""event"":""fullscreenenter"",""trial"":1,""time"":4300}]",NA,NA,NA,NA,NA,5,#1CD855,#FA92F8,0,0,1,38,1,1478.5999999642372,37,1,311,0,1,experiment,NA,NA,0,0.9,0.1,0,1,96,3,NA
fcp-trial,192,1558372,0.0-105.0-0.0,voc_e2,12049,"[{""event"":""fullscreenenter"",""trial"":1,""time"":4300}]",NA,NA,NA,NA,NA,6,#D89F1C,#3386FF,10,0,1,38,1,1616.7999999523163,37,1,343.80000001192093,10,1,experiment,NA,NA,2,0.5,0.5,4,5,97,3,NA
fcp-trial,193,1561515,0.0-106.0-0.0,voc_e2,12049,"[{""event"":""fullscreenenter"",""trial"":1,""time"":4300}]",NA,NA,NA,NA,NA,3,#741CD8,#D8271C,0,10,0,38,1,1308.3999999761581,39,0,326.5,10,1,experiment,NA,NA,1,0.3,0.7,3,2,98,3,NA
fcp-trial,194,1564514,0.0-107.0-0.0,voc_e2,12049,"[{""event"":""fullscreenenter"",""trial"":1,""time"":4300}]",NA,NA,NA,NA,NA,1,#D89F1C,#3386FF,10,10,1,38,1,1152.800000011921,37,1,338.60000002384186,10,1,experiment,NA,NA,2,0.5,0.5,4,5,99,3,NA
fcp-trial,195,1567261,0.0-108.0-0.0,voc_e2,12049,"[{""event"":""fullscreenenter"",""trial"":1,""time"":4300}]",NA,NA,NA,NA,NA,3,#FA92F8,#1CD855,0,10,0,38,1,918.8000000119209,39,0,322.5,10,1,experiment,NA,NA,0,0.1,0.9,1,0,100,3,NA
fcp-trial,196,1570107,0.0-109.0-0.0,voc_e2,12049,"[{""event"":""fullscreenenter"",""trial"":1,""time"":4300}]",NA,NA,NA,NA,NA,2,#3386FF,#D89F1C,0,0,0,38,1,915.8999999761581,39,0,423.89999997615814,0,1,experiment,NA,NA,2,0.5,0.5,5,4,101,3,NA
fcp-trial,197,1573022,0.0-110.0-0.0,voc_e2,12049,"[{""event"":""fullscreenenter"",""trial"":1,""time"":4300}]",NA,NA,NA,NA,NA,6,#D8271C,#741CD8,10,0,1,38,1,1002.0999999642372,37,1,396.7999999523163,10,1,experiment,NA,NA,1,0.7,0.3,2,3,102,3,NA
fcp-trial,198,1576345,0.0-111.0-0.0,voc_e2,12049,"[{""event"":""fullscreenenter"",""trial"":1,""time"":4300}]",NA,NA,NA,NA,NA,1,#D8271C,#741CD8,10,0,1,38,1,1457.6000000238419,37,1,358.60000002384186,10,1,experiment,NA,NA,1,0.7,0.3,2,3,103,3,NA
fcp-trial,199,1581434,0.0-112.0-0.0,voc_e2,12049,"[{""event"":""fullscreenenter"",""trial"":1,""time"":4300}]",NA,NA,NA,NA,NA,4,#1CD855,#FA92F8,10,0,1,38,1,2961.5,37,1,621.6999999880791,10,1,experiment,NA,NA,0,0.9,0.1,0,1,104,3,NA
fcp-trial,200,1586705,0.0-113.0-0.0,voc_e2,12049,"[{""event"":""fullscreenenter"",""trial"":1,""time"":4300}]",NA,NA,NA,NA,NA,4,#3386FF,#D89F1C,10,0,0,38,1,2312.2000000476837,39,0,1453.699999988079,0,1,experiment,NA,NA,2,0.5,0.5,5,4,105,3,NA
audio-instructions,201,1612650,0.0-114.0,voc_e2,12049,"[{""event"":""fullscreenenter"",""trial"":1,""time"":4300}]",NA,21218.89999997616,static/audio/pause.wav,NA,0,NA,NA,NA,NA,NA,NA,NA,NA,NA,NA,NA,NA,NA,NA,NA,NA,NA,NA,NA,NA,NA,NA,NA,NA,NA
fcp-trial,202,1619138,0.0-115.0-0.0,voc_e2,12049,"[{""event"":""fullscreenenter"",""trial"":1,""time"":4300}]",NA,NA,NA,NA,NA,1,#D89F1C,#3386FF,0,10,1,38,1,4206.399999976158,37,1,766.8999999761581,0,1,experiment,NA,NA,2,0.5,0.5,4,5,106,3,NA
fcp-trial,203,1622362,0.0-116.0-0.0,voc_e2,12049,"[{""event"":""fullscreenenter"",""trial"":1,""time"":4300}]",NA,NA,NA,NA,NA,3,#FA92F8,#1CD855,0,10,0,38,1,1266.0999999642372,39,0,439.69999998807907,10,1,experiment,NA,NA,0,0.1,0.9,1,0,107,3,NA
fcp-trial,204,1625305,0.0-117.0-0.0,voc_e2,12049,"[{""event"":""fullscreenenter"",""trial"":1,""time"":4300}]",NA,NA,NA,NA,NA,6,#3386FF,#D89F1C,10,10,0,38,1,1104.2999999523163,39,0,333.5999999642372,10,1,experiment,NA,NA,2,0.5,0.5,5,4,108,3,NA
fcp-trial,205,1628433,0.0-118.0-0.0,voc_e2,12049,"[{""event"":""fullscreenenter"",""trial"":1,""time"":4300}]",NA,NA,NA,NA,NA,1,#D8271C,#741CD8,10,10,1,38,1,1104.2000000476837,37,1,518.6999999880791,10,1,experiment,NA,NA,1,0.7,0.3,2,3,109,3,NA
fcp-trial,206,1631250,0.0-119.0-0.0,voc_e2,12049,"[{""event"":""fullscreenenter"",""trial"":1,""time"":4300}]",NA,NA,NA,NA,NA,2,#FA92F8,#1CD855,10,10,0,38,1,847.9000000357628,39,0,464,10,1,experiment,NA,NA,0,0.1,0.9,1,0,110,3,NA
fcp-trial,207,1635522,0.0-120.0-0.0,voc_e2,12049,"[{""event"":""fullscreenenter"",""trial"":1,""time"":4300}]",NA,NA,NA,NA,NA,3,#D89F1C,#3386FF,0,0,1,38,1,2504.7999999523163,37,1,260.39999997615814,0,1,experiment,NA,NA,2,0.5,0.5,4,5,111,3,NA
fcp-trial,208,1640276,0.0-121.0-0.0,voc_e2,12049,"[{""event"":""fullscreenenter"",""trial"":1,""time"":4300}]",NA,NA,NA,NA,NA,5,#D8271C,#741CD8,0,0,1,38,1,2943.899999976158,37,1,305.30000001192093,0,1,experiment,NA,NA,1,0.7,0.3,2,3,112,3,NA
fcp-trial,209,1643049,0.0-122.0-0.0,voc_e2,12049,"[{""event"":""fullscreenenter"",""trial"":1,""time"":4300}]",NA,NA,NA,NA,NA,3,#741CD8,#D8271C,10,10,0,38,1,933.1000000238419,39,0,335.19999998807907,10,1,experiment,NA,NA,1,0.3,0.7,3,2,113,3,NA
fcp-trial,210,1647349,0.0-123.0-0.0,voc_e2,12049,"[{""event"":""fullscreenenter"",""trial"":1,""time"":4300}]",NA,NA,NA,NA,NA,6,#741CD8,#D8271C,0,10,0,38,1,1152.300000011921,39,0,1642.8999999761581,10,1,experiment,NA,NA,1,0.3,0.7,3,2,114,3,NA
fcp-trial,211,1650690,0.0-124.0-0.0,voc_e2,12049,"[{""event"":""fullscreenenter"",""trial"":1,""time"":4300}]",NA,NA,NA,NA,NA,5,#FA92F8,#1CD855,0,10,0,38,1,1444.4000000357628,39,0,390.89999997615814,10,1,experiment,NA,NA,0,0.1,0.9,1,0,115,3,NA
fcp-trial,212,1654226,0.0-125.0-0.0,voc_e2,12049,"[{""event"":""fullscreenenter"",""trial"":1,""time"":4300}]",NA,NA,NA,NA,NA,2,#D89F1C,#3386FF,0,10,1,38,1,1408,39,0,623.3999999761581,10,0,experiment,NA,NA,2,0.5,0.5,4,5,116,3,NA
fcp-trial,213,1662363,0.0-126.0-0.0,voc_e2,12049,"[{""event"":""fullscreenenter"",""trial"":1,""time"":4300}]",NA,NA,NA,NA,NA,0,#D89F1C,#3386FF,0,10,1,38,1,3836.5,37,1,2790.699999988079,0,1,experiment,NA,NA,2,0.5,0.5,4,5,117,3,NA
fcp-trial,214,1666579,0.0-127.0-0.0,voc_e2,12049,"[{""event"":""fullscreenenter"",""trial"":1,""time"":4300}]",NA,NA,NA,NA,NA,4,#741CD8,#D8271C,0,0,0,40,0,1552.300000011921,37,1,1157.9000000357628,0,0,experiment,NA,NA,1,0.3,0.7,3,2,118,3,NA
fcp-trial,215,1671603,0.0-128.0-0.0,voc_e2,12049,"[{""event"":""fullscreenenter"",""trial"":1,""time"":4300}]",NA,NA,NA,NA,NA,6,#1CD855,#FA92F8,10,0,1,38,1,3146.699999988079,37,1,370.5,10,1,experiment,NA,NA,0,0.9,0.1,0,1,119,3,NA
fcp-trial,216,1675483,0.0-129.0-0.0,voc_e2,12049,"[{""event"":""fullscreenenter"",""trial"":1,""time"":4300}]",NA,NA,NA,NA,NA,2,#741CD8,#D8271C,0,0,0,38,1,2116.800000011921,39,0,256.10000002384186,0,1,experiment,NA,NA,1,0.3,0.7,3,2,120,3,NA
fcp-trial,217,1682356,0.0-130.0-0.0,voc_e2,12049,"[{""event"":""fullscreenenter"",""trial"":1,""time"":4300}]",NA,NA,NA,NA,NA,0,#FA92F8,#1CD855,10,10,0,38,1,4862.5,39,0,503.69999998807907,10,1,experiment,NA,NA,0,0.1,0.9,1,0,121,3,NA
fcp-trial,218,1686763,0.0-131.0-0.0,voc_e2,12049,"[{""event"":""fullscreenenter"",""trial"":1,""time"":4300}]",NA,NA,NA,NA,NA,5,#3386FF,#D89F1C,0,0,0,38,1,2333.199999988079,39,0,566.1000000238419,0,1,experiment,NA,NA,2,0.5,0.5,5,4,122,3,NA
fcp-trial,219,1689626,0.0-132.0-0.0,voc_e2,12049,"[{""event"":""fullscreenenter"",""trial"":1,""time"":4300}]",NA,NA,NA,NA,NA,4,#FA92F8,#1CD855,0,10,0,38,1,1054.9000000357628,39,0,301.69999998807907,10,1,experiment,NA,NA,0,0.1,0.9,1,0,123,3,NA
fcp-trial,220,1694026,0.0-133.0-0.0,voc_e2,12049,"[{""event"":""fullscreenenter"",""trial"":1,""time"":4300}]",NA,NA,NA,NA,NA,0,#741CD8,#D8271C,10,0,0,38,1,2313.5,39,0,582.4000000357628,0,1,experiment,NA,NA,1,0.3,0.7,3,2,124,3,NA
fcp-trial,221,1697322,0.0-134.0-0.0,voc_e2,12049,"[{""event"":""fullscreenenter"",""trial"":1,""time"":4300}]",NA,NA,NA,NA,NA,4,#D89F1C,#3386FF,0,10,1,38,1,1184.5,37,1,604,0,1,experiment,NA,NA,2,0.5,0.5,4,5,125,3,NA
fcp-trial,222,1701160,0.0-135.0-0.0,voc_e2,12049,"[{""event"":""fullscreenenter"",""trial"":1,""time"":4300}]",NA,NA,NA,NA,NA,1,#FA92F8,#1CD855,0,10,0,38,1,960.5999999642372,39,0,1363.4000000357628,10,1,experiment,NA,NA,0,0.1,0.9,1,0,126,3,NA
fcp-trial,223,1705754,0.0-136.0-0.0,voc_e2,12049,"[{""event"":""fullscreenenter"",""trial"":1,""time"":4300}]",NA,NA,NA,NA,NA,6,#741CD8,#D8271C,0,0,0,38,1,1930.0999999642372,39,0,1156.1000000238419,0,1,experiment,NA,NA,1,0.3,0.7,3,2,127,3,NA
fcp-trial,224,1711137,0.0-137.0-0.0,voc_e2,12049,"[{""event"":""fullscreenenter"",""trial"":1,""time"":4300}]",NA,NA,NA,NA,NA,4,#741CD8,#D8271C,0,10,0,38,1,3421.300000011921,39,0,455.69999998807907,10,1,experiment,NA,NA,1,0.3,0.7,3,2,128,3,NA
fcp-trial,225,1714633,0.0-138.0-0.0,voc_e2,12049,"[{""event"":""fullscreenenter"",""trial"":1,""time"":4300}]",NA,NA,NA,NA,NA,3,#FA92F8,#1CD855,0,10,0,38,1,1624.2000000476837,39,0,365.80000001192093,10,1,experiment,NA,NA,0,0.1,0.9,1,0,129,3,NA
fcp-trial,226,1718114,0.0-139.0-0.0,voc_e2,12049,"[{""event"":""fullscreenenter"",""trial"":1,""time"":4300}]",NA,NA,NA,NA,NA,1,#3386FF,#D89F1C,0,10,0,38,1,1599.199999988079,39,0,375.5,10,1,experiment,NA,NA,2,0.5,0.5,5,4,130,3,NA
fcp-trial,227,1722123,0.0-140.0-0.0,voc_e2,12049,"[{""event"":""fullscreenenter"",""trial"":1,""time"":4300}]",NA,NA,NA,NA,NA,2,#FA92F8,#1CD855,0,10,0,38,1,1662.5,39,0,837.4000000357628,10,1,experiment,NA,NA,0,0.1,0.9,1,0,131,3,NA
fcp-trial,228,1724826,0.0-141.0-0.0,voc_e2,12049,"[{""event"":""fullscreenenter"",""trial"":1,""time"":4300}]",NA,NA,NA,NA,NA,1,#741CD8,#D8271C,10,10,0,38,1,822.8999999761581,39,0,374.5999999642372,10,1,experiment,NA,NA,1,0.3,0.7,3,2,132,3,NA
fcp-trial,229,1727818,0.0-142.0-0.0,voc_e2,12049,"[{""event"":""fullscreenenter"",""trial"":1,""time"":4300}]",NA,NA,NA,NA,NA,0,#D89F1C,#3386FF,0,0,1,38,1,1167.1000000238419,37,1,317.5999999642372,0,1,experiment,NA,NA,2,0.5,0.5,4,5,133,3,NA
fcp-trial,230,1733650,0.0-143.0-0.0,voc_e2,12049,"[{""event"":""fullscreenenter"",""trial"":1,""time"":4300}]",NA,NA,NA,NA,NA,5,#FA92F8,#1CD855,0,10,0,40,0,2117.600000023842,39,0,2207.5,10,1,experiment,NA,NA,0,0.1,0.9,1,0,134,3,NA
fcp-trial,231,1738588,0.0-144.0-0.0,voc_e2,12049,"[{""event"":""fullscreenenter"",""trial"":1,""time"":4300}]",NA,NA,NA,NA,NA,5,#D89F1C,#3386FF,0,0,1,40,0,1821.800000011921,37,1,1607.6000000238419,0,1,experiment,NA,NA,2,0.5,0.5,4,5,135,3,NA
fcp-trial,232,1742777,0.0-145.0-0.0,voc_e2,12049,"[{""event"":""fullscreenenter"",""trial"":1,""time"":4300}]",NA,NA,NA,NA,NA,3,#D8271C,#741CD8,10,10,1,38,1,2245.7000000476837,37,1,437.5999999642372,10,1,experiment,NA,NA,1,0.7,0.3,2,3,136,4,NA
fcp-trial,233,1746145,0.0-146.0-0.0,voc_e2,12049,"[{""event"":""fullscreenenter"",""trial"":1,""time"":4300}]",NA,NA,NA,NA,NA,4,#3386FF,#D89F1C,0,0,0,38,1,1490.7000000476837,39,0,371.89999997615814,0,1,experiment,NA,NA,2,0.5,0.5,5,4,137,4,NA
fcp-trial,234,1749818,0.0-147.0-0.0,voc_e2,12049,"[{""event"":""fullscreenenter"",""trial"":1,""time"":4300}]",NA,NA,NA,NA,NA,4,#1CD855,#FA92F8,10,0,1,38,1,1826.1000000238419,37,1,341.7999999523163,10,1,experiment,NA,NA,0,0.9,0.1,0,1,138,4,NA
fcp-trial,235,1753393,0.0-148.0-0.0,voc_e2,12049,"[{""event"":""fullscreenenter"",""trial"":1,""time"":4300}]",NA,NA,NA,NA,NA,0,#741CD8,#D8271C,0,0,0,38,1,1540.699999988079,39,0,528.4000000357628,0,1,experiment,NA,NA,1,0.3,0.7,3,2,139,4,NA
fcp-trial,236,1757537,0.0-149.0-0.0,voc_e2,12049,"[{""event"":""fullscreenenter"",""trial"":1,""time"":4300}]",NA,NA,NA,NA,NA,6,#FA92F8,#1CD855,0,10,0,38,1,1200.9000000357628,39,0,1438.8999999761581,10,1,experiment,NA,NA,0,0.1,0.9,1,0,140,4,NA
fcp-trial,237,1763705,0.0-150.0-0.0,voc_e2,12049,"[{""event"":""fullscreenenter"",""trial"":1,""time"":4300}]",NA,NA,NA,NA,NA,3,#3386FF,#D89F1C,10,10,0,38,1,4285.799999952316,39,0,374,10,1,experiment,NA,NA,2,0.5,0.5,5,4,141,4,NA
fcp-trial,238,1767784,0.0-151.0-0.0,voc_e2,12049,"[{""event"":""fullscreenenter"",""trial"":1,""time"":4300}]",NA,NA,NA,NA,NA,5,#D8271C,#741CD8,0,10,1,38,1,1621.5999999642372,37,1,950.8000000119209,0,1,experiment,NA,NA,1,0.7,0.3,2,3,142,4,NA
fcp-trial,239,1770873,0.0-152.0-0.0,voc_e2,12049,"[{""event"":""fullscreenenter"",""trial"":1,""time"":4300}]",NA,NA,NA,NA,NA,1,#1CD855,#FA92F8,10,0,1,38,1,1119.699999988079,37,1,461,10,1,experiment,NA,NA,0,0.9,0.1,0,1,143,4,NA
fcp-trial,240,1774521,0.0-153.0-0.0,voc_e2,12049,"[{""event"":""fullscreenenter"",""trial"":1,""time"":4300}]",NA,NA,NA,NA,NA,6,#3386FF,#D89F1C,0,10,0,38,1,1398.300000011921,39,0,743.5,10,1,experiment,NA,NA,2,0.5,0.5,5,4,144,4,NA
fcp-trial,241,1778555,0.0-154.0-0.0,voc_e2,12049,"[{""event"":""fullscreenenter"",""trial"":1,""time"":4300}]",NA,NA,NA,NA,NA,2,#D8271C,#741CD8,0,0,1,38,1,1158.8999999761581,37,1,1366.4000000357628,0,1,experiment,NA,NA,1,0.7,0.3,2,3,145,4,NA
fcp-trial,242,1781498,0.0-155.0-0.0,voc_e2,12049,"[{""event"":""fullscreenenter"",""trial"":1,""time"":4300}]",NA,NA,NA,NA,NA,2,#3386FF,#D89F1C,0,0,0,38,1,957,39,0,470.80000001192093,0,1,experiment,NA,NA,2,0.5,0.5,5,4,146,4,NA
fcp-trial,243,1784931,0.0-156.0-0.0,voc_e2,12049,"[{""event"":""fullscreenenter"",""trial"":1,""time"":4300}]",NA,NA,NA,NA,NA,0,#FA92F8,#1CD855,0,10,0,38,1,1479.800000011921,39,0,446.5999999642372,10,1,experiment,NA,NA,0,0.1,0.9,1,0,147,4,NA
fcp-trial,244,1788034,0.0-157.0-0.0,voc_e2,12049,"[{""event"":""fullscreenenter"",""trial"":1,""time"":4300}]",NA,NA,NA,NA,NA,3,#3386FF,#D89F1C,10,10,0,38,1,931.6000000238419,39,0,664.5,10,1,experiment,NA,NA,2,0.5,0.5,5,4,148,4,NA
fcp-trial,245,1792409,0.0-158.0-0.0,voc_e2,12049,"[{""event"":""fullscreenenter"",""trial"":1,""time"":4300}]",NA,NA,NA,NA,NA,6,#3386FF,#D89F1C,10,0,0,38,1,2500.5,39,0,367.0999999642372,0,1,experiment,NA,NA,2,0.5,0.5,5,4,149,4,NA
fcp-trial,246,1795970,0.0-159.0-0.0,voc_e2,12049,"[{""event"":""fullscreenenter"",""trial"":1,""time"":4300}]",NA,NA,NA,NA,NA,4,#741CD8,#D8271C,0,10,0,38,1,1334.0999999642372,39,0,719.3999999761581,10,1,experiment,NA,NA,1,0.3,0.7,3,2,150,4,NA
fcp-trial,247,1799513,0.0-160.0-0.0,voc_e2,12049,"[{""event"":""fullscreenenter"",""trial"":1,""time"":4300}]",NA,NA,NA,NA,NA,5,#FA92F8,#1CD855,0,10,0,38,1,1285.1000000238419,39,0,750.7999999523163,10,1,experiment,NA,NA,0,0.1,0.9,1,0,151,4,NA
fcp-trial,248,1803696,0.0-161.0-0.0,voc_e2,12049,"[{""event"":""fullscreenenter"",""trial"":1,""time"":4300}]",NA,NA,NA,NA,NA,0,#D8271C,#741CD8,10,0,1,38,1,1753.5,37,1,922.0999999642372,10,1,experiment,NA,NA,1,0.7,0.3,2,3,152,4,NA
fcp-trial,249,1806921,0.0-162.0-0.0,voc_e2,12049,"[{""event"":""fullscreenenter"",""trial"":1,""time"":4300}]",NA,NA,NA,NA,NA,1,#FA92F8,#1CD855,0,10,0,38,1,1399.0999999642372,39,0,319.69999998807907,10,1,experiment,NA,NA,0,0.1,0.9,1,0,153,4,NA
fcp-trial,250,1809954,0.0-163.0-0.0,voc_e2,12049,"[{""event"":""fullscreenenter"",""trial"":1,""time"":4300}]",NA,NA,NA,NA,NA,4,#3386FF,#D89F1C,0,10,0,38,1,959.5999999642372,39,0,567.6999999880791,10,1,experiment,NA,NA,2,0.5,0.5,5,4,154,4,NA
fcp-trial,251,1813897,0.0-164.0-0.0,voc_e2,12049,"[{""event"":""fullscreenenter"",""trial"":1,""time"":4300}]",NA,NA,NA,NA,NA,2,#741CD8,#D8271C,10,10,0,38,1,2053.199999988079,39,0,382.5,10,1,experiment,NA,NA,1,0.3,0.7,3,2,155,4,NA
fcp-trial,252,1823066,0.0-165.0-0.0,voc_e2,12049,"[{""event"":""fullscreenenter"",""trial"":1,""time"":4300}]",NA,NA,NA,NA,NA,6,#741CD8,#D8271C,0,10,0,40,0,2287.300000011921,37,1,5370.399999976158,0,0,experiment,NA,NA,1,0.3,0.7,3,2,156,4,NA
fcp-trial,253,1827275,0.0-166.0-0.0,voc_e2,12049,"[{""event"":""fullscreenenter"",""trial"":1,""time"":4300}]",NA,NA,NA,NA,NA,0,#1CD855,#FA92F8,10,0,1,38,1,2381.699999988079,37,1,319,10,1,experiment,NA,NA,0,0.9,0.1,0,1,157,4,NA
fcp-trial,254,1830569,0.0-167.0-0.0,voc_e2,12049,"[{""event"":""fullscreenenter"",""trial"":1,""time"":4300}]",NA,NA,NA,NA,NA,5,#D8271C,#741CD8,10,10,1,38,1,1022.1999999880791,37,1,763.8999999761581,10,1,experiment,NA,NA,1,0.7,0.3,2,3,158,4,NA
fcp-trial,255,1835353,0.0-168.0-0.0,voc_e2,12049,"[{""event"":""fullscreenenter"",""trial"":1,""time"":4300}]",NA,NA,NA,NA,NA,1,#3386FF,#D89F1C,10,0,0,38,1,2784.7999999523163,39,0,495,0,1,experiment,NA,NA,2,0.5,0.5,5,4,159,4,NA
fcp-trial,256,1840673,0.0-169.0-0.0,voc_e2,12049,"[{""event"":""fullscreenenter"",""trial"":1,""time"":4300}]",NA,NA,NA,NA,NA,1,#741CD8,#D8271C,0,10,0,38,1,2407.899999976158,39,0,1407.2999999523163,10,1,experiment,NA,NA,1,0.3,0.7,3,2,160,4,NA
fcp-trial,257,1843649,0.0-170.0-0.0,voc_e2,12049,"[{""event"":""fullscreenenter"",""trial"":1,""time"":4300}]",NA,NA,NA,NA,NA,5,#D89F1C,#3386FF,0,0,1,38,1,1053.9000000357628,37,1,415.5,0,1,experiment,NA,NA,2,0.5,0.5,4,5,161,4,NA
fcp-trial,258,1846538,0.0-171.0-0.0,voc_e2,12049,"[{""event"":""fullscreenenter"",""trial"":1,""time"":4300}]",NA,NA,NA,NA,NA,6,#1CD855,#FA92F8,10,0,1,38,1,1025.7000000476837,37,1,356.0999999642372,10,1,experiment,NA,NA,0,0.9,0.1,0,1,162,4,NA
fcp-trial,259,1850097,0.0-172.0-0.0,voc_e2,12049,"[{""event"":""fullscreenenter"",""trial"":1,""time"":4300}]",NA,NA,NA,NA,NA,2,#3386FF,#D89F1C,10,0,0,38,1,1694.1000000238419,39,0,358.5,0,1,experiment,NA,NA,2,0.5,0.5,5,4,163,4,NA
fcp-trial,260,1855386,0.0-173.0-0.0,voc_e2,12049,"[{""event"":""fullscreenenter"",""trial"":1,""time"":4300}]",NA,NA,NA,NA,NA,3,#741CD8,#D8271C,10,0,0,38,1,3485,39,0,296,0,1,experiment,NA,NA,1,0.3,0.7,3,2,164,4,NA
fcp-trial,261,1860106,0.0-174.0-0.0,voc_e2,12049,"[{""event"":""fullscreenenter"",""trial"":1,""time"":4300}]",NA,NA,NA,NA,NA,0,#D89F1C,#3386FF,0,0,1,38,1,2933.199999988079,37,1,279.19999998807907,0,1,experiment,NA,NA,2,0.5,0.5,4,5,165,4,NA
fcp-trial,262,1864296,0.0-175.0-0.0,voc_e2,12049,"[{""event"":""fullscreenenter"",""trial"":1,""time"":4300}]",NA,NA,NA,NA,NA,2,#1CD855,#FA92F8,10,0,1,38,1,2109.7000000476837,37,1,574.5,10,1,experiment,NA,NA,0,0.9,0.1,0,1,166,4,NA
fcp-trial,263,1867456,0.0-176.0-0.0,voc_e2,12049,"[{""event"":""fullscreenenter"",""trial"":1,""time"":4300}]",NA,NA,NA,NA,NA,3,#FA92F8,#1CD855,0,10,0,38,1,1200,39,0,455.5,10,1,experiment,NA,NA,0,0.1,0.9,1,0,167,4,NA
fcp-trial,264,1870993,0.0-177.0-0.0,voc_e2,12049,"[{""event"":""fullscreenenter"",""trial"":1,""time"":4300}]",NA,NA,NA,NA,NA,4,#FA92F8,#1CD855,0,10,0,38,1,1549.800000011921,39,0,480.30000001192093,10,1,experiment,NA,NA,0,0.1,0.9,1,0,168,4,NA
fcp-trial,265,1875124,0.0-178.0-0.0,voc_e2,12049,"[{""event"":""fullscreenenter"",""trial"":1,""time"":4300}]",NA,NA,NA,NA,NA,5,#1CD855,#FA92F8,10,0,1,38,1,2239.199999988079,37,1,384.39999997615814,10,1,experiment,NA,NA,0,0.9,0.1,0,1,169,4,NA
fcp-trial,266,1878441,0.0-179.0-0.0,voc_e2,12049,"[{""event"":""fullscreenenter"",""trial"":1,""time"":4300}]",NA,NA,NA,NA,NA,5,#741CD8,#D8271C,0,0,0,38,1,1257.7999999523163,39,0,542.3000000119209,0,1,experiment,NA,NA,1,0.3,0.7,3,2,170,4,NA
fcp-trial,267,1883145,0.0-180.0-0.0,voc_e2,12049,"[{""event"":""fullscreenenter"",""trial"":1,""time"":4300}]",NA,NA,NA,NA,NA,6,#3386FF,#D89F1C,0,10,0,38,1,2770.199999988079,39,0,428.4000000357628,10,1,experiment,NA,NA,2,0.5,0.5,5,4,171,4,NA
fcp-trial,268,1887169,0.0-181.0-0.0,voc_e2,12049,"[{""event"":""fullscreenenter"",""trial"":1,""time"":4300}]",NA,NA,NA,NA,NA,2,#3386FF,#D89F1C,10,10,0,38,1,2078.699999988079,39,0,438.5999999642372,10,1,experiment,NA,NA,2,0.5,0.5,5,4,172,4,NA
fcp-trial,269,1890992,0.0-182.0-0.0,voc_e2,12049,"[{""event"":""fullscreenenter"",""trial"":1,""time"":4300}]",NA,NA,NA,NA,NA,0,#FA92F8,#1CD855,0,10,0,38,1,1855.2000000476837,39,0,462.89999997615814,10,1,experiment,NA,NA,0,0.1,0.9,1,0,173,4,NA
fcp-trial,270,1894032,0.0-183.0-0.0,voc_e2,12049,"[{""event"":""fullscreenenter"",""trial"":1,""time"":4300}]",NA,NA,NA,NA,NA,0,#741CD8,#D8271C,0,0,0,38,1,1105.199999988079,39,0,430.60000002384186,0,1,experiment,NA,NA,1,0.3,0.7,3,2,174,4,NA
fcp-trial,271,1899049,0.0-184.0-0.0,voc_e2,12049,"[{""event"":""fullscreenenter"",""trial"":1,""time"":4300}]",NA,NA,NA,NA,NA,2,#D8271C,#741CD8,10,0,1,38,1,2793.899999976158,37,1,710.8999999761581,10,1,experiment,NA,NA,1,0.7,0.3,2,3,175,4,NA
fcp-trial,272,1904017,0.0-185.0-0.0,voc_e2,12049,"[{""event"":""fullscreenenter"",""trial"":1,""time"":4300}]",NA,NA,NA,NA,NA,4,#3386FF,#D89F1C,0,0,0,38,1,2572.399999976158,39,0,887,0,1,experiment,NA,NA,2,0.5,0.5,5,4,176,4,NA
fcp-trial,273,1919021,0.0-186.0-0.0,voc_e2,12049,"[{""event"":""fullscreenenter"",""trial"":1,""time"":4300}]",NA,NA,NA,NA,NA,1,#1CD855,#FA92F8,0,0,1,null,null,null,null,null,null,NA,0,experiment,NA,NA,0,0.9,0.1,0,1,177,4,NA
fcp-trial,274,1923706,0.0-187.0-0.0,voc_e2,12049,"[{""event"":""fullscreenenter"",""trial"":1,""time"":4300}]",NA,NA,NA,NA,NA,4,#1CD855,#FA92F8,10,0,1,38,1,2093.800000011921,37,1,1083.0999999642372,10,1,experiment,NA,NA,0,0.9,0.1,0,1,178,4,NA
fcp-trial,275,1928721,0.0-188.0-0.0,voc_e2,12049,"[{""event"":""fullscreenenter"",""trial"":1,""time"":4300}]",NA,NA,NA,NA,NA,3,#D8271C,#741CD8,0,10,1,38,1,1357.699999988079,37,1,2150.699999988079,0,1,experiment,NA,NA,1,0.7,0.3,2,3,179,4,NA
fcp-trial,276,1932640,0.0-189.0-0.0,voc_e2,12049,"[{""event"":""fullscreenenter"",""trial"":1,""time"":4300}]",NA,NA,NA,NA,NA,5,#3386FF,#D89F1C,10,10,0,38,1,2102,39,0,312,10,1,experiment,NA,NA,2,0.5,0.5,5,4,180,4,NA
fcp-trial,277,1935528,0.0-190.0-0.0,voc_e2,12049,"[{""event"":""fullscreenenter"",""trial"":1,""time"":4300}]",NA,NA,NA,NA,NA,1,#741CD8,#D8271C,0,10,0,38,1,1111.300000011921,39,0,270.10000002384186,10,1,experiment,NA,NA,1,0.3,0.7,3,2,181,5,NA
fcp-trial,278,1938623,0.0-191.0-0.0,voc_e2,12049,"[{""event"":""fullscreenenter"",""trial"":1,""time"":4300}]",NA,NA,NA,NA,NA,6,#FA92F8,#1CD855,0,10,0,38,1,1167,39,0,422.30000001192093,10,1,experiment,NA,NA,0,0.1,0.9,1,0,182,5,NA
fcp-trial,279,1941480,0.0-192.0-0.0,voc_e2,12049,"[{""event"":""fullscreenenter"",""trial"":1,""time"":4300}]",NA,NA,NA,NA,NA,6,#D8271C,#741CD8,10,0,1,38,1,958.6000000238419,37,1,391.4000000357628,10,1,experiment,NA,NA,1,0.7,0.3,2,3,183,5,NA
fcp-trial,280,1945336,0.0-193.0-0.0,voc_e2,12049,"[{""event"":""fullscreenenter"",""trial"":1,""time"":4300}]",NA,NA,NA,NA,NA,3,#3386FF,#D89F1C,0,10,0,38,1,1992.3999999761581,39,0,356.69999998807907,10,1,experiment,NA,NA,2,0.5,0.5,5,4,184,5,NA
fcp-trial,281,1949808,0.0-194.0-0.0,voc_e2,12049,"[{""event"":""fullscreenenter"",""trial"":1,""time"":4300}]",NA,NA,NA,NA,NA,2,#FA92F8,#1CD855,0,10,0,38,1,2695.2999999523163,39,0,266.69999998807907,10,1,experiment,NA,NA,0,0.1,0.9,1,0,185,5,NA
fcp-trial,282,1953247,0.0-195.0-0.0,voc_e2,12049,"[{""event"":""fullscreenenter"",""trial"":1,""time"":4300}]",NA,NA,NA,NA,NA,0,#D89F1C,#3386FF,10,10,1,38,1,1175.199999988079,37,1,758.2000000476837,10,1,experiment,NA,NA,2,0.5,0.5,4,5,186,5,NA
fcp-trial,283,1956197,0.0-196.0-0.0,voc_e2,12049,"[{""event"":""fullscreenenter"",""trial"":1,""time"":4300}]",NA,NA,NA,NA,NA,3,#FA92F8,#1CD855,0,0,0,38,1,1096.199999988079,39,0,349.0999999642372,0,1,experiment,NA,NA,0,0.1,0.9,1,0,187,5,NA
fcp-trial,284,1961275,0.0-197.0-0.0,voc_e2,12049,"[{""event"":""fullscreenenter"",""trial"":1,""time"":4300}]",NA,NA,NA,NA,NA,4,#D8271C,#741CD8,0,10,1,38,1,3275.199999988079,37,1,297,0,1,experiment,NA,NA,1,0.7,0.3,2,3,188,5,NA
fcp-trial,285,1965439,0.0-198.0-0.0,voc_e2,12049,"[{""event"":""fullscreenenter"",""trial"":1,""time"":4300}]",NA,NA,NA,NA,NA,1,#3386FF,#D89F1C,10,10,0,38,1,2268.800000011921,39,0,389.39999997615814,10,1,experiment,NA,NA,2,0.5,0.5,5,4,189,5,NA
fcp-trial,286,1980451,0.0-199.0-0.0,voc_e2,12049,"[{""event"":""fullscreenenter"",""trial"":1,""time"":4300}]",NA,NA,NA,NA,NA,1,#FA92F8,#1CD855,0,10,0,null,null,null,null,null,null,NA,0,experiment,NA,NA,0,0.1,0.9,1,0,190,5,NA
fcp-trial,287,1983633,0.0-200.0-0.0,voc_e2,12049,"[{""event"":""fullscreenenter"",""trial"":1,""time"":4300}]",NA,NA,NA,NA,NA,2,#D8271C,#741CD8,10,0,1,38,1,950.6000000238419,37,1,725.7999999523163,10,1,experiment,NA,NA,1,0.7,0.3,2,3,191,5,NA
fcp-trial,288,1986528,0.0-201.0-0.0,voc_e2,12049,"[{""event"":""fullscreenenter"",""trial"":1,""time"":4300}]",NA,NA,NA,NA,NA,6,#1CD855,#FA92F8,10,0,1,38,1,1014.4000000357628,37,1,374.5999999642372,10,1,experiment,NA,NA,0,0.9,0.1,0,1,192,5,NA
fcp-trial,289,1990008,0.0-202.0-0.0,voc_e2,12049,"[{""event"":""fullscreenenter"",""trial"":1,""time"":4300}]",NA,NA,NA,NA,NA,2,#3386FF,#D89F1C,0,0,0,38,1,1516.699999988079,39,0,457.9000000357628,0,1,experiment,NA,NA,2,0.5,0.5,5,4,193,5,NA
fcp-trial,290,1994936,0.0-203.0-0.0,voc_e2,12049,"[{""event"":""fullscreenenter"",""trial"":1,""time"":4300}]",NA,NA,NA,NA,NA,5,#D89F1C,#3386FF,10,0,1,38,1,2530.300000011921,37,1,892.2999999523163,10,1,experiment,NA,NA,2,0.5,0.5,4,5,194,5,NA
fcp-trial,291,1997753,0.0-204.0-0.0,voc_e2,12049,"[{""event"":""fullscreenenter"",""trial"":1,""time"":4300}]",NA,NA,NA,NA,NA,0,#741CD8,#D8271C,0,0,0,38,1,792.1000000238419,39,0,518.7000000476837,0,1,experiment,NA,NA,1,0.3,0.7,3,2,195,5,NA
fcp-trial,292,2002321,0.0-205.0-0.0,voc_e2,12049,"[{""event"":""fullscreenenter"",""trial"":1,""time"":4300}]",NA,NA,NA,NA,NA,4,#3386FF,#D89F1C,0,0,0,38,1,2309.899999976158,39,0,750.5,0,1,experiment,NA,NA,2,0.5,0.5,5,4,196,5,NA
fcp-trial,293,2005851,0.0-206.0-0.0,voc_e2,12049,"[{""event"":""fullscreenenter"",""trial"":1,""time"":4300}]",NA,NA,NA,NA,NA,0,#FA92F8,#1CD855,0,10,0,38,1,1441.1000000238419,39,0,584.5,10,1,experiment,NA,NA,0,0.1,0.9,1,0,197,5,NA
fcp-trial,294,2009959,0.0-207.0-0.0,voc_e2,12049,"[{""event"":""fullscreenenter"",""trial"":1,""time"":4300}]",NA,NA,NA,NA,NA,3,#FA92F8,#1CD855,0,10,0,38,1,1085.300000011921,39,0,1516.800000011921,10,1,experiment,NA,NA,0,0.1,0.9,1,0,198,5,NA
fcp-trial,295,2014858,0.0-208.0-0.0,voc_e2,12049,"[{""event"":""fullscreenenter"",""trial"":1,""time"":4300}]",NA,NA,NA,NA,NA,4,#741CD8,#D8271C,0,10,0,38,1,2015.800000011921,39,0,1377.9000000357628,10,1,experiment,NA,NA,1,0.3,0.7,3,2,199,5,NA
fcp-trial,296,2020088,0.0-209.0-0.0,voc_e2,12049,"[{""event"":""fullscreenenter"",""trial"":1,""time"":4300}]",NA,NA,NA,NA,NA,6,#3386FF,#D89F1C,10,0,0,40,0,1611.699999988079,39,0,2105.600000023842,0,1,experiment,NA,NA,2,0.5,0.5,5,4,200,5,NA
fcp-trial,297,2024624,0.0-210.0-0.0,voc_e2,12049,"[{""event"":""fullscreenenter"",""trial"":1,""time"":4300}]",NA,NA,NA,NA,NA,2,#FA92F8,#1CD855,0,10,0,38,1,1903.2000000476837,39,0,1127.8999999761581,10,1,experiment,NA,NA,0,0.1,0.9,1,0,201,5,NA
fcp-trial,298,2027856,0.0-211.0-0.0,voc_e2,12049,"[{""event"":""fullscreenenter"",""trial"":1,""time"":4300}]",NA,NA,NA,NA,NA,4,#FA92F8,#1CD855,0,10,0,38,1,905.5,39,0,820.4000000357628,10,1,experiment,NA,NA,0,0.1,0.9,1,0,202,5,NA
fcp-trial,299,2031768,0.0-212.0-0.0,voc_e2,12049,"[{""event"":""fullscreenenter"",""trial"":1,""time"":4300}]",NA,NA,NA,NA,NA,3,#D89F1C,#3386FF,10,0,1,38,1,1841.0999999642372,37,1,566.1999999880791,10,1,experiment,NA,NA,2,0.5,0.5,4,5,203,5,NA
fcp-trial,300,2036682,0.0-213.0-0.0,voc_e2,12049,"[{""event"":""fullscreenenter"",""trial"":1,""time"":4300}]",NA,NA,NA,NA,NA,1,#D8271C,#741CD8,0,0,1,38,1,2895.5,37,1,509.39999997615814,0,1,experiment,NA,NA,1,0.7,0.3,2,3,204,5,NA
fcp-trial,301,2039889,0.0-214.0-0.0,voc_e2,12049,"[{""event"":""fullscreenenter"",""trial"":1,""time"":4300}]",NA,NA,NA,NA,NA,0,#3386FF,#D89F1C,0,0,0,38,1,1206.800000011921,37,1,495.69999998807907,0,0,experiment,NA,NA,2,0.5,0.5,5,4,205,5,NA
fcp-trial,302,2043624,0.0-215.0-0.0,voc_e2,12049,"[{""event"":""fullscreenenter"",""trial"":1,""time"":4300}]",NA,NA,NA,NA,NA,5,#FA92F8,#1CD855,0,10,0,38,1,1783.1000000238419,39,0,447.19999998807907,10,1,experiment,NA,NA,0,0.1,0.9,1,0,206,5,NA
fcp-trial,303,2055307,0.0-216.0-0.0,voc_e2,12049,"[{""event"":""fullscreenenter"",""trial"":1,""time"":4300}]",NA,NA,NA,NA,NA,1,#D89F1C,#3386FF,10,10,1,38,1,4336.5,37,1,5841.600000023842,10,1,experiment,NA,NA,2,0.5,0.5,4,5,207,5,NA
fcp-trial,304,2064984,0.0-217.0-0.0,voc_e2,12049,"[{""event"":""fullscreenenter"",""trial"":1,""time"":4300}]",NA,NA,NA,NA,NA,5,#D8271C,#741CD8,0,0,1,40,0,3052.400000035763,37,1,5118.600000023842,0,1,experiment,NA,NA,1,0.7,0.3,2,3,208,5,NA
fcp-trial,305,2069729,0.0-218.0-0.0,voc_e2,12049,"[{""event"":""fullscreenenter"",""trial"":1,""time"":4300}]",NA,NA,NA,NA,NA,3,#D8271C,#741CD8,10,0,1,38,1,2136.5,37,1,1102.8999999761581,10,1,experiment,NA,NA,1,0.7,0.3,2,3,209,5,NA
fcp-trial,306,2073895,0.0-219.0-0.0,voc_e2,12049,"[{""event"":""fullscreenenter"",""trial"":1,""time"":4300}]",NA,NA,NA,NA,NA,6,#741CD8,#D8271C,0,10,0,38,1,2352.5,39,0,309.30000001192093,10,1,experiment,NA,NA,1,0.3,0.7,3,2,210,5,NA
audio-instructions,307,2159899,0.0-220.0,voc_e2,12049,"[{""event"":""fullscreenenter"",""trial"":1,""time"":4300}]",NA,81201.80000001192,static/audio/pause.wav,NA,0,NA,NA,NA,NA,NA,NA,NA,NA,NA,NA,NA,NA,NA,NA,NA,NA,NA,NA,NA,NA,NA,NA,NA,NA,NA
fcp-trial,308,2164016,0.0-221.0-0.0,voc_e2,12049,"[{""event"":""fullscreenenter"",""trial"":1,""time"":4300}]",NA,NA,NA,NA,NA,1,#D8271C,#741CD8,10,0,1,38,1,1775.199999988079,37,1,830,10,1,experiment,NA,NA,1,0.7,0.3,2,3,211,5,NA
fcp-trial,309,2166923,0.0-222.0-0.0,voc_e2,12049,"[{""event"":""fullscreenenter"",""trial"":1,""time"":4300}]",NA,NA,NA,NA,NA,1,#3386FF,#D89F1C,10,10,0,38,1,1139.300000011921,39,0,258.5,10,1,experiment,NA,NA,2,0.5,0.5,5,4,212,5,NA
fcp-trial,310,2169929,0.0-223.0-0.0,voc_e2,12049,"[{""event"":""fullscreenenter"",""trial"":1,""time"":4300}]",NA,NA,NA,NA,NA,2,#1CD855,#FA92F8,10,0,1,38,1,1222.5999999642372,37,1,278.39999997615814,10,1,experiment,NA,NA,0,0.9,0.1,0,1,213,5,NA
fcp-trial,311,2172655,0.0-224.0-0.0,voc_e2,12049,"[{""event"":""fullscreenenter"",""trial"":1,""time"":4300}]",NA,NA,NA,NA,NA,6,#D8271C,#741CD8,10,0,1,38,1,932.6999999880791,37,1,287.0999999642372,10,1,experiment,NA,NA,1,0.7,0.3,2,3,214,5,NA
fcp-trial,312,2175503,0.0-225.0-0.0,voc_e2,12049,"[{""event"":""fullscreenenter"",""trial"":1,""time"":4300}]",NA,NA,NA,NA,NA,4,#3386FF,#D89F1C,0,0,0,38,1,1039,39,0,303.39999997615814,0,1,experiment,NA,NA,2,0.5,0.5,5,4,215,5,NA
fcp-trial,313,2179303,0.0-226.0-0.0,voc_e2,12049,"[{""event"":""fullscreenenter"",""trial"":1,""time"":4300}]",NA,NA,NA,NA,NA,4,#D8271C,#741CD8,10,10,1,38,1,1669.3999999761581,37,1,622.4000000357628,10,1,experiment,NA,NA,1,0.7,0.3,2,3,216,5,NA
fcp-trial,314,2183363,0.0-227.0-0.0,voc_e2,12049,"[{""event"":""fullscreenenter"",""trial"":1,""time"":4300}]",NA,NA,NA,NA,NA,4,#1CD855,#FA92F8,10,10,1,38,1,2225.399999976158,37,1,330.7000000476837,10,1,experiment,NA,NA,0,0.9,0.1,0,1,217,5,NA
fcp-trial,315,2188302,0.0-228.0-0.0,voc_e2,12049,"[{""event"":""fullscreenenter"",""trial"":1,""time"":4300}]",NA,NA,NA,NA,NA,6,#FA92F8,#1CD855,10,10,0,40,0,1885.300000011921,39,0,1547.8999999761581,10,1,experiment,NA,NA,0,0.1,0.9,1,0,218,5,NA
fcp-trial,316,2192519,0.0-229.0-0.0,voc_e2,12049,"[{""event"":""fullscreenenter"",""trial"":1,""time"":4300}]",NA,NA,NA,NA,NA,6,#3386FF,#D89F1C,0,10,0,38,1,2280.100000023842,39,0,430.69999998807907,10,1,experiment,NA,NA,2,0.5,0.5,5,4,219,5,NA
fcp-trial,317,2196931,0.0-230.0-0.0,voc_e2,12049,"[{""event"":""fullscreenenter"",""trial"":1,""time"":4300}]",NA,NA,NA,NA,NA,1,#FA92F8,#1CD855,0,10,0,38,1,2544.5,39,0,361.69999998807907,10,1,experiment,NA,NA,0,0.1,0.9,1,0,220,5,NA
fcp-trial,318,2200595,0.0-231.0-0.0,voc_e2,12049,"[{""event"":""fullscreenenter"",""trial"":1,""time"":4300}]",NA,NA,NA,NA,NA,2,#D8271C,#741CD8,10,10,1,38,1,1549.4000000357628,37,1,587.3000000119209,10,1,experiment,NA,NA,1,0.7,0.3,2,3,221,5,NA
fcp-trial,319,2203759,0.0-232.0-0.0,voc_e2,12049,"[{""event"":""fullscreenenter"",""trial"":1,""time"":4300}]",NA,NA,NA,NA,NA,0,#FA92F8,#1CD855,10,10,0,38,1,1394.699999988079,39,0,263.80000001192093,10,1,experiment,NA,NA,0,0.1,0.9,1,0,222,5,NA
fcp-trial,320,2206464,0.0-233.0-0.0,voc_e2,12049,"[{""event"":""fullscreenenter"",""trial"":1,""time"":4300}]",NA,NA,NA,NA,NA,3,#741CD8,#D8271C,0,0,0,38,1,918.3999999761581,39,0,280,0,1,experiment,NA,NA,1,0.3,0.7,3,2,223,5,NA
fcp-trial,321,2211354,0.0-234.0-0.0,voc_e2,12049,"[{""event"":""fullscreenenter"",""trial"":1,""time"":4300}]",NA,NA,NA,NA,NA,0,#3386FF,#D89F1C,10,10,0,38,1,1566.199999988079,39,0,1818.199999988079,10,1,experiment,NA,NA,2,0.5,0.5,5,4,224,5,NA
fcp-trial,322,2214833,0.0-235.0-0.0,voc_e2,12049,"[{""event"":""fullscreenenter"",""trial"":1,""time"":4300}]",NA,NA,NA,NA,NA,2,#3386FF,#D89F1C,0,0,0,38,1,1613.300000011921,39,0,358.9000000357628,0,1,experiment,NA,NA,2,0.5,0.5,5,4,225,5,NA
fcp-trial,323,2217863,0.0-236.0-0.0,voc_e2,12049,"[{""event"":""fullscreenenter"",""trial"":1,""time"":4300}]",NA,NA,NA,NA,NA,5,#FA92F8,#1CD855,0,0,0,38,1,1053,39,0,471.39999997615814,0,1,experiment,NA,NA,0,0.1,0.9,1,0,226,6,NA
fcp-trial,324,2220871,0.0-237.0-0.0,voc_e2,12049,"[{""event"":""fullscreenenter"",""trial"":1,""time"":4300}]",NA,NA,NA,NA,NA,0,#D8271C,#741CD8,10,0,1,38,1,1159,37,1,340.2000000476837,10,1,experiment,NA,NA,1,0.7,0.3,2,3,227,6,NA
fcp-trial,325,2224840,0.0-238.0-0.0,voc_e2,12049,"[{""event"":""fullscreenenter"",""trial"":1,""time"":4300}]",NA,NA,NA,NA,NA,3,#D89F1C,#3386FF,10,10,1,38,1,2072.099999964237,37,1,390.19999998807907,10,1,experiment,NA,NA,2,0.5,0.5,4,5,228,6,NA
fcp-trial,326,2229848,0.0-239.0-0.0,voc_e2,12049,"[{""event"":""fullscreenenter"",""trial"":1,""time"":4300}]",NA,NA,NA,NA,NA,5,#3386FF,#D89F1C,0,10,0,40,0,1704.300000011921,39,0,1798.0999999642372,10,1,experiment,NA,NA,2,0.5,0.5,5,4,229,6,NA
fcp-trial,327,2233872,0.0-240.0-0.0,voc_e2,12049,"[{""event"":""fullscreenenter"",""trial"":1,""time"":4300}]",NA,NA,NA,NA,NA,3,#FA92F8,#1CD855,0,10,0,38,1,2109.399999976158,39,0,407.89999997615814,10,1,experiment,NA,NA,0,0.1,0.9,1,0,230,6,NA
fcp-trial,328,2238447,0.0-241.0-0.0,voc_e2,12049,"[{""event"":""fullscreenenter"",""trial"":1,""time"":4300}]",NA,NA,NA,NA,NA,5,#D8271C,#741CD8,10,0,1,40,0,2030.300000011921,37,1,1039.300000011921,10,1,experiment,NA,NA,1,0.7,0.3,2,3,231,6,NA
fcp-trial,329,2242775,0.0-242.0-0.0,voc_e2,12049,"[{""event"":""fullscreenenter"",""trial"":1,""time"":4300}]",NA,NA,NA,NA,NA,0,#741CD8,#D8271C,0,10,0,38,1,2449.699999988079,39,0,372.69999998807907,10,1,experiment,NA,NA,1,0.3,0.7,3,2,232,6,NA
fcp-trial,330,2246592,0.0-243.0-0.0,voc_e2,12049,"[{""event"":""fullscreenenter"",""trial"":1,""time"":4300}]",NA,NA,NA,NA,NA,3,#741CD8,#D8271C,10,0,0,38,1,1929.3999999761581,39,0,382.5999999642372,0,1,experiment,NA,NA,1,0.3,0.7,3,2,233,6,NA
fcp-trial,331,2249566,0.0-244.0-0.0,voc_e2,12049,"[{""event"":""fullscreenenter"",""trial"":1,""time"":4300}]",NA,NA,NA,NA,NA,5,#D89F1C,#3386FF,0,10,1,38,1,1031.300000011921,37,1,440.19999998807907,0,1,experiment,NA,NA,2,0.5,0.5,4,5,234,6,NA
fcp-trial,332,2253487,0.0-245.0-0.0,voc_e2,12049,"[{""event"":""fullscreenenter"",""trial"":1,""time"":4300}]",NA,NA,NA,NA,NA,2,#741CD8,#D8271C,0,0,0,38,1,1936.800000011921,39,0,478.39999997615814,0,1,experiment,NA,NA,1,0.3,0.7,3,2,235,6,NA
fcp-trial,333,2258135,0.0-246.0-0.0,voc_e2,12049,"[{""event"":""fullscreenenter"",""trial"":1,""time"":4300}]",NA,NA,NA,NA,NA,5,#FA92F8,#1CD855,0,0,0,40,0,1536.9000000357628,39,0,1603.3999999761581,0,1,experiment,NA,NA,0,0.1,0.9,1,0,236,6,NA
fcp-trial,334,2262704,0.0-247.0-0.0,voc_e2,12049,"[{""event"":""fullscreenenter"",""trial"":1,""time"":4300}]",NA,NA,NA,NA,NA,6,#D8271C,#741CD8,0,0,1,40,0,1528.4000000357628,37,1,1535.5,0,1,experiment,NA,NA,1,0.7,0.3,2,3,237,6,NA
fcp-trial,335,2268008,0.0-248.0-0.0,voc_e2,12049,"[{""event"":""fullscreenenter"",""trial"":1,""time"":4300}]",NA,NA,NA,NA,NA,4,#D89F1C,#3386FF,10,0,1,38,1,2630.599999964237,37,1,1167.9000000357628,10,1,experiment,NA,NA,2,0.5,0.5,4,5,238,6,NA
fcp-trial,336,2271119,0.0-249.0-0.0,voc_e2,12049,"[{""event"":""fullscreenenter"",""trial"":1,""time"":4300}]",NA,NA,NA,NA,NA,1,#3386FF,#D89F1C,0,10,0,38,1,1178.699999988079,39,0,424.10000002384186,10,1,experiment,NA,NA,2,0.5,0.5,5,4,239,6,NA
fcp-trial,337,2274551,0.0-250.0-0.0,voc_e2,12049,"[{""event"":""fullscreenenter"",""trial"":1,""time"":4300}]",NA,NA,NA,NA,NA,4,#FA92F8,#1CD855,0,10,0,38,1,1575.0999999642372,39,0,351.30000001192093,10,1,experiment,NA,NA,0,0.1,0.9,1,0,240,6,NA
fcp-trial,338,2278103,0.0-251.0-0.0,voc_e2,12049,"[{""event"":""fullscreenenter"",""trial"":1,""time"":4300}]",NA,NA,NA,NA,NA,3,#D89F1C,#3386FF,0,0,1,38,1,1637.7999999523163,39,0,407.80000001192093,0,0,experiment,NA,NA,2,0.5,0.5,4,5,241,6,NA
fcp-trial,339,2281230,0.0-252.0-0.0,voc_e2,12049,"[{""event"":""fullscreenenter"",""trial"":1,""time"":4300}]",NA,NA,NA,NA,NA,4,#D8271C,#741CD8,0,10,1,38,1,977.3000000119209,37,1,644.4000000357628,0,1,experiment,NA,NA,1,0.7,0.3,2,3,242,6,NA
fcp-trial,340,2285277,0.0-253.0-0.0,voc_e2,12049,"[{""event"":""fullscreenenter"",""trial"":1,""time"":4300}]",NA,NA,NA,NA,NA,2,#D89F1C,#3386FF,0,10,1,38,1,1600.4000000357628,37,1,938.8999999761581,0,1,experiment,NA,NA,2,0.5,0.5,4,5,243,6,NA
fcp-trial,341,2288064,0.0-254.0-0.0,voc_e2,12049,"[{""event"":""fullscreenenter"",""trial"":1,""time"":4300}]",NA,NA,NA,NA,NA,6,#FA92F8,#1CD855,0,10,0,38,1,776.7999999523163,39,0,503.39999997615814,10,1,experiment,NA,NA,0,0.1,0.9,1,0,244,6,NA
fcp-trial,342,2291671,0.0-255.0-0.0,voc_e2,12049,"[{""event"":""fullscreenenter"",""trial"":1,""time"":4300}]",NA,NA,NA,NA,NA,1,#741CD8,#D8271C,0,0,0,38,1,1422.300000011921,39,0,678.5,0,1,experiment,NA,NA,1,0.3,0.7,3,2,245,6,NA
fcp-trial,343,2295415,0.0-256.0-0.0,voc_e2,12049,"[{""event"":""fullscreenenter"",""trial"":1,""time"":4300}]",NA,NA,NA,NA,NA,0,#D89F1C,#3386FF,0,10,1,38,1,1486.6000000238419,37,1,751.5,0,1,experiment,NA,NA,2,0.5,0.5,4,5,246,6,NA
fcp-trial,344,2299831,0.0-257.0-0.0,voc_e2,12049,"[{""event"":""fullscreenenter"",""trial"":1,""time"":4300}]",NA,NA,NA,NA,NA,0,#1CD855,#FA92F8,10,0,1,38,1,2238.5,37,1,671.8000000119209,10,1,experiment,NA,NA,0,0.9,0.1,0,1,247,6,NA
fcp-trial,345,2304072,0.0-258.0-0.0,voc_e2,12049,"[{""event"":""fullscreenenter"",""trial"":1,""time"":4300}]",NA,NA,NA,NA,NA,6,#D89F1C,#3386FF,10,10,1,38,1,2279,37,1,456,10,1,experiment,NA,NA,2,0.5,0.5,4,5,248,6,NA
fcp-trial,346,2308919,0.0-259.0-0.0,voc_e2,12049,"[{""event"":""fullscreenenter"",""trial"":1,""time"":4300}]",NA,NA,NA,NA,NA,3,#FA92F8,#1CD855,0,10,0,38,1,2862.100000023842,39,0,479.30000001192093,10,1,experiment,NA,NA,0,0.1,0.9,1,0,249,6,NA
fcp-trial,347,2313830,0.0-260.0-0.0,voc_e2,12049,"[{""event"":""fullscreenenter"",""trial"":1,""time"":4300}]",NA,NA,NA,NA,NA,5,#741CD8,#D8271C,0,0,0,40,0,1815.5,39,0,1591.6000000238419,0,1,experiment,NA,NA,1,0.3,0.7,3,2,250,6,NA
fcp-trial,348,2319636,0.0-261.0-0.0,voc_e2,12049,"[{""event"":""fullscreenenter"",""trial"":1,""time"":4300}]",NA,NA,NA,NA,NA,2,#FA92F8,#1CD855,0,10,0,38,1,1486.8999999761581,39,0,2807,10,1,experiment,NA,NA,0,0.1,0.9,1,0,251,6,NA
fcp-trial,349,2322928,0.0-262.0-0.0,voc_e2,12049,"[{""event"":""fullscreenenter"",""trial"":1,""time"":4300}]",NA,NA,NA,NA,NA,1,#FA92F8,#1CD855,0,10,0,38,1,994.8000000119209,39,0,791.3999999761581,10,1,experiment,NA,NA,0,0.1,0.9,1,0,252,6,NA
fcp-trial,350,2329015,0.0-263.0-0.0,voc_e2,12049,"[{""event"":""fullscreenenter"",""trial"":1,""time"":4300}]",NA,NA,NA,NA,NA,2,#D8271C,#741CD8,10,10,1,38,1,951,37,1,3631.199999988079,10,1,experiment,NA,NA,1,0.7,0.3,2,3,253,6,NA
fcp-trial,351,2332181,0.0-264.0-0.0,voc_e2,12049,"[{""event"":""fullscreenenter"",""trial"":1,""time"":4300}]",NA,NA,NA,NA,NA,3,#D8271C,#741CD8,10,0,1,38,1,1190.7999999523163,37,1,471.30000001192093,10,1,experiment,NA,NA,1,0.7,0.3,2,3,254,6,NA
fcp-trial,352,2337793,0.0-265.0-0.0,voc_e2,12049,"[{""event"":""fullscreenenter"",""trial"":1,""time"":4300}]",NA,NA,NA,NA,NA,6,#3386FF,#D89F1C,0,10,0,40,0,2031.9000000357628,39,0,2072.899999976158,10,1,experiment,NA,NA,2,0.5,0.5,5,4,255,6,NA
fcp-trial,353,2341720,0.0-266.0-0.0,voc_e2,12049,"[{""event"":""fullscreenenter"",""trial"":1,""time"":4300}]",NA,NA,NA,NA,NA,1,#1CD855,#FA92F8,10,0,1,38,1,1853,37,1,565.8999999761581,10,1,experiment,NA,NA,0,0.9,0.1,0,1,256,6,NA
fcp-trial,354,2345717,0.0-267.0-0.0,voc_e2,12049,"[{""event"":""fullscreenenter"",""trial"":1,""time"":4300}]",NA,NA,NA,NA,NA,0,#3386FF,#D89F1C,10,0,0,38,1,1870,39,0,622.6999999880791,0,1,experiment,NA,NA,2,0.5,0.5,5,4,257,6,NA
fcp-trial,355,2351911,0.0-268.0-0.0,voc_e2,12049,"[{""event"":""fullscreenenter"",""trial"":1,""time"":4300}]",NA,NA,NA,NA,NA,5,#D8271C,#741CD8,0,10,1,40,0,2546.199999988079,39,0,2141.900000035763,10,0,experiment,NA,NA,1,0.7,0.3,2,3,258,6,NA
fcp-trial,356,2358382,0.0-269.0-0.0,voc_e2,12049,"[{""event"":""fullscreenenter"",""trial"":1,""time"":4300}]",NA,NA,NA,NA,NA,4,#D8271C,#741CD8,10,0,1,38,1,3415.7000000476837,37,1,1550,10,1,experiment,NA,NA,1,0.7,0.3,2,3,259,6,NA
fcp-trial,357,2361534,0.0-270.0-0.0,voc_e2,12049,"[{""event"":""fullscreenenter"",""trial"":1,""time"":4300}]",NA,NA,NA,NA,NA,4,#1CD855,#FA92F8,0,0,1,38,1,1320.7999999523163,37,1,325.30000001192093,0,1,experiment,NA,NA,0,0.9,0.1,0,1,260,6,NA
fcp-trial,358,2364782,0.0-271.0-0.0,voc_e2,12049,"[{""event"":""fullscreenenter"",""trial"":1,""time"":4300}]",NA,NA,NA,NA,NA,5,#D89F1C,#3386FF,10,0,1,38,1,1454.800000011921,37,1,287.5,10,1,experiment,NA,NA,2,0.5,0.5,4,5,261,6,NA
fcp-trial,359,2369387,0.0-272.0-0.0,voc_e2,12049,"[{""event"":""fullscreenenter"",""trial"":1,""time"":4300}]",NA,NA,NA,NA,NA,4,#3386FF,#D89F1C,10,10,0,38,1,2656.600000023842,39,0,441.2999999523163,10,1,experiment,NA,NA,2,0.5,0.5,5,4,262,6,NA
fcp-trial,360,2372686,0.0-273.0-0.0,voc_e2,12049,"[{""event"":""fullscreenenter"",""trial"":1,""time"":4300}]",NA,NA,NA,NA,NA,0,#1CD855,#FA92F8,0,10,1,38,1,1452.3999999761581,37,1,342.80000001192093,0,1,experiment,NA,NA,0,0.9,0.1,0,1,263,6,NA
fcp-trial,361,2378207,0.0-274.0-0.0,voc_e2,12049,"[{""event"":""fullscreenenter"",""trial"":1,""time"":4300}]",NA,NA,NA,NA,NA,6,#741CD8,#D8271C,0,0,0,40,0,1864.7999999523163,37,1,2151.399999976158,0,0,experiment,NA,NA,1,0.3,0.7,3,2,264,6,NA
fcp-trial,362,2383471,0.0-275.0-0.0,voc_e2,12049,"[{""event"":""fullscreenenter"",""trial"":1,""time"":4300}]",NA,NA,NA,NA,NA,5,#FA92F8,#1CD855,0,10,0,38,1,3149.7000000476837,39,0,606.3999999761581,10,1,experiment,NA,NA,0,0.1,0.9,1,0,265,6,NA
fcp-trial,363,2387983,0.0-276.0-0.0,voc_e2,12049,"[{""event"":""fullscreenenter"",""trial"":1,""time"":4300}]",NA,NA,NA,NA,NA,0,#D8271C,#741CD8,10,0,1,38,1,2280.400000035763,37,1,725.8999999761581,10,1,experiment,NA,NA,1,0.7,0.3,2,3,266,6,NA
fcp-trial,364,2392127,0.0-277.0-0.0,voc_e2,12049,"[{""event"":""fullscreenenter"",""trial"":1,""time"":4300}]",NA,NA,NA,NA,NA,3,#3386FF,#D89F1C,10,0,0,38,1,1951.9000000357628,39,0,687.1000000238419,0,1,experiment,NA,NA,2,0.5,0.5,5,4,267,6,NA
fcp-trial,365,2395422,0.0-278.0-0.0,voc_e2,12049,"[{""event"":""fullscreenenter"",""trial"":1,""time"":4300}]",NA,NA,NA,NA,NA,1,#3386FF,#D89F1C,10,0,0,38,1,1328.199999988079,39,0,458.5,0,1,experiment,NA,NA,2,0.5,0.5,5,4,268,6,NA
fcp-trial,366,2399183,0.0-279.0-0.0,voc_e2,12049,"[{""event"":""fullscreenenter"",""trial"":1,""time"":4300}]",NA,NA,NA,NA,NA,2,#FA92F8,#1CD855,0,10,0,38,1,1713.3999999761581,39,0,541.8999999761581,10,1,experiment,NA,NA,0,0.1,0.9,1,0,269,6,NA
fcp-trial,367,2403060,0.0-280.0-0.0,voc_e2,12049,"[{""event"":""fullscreenenter"",""trial"":1,""time"":4300}]",NA,NA,NA,NA,NA,1,#D8271C,#741CD8,10,0,1,38,1,1999.5,37,1,371.60000002384186,10,1,experiment,NA,NA,1,0.7,0.3,2,3,270,6,NA
fcp-trial,368,2406447,0.0-281.0-0.0,voc_e2,12049,"[{""event"":""fullscreenenter"",""trial"":1,""time"":4300}]",NA,NA,NA,NA,NA,3,#FA92F8,#1CD855,0,10,0,38,1,1379.5999999642372,39,0,502.60000002384186,10,1,experiment,NA,NA,0,0.1,0.9,1,0,271,7,NA
fcp-trial,369,2411343,0.0-282.0-0.0,voc_e2,12049,"[{""event"":""fullscreenenter"",""trial"":1,""time"":4300}]",NA,NA,NA,NA,NA,6,#FA92F8,#1CD855,0,10,0,40,0,1619.3999999761581,39,0,1761.6000000238419,10,1,experiment,NA,NA,0,0.1,0.9,1,0,272,7,NA
fcp-trial,370,2416015,0.0-283.0-0.0,voc_e2,12049,"[{""event"":""fullscreenenter"",""trial"":1,""time"":4300}]",NA,NA,NA,NA,NA,2,#3386FF,#D89F1C,10,0,0,38,1,1805.699999988079,39,0,1360,0,1,experiment,NA,NA,2,0.5,0.5,5,4,273,7,NA
fcp-trial,371,2420933,0.0-284.0-0.0,voc_e2,12049,"[{""event"":""fullscreenenter"",""trial"":1,""time"":4300}]",NA,NA,NA,NA,NA,1,#741CD8,#D8271C,0,0,0,38,1,1126.699999988079,39,0,2279.800000011921,0,1,experiment,NA,NA,1,0.3,0.7,3,2,274,7,NA
fcp-trial,372,2424302,0.0-285.0-0.0,voc_e2,12049,"[{""event"":""fullscreenenter"",""trial"":1,""time"":4300}]",NA,NA,NA,NA,NA,0,#FA92F8,#1CD855,0,0,0,38,1,1223.8999999761581,39,0,639.7000000476837,0,1,experiment,NA,NA,0,0.1,0.9,1,0,275,7,NA
fcp-trial,373,2427678,0.0-286.0-0.0,voc_e2,12049,"[{""event"":""fullscreenenter"",""trial"":1,""time"":4300}]",NA,NA,NA,NA,NA,0,#3386FF,#D89F1C,0,10,0,38,1,1493.699999988079,39,0,375.30000001192093,10,1,experiment,NA,NA,2,0.5,0.5,5,4,276,7,NA
fcp-trial,374,2431166,0.0-287.0-0.0,voc_e2,12049,"[{""event"":""fullscreenenter"",""trial"":1,""time"":4300}]",NA,NA,NA,NA,NA,3,#D8271C,#741CD8,10,0,1,38,1,1518.8999999761581,37,1,463.5999999642372,10,1,experiment,NA,NA,1,0.7,0.3,2,3,277,7,NA
fcp-trial,375,2434097,0.0-288.0-0.0,voc_e2,12049,"[{""event"":""fullscreenenter"",""trial"":1,""time"":4300}]",NA,NA,NA,NA,NA,1,#3386FF,#D89F1C,0,0,0,38,1,1075.0999999642372,37,1,351.10000002384186,0,0,experiment,NA,NA,2,0.5,0.5,5,4,278,7,NA
fcp-trial,376,2439430,0.0-289.0-0.0,voc_e2,12049,"[{""event"":""fullscreenenter"",""trial"":1,""time"":4300}]",NA,NA,NA,NA,NA,5,#FA92F8,#1CD855,0,10,0,40,0,1813.8999999761581,37,1,2010.5,0,0,experiment,NA,NA,0,0.1,0.9,1,0,279,7,NA
fcp-trial,377,2443173,0.0-290.0-0.0,voc_e2,12049,"[{""event"":""fullscreenenter"",""trial"":1,""time"":4300}]",NA,NA,NA,NA,NA,4,#FA92F8,#1CD855,0,10,0,38,1,1743.800000011921,39,0,491.89999997615814,10,1,experiment,NA,NA,0,0.1,0.9,1,0,280,7,NA
fcp-trial,378,2447150,0.0-291.0-0.0,voc_e2,12049,"[{""event"":""fullscreenenter"",""trial"":1,""time"":4300}]",NA,NA,NA,NA,NA,4,#D8271C,#741CD8,10,10,1,38,1,2018.5999999642372,37,1,452.39999997615814,10,1,experiment,NA,NA,1,0.7,0.3,2,3,281,7,NA
fcp-trial,379,2452472,0.0-292.0-0.0,voc_e2,12049,"[{""event"":""fullscreenenter"",""trial"":1,""time"":4300}]",NA,NA,NA,NA,NA,2,#FA92F8,#1CD855,0,10,0,38,1,2761.199999988079,39,0,1053.5999999642372,10,1,experiment,NA,NA,0,0.1,0.9,1,0,282,7,NA
fcp-trial,380,2455830,0.0-293.0-0.0,voc_e2,12049,"[{""event"":""fullscreenenter"",""trial"":1,""time"":4300}]",NA,NA,NA,NA,NA,6,#3386FF,#D89F1C,10,10,0,38,1,1108.9000000357628,39,0,742.8999999761581,10,1,experiment,NA,NA,2,0.5,0.5,5,4,283,7,NA
fcp-trial,381,2459262,0.0-294.0-0.0,voc_e2,12049,"[{""event"":""fullscreenenter"",""trial"":1,""time"":4300}]",NA,NA,NA,NA,NA,2,#D89F1C,#3386FF,0,0,1,38,1,1278.199999988079,37,1,647.0999999642372,0,1,experiment,NA,NA,2,0.5,0.5,4,5,284,7,NA
fcp-trial,382,2462599,0.0-295.0-0.0,voc_e2,12049,"[{""event"":""fullscreenenter"",""trial"":1,""time"":4300}]",NA,NA,NA,NA,NA,0,#D8271C,#741CD8,10,0,1,38,1,1296.3999999761581,37,1,533.8999999761581,10,1,experiment,NA,NA,1,0.7,0.3,2,3,285,7,NA
fcp-trial,383,2467805,0.0-296.0-0.0,voc_e2,12049,"[{""event"":""fullscreenenter"",""trial"":1,""time"":4300}]",NA,NA,NA,NA,NA,3,#D89F1C,#3386FF,0,0,1,38,1,3049.2000000476837,37,1,652.8000000119209,0,1,experiment,NA,NA,2,0.5,0.5,4,5,286,7,NA
fcp-trial,384,2474025,0.0-297.0-0.0,voc_e2,12049,"[{""event"":""fullscreenenter"",""trial"":1,""time"":4300}]",NA,NA,NA,NA,NA,6,#1CD855,#FA92F8,10,0,1,40,0,1768.8999999761581,37,1,2936.800000011921,10,1,experiment,NA,NA,0,0.9,0.1,0,1,287,7,NA
fcp-trial,385,2478373,0.0-298.0-0.0,voc_e2,12049,"[{""event"":""fullscreenenter"",""trial"":1,""time"":4300}]",NA,NA,NA,NA,NA,2,#741CD8,#D8271C,0,0,0,38,1,2452.199999988079,39,0,391.10000002384186,0,1,experiment,NA,NA,1,0.3,0.7,3,2,288,7,NA
fcp-trial,386,2481261,0.0-299.0-0.0,voc_e2,12049,"[{""event"":""fullscreenenter"",""trial"":1,""time"":4300}]",NA,NA,NA,NA,NA,1,#1CD855,#FA92F8,10,0,1,38,1,1076.800000011921,37,1,305.89999997615814,10,1,experiment,NA,NA,0,0.9,0.1,0,1,289,7,NA
fcp-trial,387,2485109,0.0-300.0-0.0,voc_e2,12049,"[{""event"":""fullscreenenter"",""trial"":1,""time"":4300}]",NA,NA,NA,NA,NA,4,#3386FF,#D89F1C,0,0,0,38,1,1924.300000011921,39,0,418.5,0,1,experiment,NA,NA,2,0.5,0.5,5,4,290,7,NA
fcp-trial,388,2489502,0.0-301.0-0.0,voc_e2,12049,"[{""event"":""fullscreenenter"",""trial"":1,""time"":4300}]",NA,NA,NA,NA,NA,3,#FA92F8,#1CD855,0,10,0,38,1,2152.599999964237,39,0,734.3999999761581,10,1,experiment,NA,NA,0,0.1,0.9,1,0,291,7,NA
fcp-trial,389,2492358,0.0-302.0-0.0,voc_e2,12049,"[{""event"":""fullscreenenter"",""trial"":1,""time"":4300}]",NA,NA,NA,NA,NA,6,#741CD8,#D8271C,0,0,0,38,1,1048.199999988079,39,0,303.39999997615814,0,1,experiment,NA,NA,1,0.3,0.7,3,2,292,7,NA
fcp-trial,390,2496159,0.0-303.0-0.0,voc_e2,12049,"[{""event"":""fullscreenenter"",""trial"":1,""time"":4300}]",NA,NA,NA,NA,NA,5,#D89F1C,#3386FF,0,10,1,38,1,1964.3999999761581,37,1,328.5,0,1,experiment,NA,NA,2,0.5,0.5,4,5,293,7,NA
fcp-trial,391,2500141,0.0-304.0-0.0,voc_e2,12049,"[{""event"":""fullscreenenter"",""trial"":1,""time"":4300}]",NA,NA,NA,NA,NA,5,#D8271C,#741CD8,10,0,1,38,1,1070.699999988079,37,1,1405.699999988079,10,1,experiment,NA,NA,1,0.7,0.3,2,3,294,7,NA
fcp-trial,392,2502765,0.0-305.0-0.0,voc_e2,12049,"[{""event"":""fullscreenenter"",""trial"":1,""time"":4300}]",NA,NA,NA,NA,NA,5,#FA92F8,#1CD855,0,10,0,38,1,845.6000000238419,39,0,270.30000001192093,10,1,experiment,NA,NA,0,0.1,0.9,1,0,295,7,NA
fcp-trial,393,2505166,0.0-306.0-0.0,voc_e2,12049,"[{""event"":""fullscreenenter"",""trial"":1,""time"":4300}]",NA,NA,NA,NA,NA,0,#D89F1C,#3386FF,0,0,1,38,1,594.6999999880791,39,0,300.0999999642372,0,0,experiment,NA,NA,2,0.5,0.5,4,5,296,7,NA
fcp-trial,394,2509243,0.0-307.0-0.0,voc_e2,12049,"[{""event"":""fullscreenenter"",""trial"":1,""time"":4300}]",NA,NA,NA,NA,NA,1,#741CD8,#D8271C,0,0,0,38,1,1522.2999999523163,39,0,1045.800000011921,0,1,experiment,NA,NA,1,0.3,0.7,3,2,297,7,NA
fcp-trial,395,2513006,0.0-308.0-0.0,voc_e2,12049,"[{""event"":""fullscreenenter"",""trial"":1,""time"":4300}]",NA,NA,NA,NA,NA,5,#D89F1C,#3386FF,0,0,1,38,1,1922.699999988079,37,1,335.60000002384186,0,1,experiment,NA,NA,2,0.5,0.5,4,5,298,7,NA
fcp-trial,396,2517601,0.0-309.0-0.0,voc_e2,12049,"[{""event"":""fullscreenenter"",""trial"":1,""time"":4300}]",NA,NA,NA,NA,NA,0,#1CD855,#FA92F8,10,0,1,38,1,2462.900000035763,37,1,624.0999999642372,10,1,experiment,NA,NA,0,0.9,0.1,0,1,299,7,NA
fcp-trial,397,2520639,0.0-310.0-0.0,voc_e2,12049,"[{""event"":""fullscreenenter"",""trial"":1,""time"":4300}]",NA,NA,NA,NA,NA,5,#D8271C,#741CD8,0,0,1,38,1,1130.5999999642372,37,1,400.39999997615814,0,1,experiment,NA,NA,1,0.7,0.3,2,3,300,7,NA
fcp-trial,398,2525430,0.0-311.0-0.0,voc_e2,12049,"[{""event"":""fullscreenenter"",""trial"":1,""time"":4300}]",NA,NA,NA,NA,NA,6,#D8271C,#741CD8,0,0,1,38,1,2532.599999964237,37,1,747.6000000238419,0,1,experiment,NA,NA,1,0.7,0.3,2,3,301,7,NA
fcp-trial,399,2534254,0.0-312.0-0.0,voc_e2,12049,"[{""event"":""fullscreenenter"",""trial"":1,""time"":4300}]",NA,NA,NA,NA,NA,1,#3386FF,#D89F1C,0,10,0,38,1,6902.5,39,0,415,10,1,experiment,NA,NA,2,0.5,0.5,5,4,302,7,NA
fcp-trial,400,2537678,0.0-313.0-0.0,voc_e2,12049,"[{""event"":""fullscreenenter"",""trial"":1,""time"":4300}]",NA,NA,NA,NA,NA,3,#741CD8,#D8271C,0,10,0,38,1,1287.800000011921,39,0,630.8000000119209,10,1,experiment,NA,NA,1,0.3,0.7,3,2,303,7,NA
fcp-trial,401,2540463,0.0-314.0-0.0,voc_e2,12049,"[{""event"":""fullscreenenter"",""trial"":1,""time"":4300}]",NA,NA,NA,NA,NA,2,#1CD855,#FA92F8,10,0,1,38,1,943.1999999880791,37,1,336.69999998807907,10,1,experiment,NA,NA,0,0.9,0.1,0,1,304,7,NA
fcp-trial,402,2545318,0.0-315.0-0.0,voc_e2,12049,"[{""event"":""fullscreenenter"",""trial"":1,""time"":4300}]",NA,NA,NA,NA,NA,4,#FA92F8,#1CD855,0,10,0,38,1,2958,39,0,389.89999997615814,10,1,experiment,NA,NA,0,0.1,0.9,1,0,305,7,NA
fcp-trial,403,2548774,0.0-316.0-0.0,voc_e2,12049,"[{""event"":""fullscreenenter"",""trial"":1,""time"":4300}]",NA,NA,NA,NA,NA,6,#D89F1C,#3386FF,10,10,1,38,1,1475.800000011921,37,1,472.30000001192093,10,1,experiment,NA,NA,2,0.5,0.5,4,5,306,7,NA
fcp-trial,404,2552165,0.0-317.0-0.0,voc_e2,12049,"[{""event"":""fullscreenenter"",""trial"":1,""time"":4300}]",NA,NA,NA,NA,NA,0,#741CD8,#D8271C,0,10,0,38,1,1359.2000000476837,39,0,526.6999999880791,10,1,experiment,NA,NA,1,0.3,0.7,3,2,307,7,NA
fcp-trial,405,2555367,0.0-318.0-0.0,voc_e2,12049,"[{""event"":""fullscreenenter"",""trial"":1,""time"":4300}]",NA,NA,NA,NA,NA,2,#3386FF,#D89F1C,10,10,0,38,1,1247.5,39,0,448.0999999642372,10,1,experiment,NA,NA,2,0.5,0.5,5,4,308,7,NA
fcp-trial,406,2559303,0.0-319.0-0.0,voc_e2,12049,"[{""event"":""fullscreenenter"",""trial"":1,""time"":4300}]",NA,NA,NA,NA,NA,3,#D89F1C,#3386FF,0,10,1,38,1,1448.7000000476837,37,1,982,0,1,experiment,NA,NA,2,0.5,0.5,4,5,309,7,NA
fcp-trial,407,2563544,0.0-320.0-0.0,voc_e2,12049,"[{""event"":""fullscreenenter"",""trial"":1,""time"":4300}]",NA,NA,NA,NA,NA,3,#1CD855,#FA92F8,10,0,1,38,1,2357.800000011921,37,1,376.39999997615814,10,1,experiment,NA,NA,0,0.9,0.1,0,1,310,7,NA
fcp-trial,408,2571462,0.0-321.0-0.0,voc_e2,12049,"[{""event"":""fullscreenenter"",""trial"":1,""time"":4300}]",NA,NA,NA,NA,NA,1,#1CD855,#FA92F8,10,0,1,38,1,6006.100000023842,37,1,406.5,10,1,experiment,NA,NA,0,0.9,0.1,0,1,311,7,NA
fcp-trial,409,2574511,0.0-322.0-0.0,voc_e2,12049,"[{""event"":""fullscreenenter"",""trial"":1,""time"":4300}]",NA,NA,NA,NA,NA,4,#741CD8,#D8271C,0,10,0,38,1,1159.7000000476837,39,0,385.19999998807907,10,1,experiment,NA,NA,1,0.3,0.7,3,2,312,7,NA
fcp-trial,410,2578261,0.0-323.0-0.0,voc_e2,12049,"[{""event"":""fullscreenenter"",""trial"":1,""time"":4300}]",NA,NA,NA,NA,NA,6,#1CD855,#FA92F8,10,0,1,38,1,1899.800000011921,37,1,335.39999997615814,10,1,experiment,NA,NA,0,0.9,0.1,0,1,313,7,NA
fcp-trial,411,2584670,0.0-324.0-0.0,voc_e2,12049,"[{""event"":""fullscreenenter"",""trial"":1,""time"":4300}]",NA,NA,NA,NA,NA,4,#D89F1C,#3386FF,0,0,1,38,1,4586.900000035763,37,1,311,0,1,experiment,NA,NA,2,0.5,0.5,4,5,314,7,NA
fcp-trial,412,2589686,0.0-325.0-0.0,voc_e2,12049,"[{""event"":""fullscreenenter"",""trial"":1,""time"":4300}]",NA,NA,NA,NA,NA,2,#D8271C,#741CD8,10,0,1,38,1,1719,37,1,1792.199999988079,10,1,experiment,NA,NA,1,0.7,0.3,2,3,315,7,NA
audio-instructions,413,2597769,0.0-326.0,voc_e2,12049,"[{""event"":""fullscreenenter"",""trial"":1,""time"":4300}]",NA,2022,static/audio/finished.wav,NA,0,NA,NA,NA,NA,NA,NA,NA,NA,NA,NA,NA,NA,NA,NA,NA,NA,NA,NA,NA,NA,NA,NA,NA,NA,NA
audio-instructions,414,2611786,0.0-327.0-0.0,voc_e2,12049,"[{""event"":""fullscreenenter"",""trial"":1,""time"":4300}]",NA,3177.5,static/audio/explicit1.wav,NA,0,NA,NA,NA,NA,NA,NA,NA,NA,NA,NA,NA,NA,NA,NA,NA,NA,NA,NA,NA,NA,NA,NA,NA,NA,NA
audio-instructions,415,2619896,0.0-327.0-1.0,voc_e2,12049,"[{""event"":""fullscreenenter"",""trial"":1,""time"":4300}]",NA,509.800000011921,static/audio/explicit2.wav,NA,0,NA,NA,NA,NA,NA,NA,NA,NA,NA,NA,NA,NA,NA,NA,NA,NA,NA,NA,NA,NA,NA,NA,NA,NA,NA
image-slider-response,416,2627297,0.0-328.0,voc_e2,12049,"[{""event"":""fullscreenenter"",""trial"":1,""time"":4300}]",NA,7397.899999976158,static/img/machines/machine4.png,NA,NA,NA,NA,NA,NA,NA,NA,NA,NA,NA,NA,NA,NA,NA,NA,explicit,NA,NA,NA,NA,NA,NA,NA,NA,NA,7
image-slider-response,417,2637763,0.0-329.0,voc_e2,12049,"[{""event"":""fullscreenenter"",""trial"":1,""time"":4300}]",NA,10464.399999976158,static/img/machines/machine6.png,NA,NA,NA,NA,NA,NA,NA,NA,NA,NA,NA,NA,NA,NA,NA,NA,explicit,NA,NA,NA,NA,NA,NA,NA,NA,NA,8
image-slider-response,418,2647634,0.0-330.0,voc_e2,12049,"[{""event"":""fullscreenenter"",""trial"":1,""time"":4300}]",NA,9868.5,static/img/machines/machine5.png,NA,NA,NA,NA,NA,NA,NA,NA,NA,NA,NA,NA,NA,NA,NA,NA,explicit,NA,NA,NA,NA,NA,NA,NA,NA,NA,3
