trial_type,trial_index,time_elapsed,internal_node_id,task_version,subject_id,interactions,success,rt,stimulus,key_press,button_pressed,offer,arcade_color_L,arcade_color_R,arcade_outcome_L,arcade_outcome_R,correct,stage_1_key,stage_1_choice,stage_1_rt,stage_2_key,stage_2_choice,stage_2_rt,stage_3_outcome,accuracy,phase,responses,num_errors,context,reward_prob_L,reward_prob_R,arcade_id_L,arcade_id_R,trial,block,response
pavlovia,0,24,0.0-0.0,voc_e2,11913,"[{""event"":""focus"",""trial"":0,""time"":0}]",NA,NA,NA,NA,NA,NA,NA,NA,NA,NA,NA,NA,NA,NA,NA,NA,NA,NA,NA,NA,NA,NA,NA,NA,NA,NA,NA,NA,NA,NA
fullscreen,1,7970,0.0-1.0,voc_e2,11913,"[{""event"":""focus"",""trial"":0,""time"":0},{""event"":""fullscreenenter"",""trial"":1,""time"":7230}]",TRUE,NA,NA,NA,NA,NA,NA,NA,NA,NA,NA,NA,NA,NA,NA,NA,NA,NA,NA,NA,NA,NA,NA,NA,NA,NA,NA,NA,NA,NA
audio-keyboard-response,2,11986,0.0-2.0,voc_e2,11913,"[{""event"":""focus"",""trial"":0,""time"":0},{""event"":""fullscreenenter"",""trial"":1,""time"":7230}]",NA,3880,static/audio/beep_loop.wav,32,NA,NA,NA,NA,NA,NA,NA,NA,NA,NA,NA,NA,NA,NA,NA,NA,NA,NA,NA,NA,NA,NA,NA,NA,NA,NA
audio-test,3,13726,0.0-3.0,voc_e2,11913,"[{""event"":""focus"",""trial"":0,""time"":0},{""event"":""fullscreenenter"",""trial"":1,""time"":7230}]",NA,NA,static/audio/turtle.wav,NA,3,NA,NA,NA,NA,NA,NA,NA,NA,NA,NA,NA,NA,NA,NA,NA,NA,NA,NA,NA,NA,NA,NA,NA,NA,NA
audio-test,4,15854,0.0-4.0,voc_e2,11913,"[{""event"":""focus"",""trial"":0,""time"":0},{""event"":""fullscreenenter"",""trial"":1,""time"":7230}]",NA,NA,static/audio/shark.wav,NA,2,NA,NA,NA,NA,NA,NA,NA,NA,NA,NA,NA,NA,NA,NA,NA,NA,NA,NA,NA,NA,NA,NA,NA,NA,NA
audio-instructions,5,22453,0.0-5.0-0.0,voc_e2,11913,"[{""event"":""focus"",""trial"":0,""time"":0},{""event"":""fullscreenenter"",""trial"":1,""time"":7230}]",NA,796,static/audio/instructions1.wav,NA,0,NA,NA,NA,NA,NA,NA,NA,NA,NA,NA,NA,NA,NA,NA,NA,NA,NA,NA,NA,NA,NA,NA,NA,NA,NA
audio-instructions,6,35042,0.0-5.0-1.0,voc_e2,11913,"[{""event"":""focus"",""trial"":0,""time"":0},{""event"":""fullscreenenter"",""trial"":1,""time"":7230}]",NA,5844,static/audio/instructions2.wav,NA,0,NA,NA,NA,NA,NA,NA,NA,NA,NA,NA,NA,NA,NA,NA,NA,NA,NA,NA,NA,NA,NA,NA,NA,NA,NA
audio-instructions,7,44283,0.0-5.0-2.0,voc_e2,11913,"[{""event"":""focus"",""trial"":0,""time"":0},{""event"":""fullscreenenter"",""trial"":1,""time"":7230}]",NA,3427,static/audio/instructions3.wav,NA,0,NA,NA,NA,NA,NA,NA,NA,NA,NA,NA,NA,NA,NA,NA,NA,NA,NA,NA,NA,NA,NA,NA,NA,NA,NA
audio-instructions,8,62991,0.0-5.0-3.0,voc_e2,11913,"[{""event"":""focus"",""trial"":0,""time"":0},{""event"":""fullscreenenter"",""trial"":1,""time"":7230}]",NA,5473,static/audio/instructions4.wav,NA,0,NA,NA,NA,NA,NA,NA,NA,NA,NA,NA,NA,NA,NA,NA,NA,NA,NA,NA,NA,NA,NA,NA,NA,NA,NA
audio-instructions,9,78740,0.0-5.0-4.0,voc_e2,11913,"[{""event"":""focus"",""trial"":0,""time"":0},{""event"":""fullscreenenter"",""trial"":1,""time"":7230}]",NA,6352,static/audio/instructions5.wav,NA,0,NA,NA,NA,NA,NA,NA,NA,NA,NA,NA,NA,NA,NA,NA,NA,NA,NA,NA,NA,NA,NA,NA,NA,NA,NA
fcp-practice,10,81763,0.0-5.0-5.0-0.0,voc_e2,11913,"[{""event"":""focus"",""trial"":0,""time"":0},{""event"":""fullscreenenter"",""trial"":1,""time"":7230}]",NA,NA,NA,NA,NA,NA,#EDC948,#46d3c8,10,0,1,null,null,null,37,1,1509,10,1,practice,NA,NA,NA,NA,NA,NA,NA,NA,NA,NA
fcp-practice,11,89475,0.0-5.0-5.0-1.0,voc_e2,11913,"[{""event"":""focus"",""trial"":0,""time"":0},{""event"":""fullscreenenter"",""trial"":1,""time"":7230}]",NA,NA,NA,NA,NA,NA,#EDC948,#46d3c8,10,0,1,null,null,null,37,1,6192,10,1,practice,NA,NA,NA,NA,NA,NA,NA,NA,NA,NA
fcp-practice,12,94611,0.0-5.0-5.0-2.0,voc_e2,11913,"[{""event"":""focus"",""trial"":0,""time"":0},{""event"":""fullscreenenter"",""trial"":1,""time"":7230}]",NA,NA,NA,NA,NA,NA,#EDC948,#46d3c8,0,10,1,null,null,null,37,1,3617,0,1,practice,NA,NA,NA,NA,NA,NA,NA,NA,NA,NA
fcp-practice,13,101034,0.0-5.0-5.0-3.0,voc_e2,11913,"[{""event"":""focus"",""trial"":0,""time"":0},{""event"":""fullscreenenter"",""trial"":1,""time"":7230}]",NA,NA,NA,NA,NA,NA,#EDC948,#46d3c8,10,0,1,null,null,null,37,1,4762,10,1,practice,NA,NA,NA,NA,NA,NA,NA,NA,NA,NA
fcp-practice,14,104746,0.0-5.0-5.0-4.0,voc_e2,11913,"[{""event"":""focus"",""trial"":0,""time"":0},{""event"":""fullscreenenter"",""trial"":1,""time"":7230}]",NA,NA,NA,NA,NA,NA,#EDC948,#46d3c8,10,0,1,null,null,null,37,1,2192,10,1,practice,NA,NA,NA,NA,NA,NA,NA,NA,NA,NA
audio-instructions,15,126730,0.0-5.0-6.0,voc_e2,11913,"[{""event"":""focus"",""trial"":0,""time"":0},{""event"":""fullscreenenter"",""trial"":1,""time"":7230}]",NA,3962,static/audio/instructions6.wav,NA,0,NA,NA,NA,NA,NA,NA,NA,NA,NA,NA,NA,NA,NA,NA,NA,NA,NA,NA,NA,NA,NA,NA,NA,NA,NA
audio-instructions,16,158619,0.0-5.0-7.0,voc_e2,11913,"[{""event"":""focus"",""trial"":0,""time"":0},{""event"":""fullscreenenter"",""trial"":1,""time"":7230}]",NA,12682,static/audio/instructions7.wav,NA,0,NA,NA,NA,NA,NA,NA,NA,NA,NA,NA,NA,NA,NA,NA,NA,NA,NA,NA,NA,NA,NA,NA,NA,NA,NA
audio-instructions,17,171132,0.0-5.0-8.0,voc_e2,11913,"[{""event"":""focus"",""trial"":0,""time"":0},{""event"":""fullscreenenter"",""trial"":1,""time"":7230}]",NA,3023,static/audio/instructions8.wav,NA,0,NA,NA,NA,NA,NA,NA,NA,NA,NA,NA,NA,NA,NA,NA,NA,NA,NA,NA,NA,NA,NA,NA,NA,NA,NA
fcp-comprehension,18,187693,0.0-5.0-9.0,voc_e2,11913,"[{""event"":""focus"",""trial"":0,""time"":0},{""event"":""fullscreenenter"",""trial"":1,""time"":7230}]",NA,16559,NA,NA,NA,NA,NA,NA,NA,NA,NA,NA,NA,NA,NA,NA,NA,NA,NA,NA,"true,true",0,NA,NA,NA,NA,NA,NA,NA,NA
audio-instructions,19,194859,0.0-6.0-0.0,voc_e2,11913,"[{""event"":""focus"",""trial"":0,""time"":0},{""event"":""fullscreenenter"",""trial"":1,""time"":7230}]",NA,1611,static/audio/instructions9.wav,NA,0,NA,NA,NA,NA,NA,NA,NA,NA,NA,NA,NA,NA,NA,NA,NA,NA,NA,NA,NA,NA,NA,NA,NA,NA,NA
audio-instructions,20,213429,0.0-6.0-1.0,voc_e2,11913,"[{""event"":""focus"",""trial"":0,""time"":0},{""event"":""fullscreenenter"",""trial"":1,""time"":7230}]",NA,6442,static/audio/instructions10.wav,NA,0,NA,NA,NA,NA,NA,NA,NA,NA,NA,NA,NA,NA,NA,NA,NA,NA,NA,NA,NA,NA,NA,NA,NA,NA,NA
fcp-trial,21,221269,0.0-6.0-2.0,voc_e2,11913,"[{""event"":""focus"",""trial"":0,""time"":0},{""event"":""fullscreenenter"",""trial"":1,""time"":7230}]",NA,NA,NA,NA,NA,0,#EDC948,#46d3c8,10,10,1,38,1,5370,37,1,933,10,1,practice,NA,NA,NA,NA,NA,NA,NA,NA,NA,NA
audio-instructions,22,239423,0.0-6.0-3.0,voc_e2,11913,"[{""event"":""focus"",""trial"":0,""time"":0},{""event"":""fullscreenenter"",""trial"":1,""time"":7230}]",NA,7136,static/audio/instructions11.wav,NA,0,NA,NA,NA,NA,NA,NA,NA,NA,NA,NA,NA,NA,NA,NA,NA,NA,NA,NA,NA,NA,NA,NA,NA,NA,NA
fcp-trial,23,244425,0.0-6.0-4.0,voc_e2,11913,"[{""event"":""focus"",""trial"":0,""time"":0},{""event"":""fullscreenenter"",""trial"":1,""time"":7230}]",NA,NA,NA,NA,NA,6,#EDC948,#46d3c8,10,10,1,40,0,2015,37,1,1465,10,1,practice,NA,NA,NA,NA,NA,NA,NA,NA,NA,NA
audio-instructions,24,379947,0.0-6.0-5.0,voc_e2,11913,"[{""event"":""focus"",""trial"":0,""time"":0},{""event"":""fullscreenenter"",""trial"":1,""time"":7230}]",NA,116819,static/audio/instructions12.wav,NA,0,NA,NA,NA,NA,NA,NA,NA,NA,NA,NA,NA,NA,NA,NA,NA,NA,NA,NA,NA,NA,NA,NA,NA,NA,NA
audio-instructions,25,389227,0.0-6.0-6.0,voc_e2,11913,"[{""event"":""focus"",""trial"":0,""time"":0},{""event"":""fullscreenenter"",""trial"":1,""time"":7230}]",NA,1670,static/audio/instructions13.wav,NA,0,NA,NA,NA,NA,NA,NA,NA,NA,NA,NA,NA,NA,NA,NA,NA,NA,NA,NA,NA,NA,NA,NA,NA,NA,NA
audio-instructions,26,399031,0.0-6.0-7.0,voc_e2,11913,"[{""event"":""focus"",""trial"":0,""time"":0},{""event"":""fullscreenenter"",""trial"":1,""time"":7230}]",NA,1343,static/audio/instructions14.wav,NA,0,NA,NA,NA,NA,NA,NA,NA,NA,NA,NA,NA,NA,NA,NA,NA,NA,NA,NA,NA,NA,NA,NA,NA,NA,NA
audio-instructions,27,407308,0.0-7.0-0.0,voc_e2,11913,"[{""event"":""focus"",""trial"":0,""time"":0},{""event"":""fullscreenenter"",""trial"":1,""time"":7230}]",NA,1351,static/audio/instructions15.wav,NA,0,NA,NA,NA,NA,NA,NA,NA,NA,NA,NA,NA,NA,NA,NA,NA,NA,NA,NA,NA,NA,NA,NA,NA,NA,NA
audio-instructions,28,415680,0.0-7.0-1.0,voc_e2,11913,"[{""event"":""focus"",""trial"":0,""time"":0},{""event"":""fullscreenenter"",""trial"":1,""time"":7230}]",NA,1534,static/audio/instructions16.wav,NA,0,NA,NA,NA,NA,NA,NA,NA,NA,NA,NA,NA,NA,NA,NA,NA,NA,NA,NA,NA,NA,NA,NA,NA,NA,NA
audio-instructions,29,426018,0.0-7.0-2.0,voc_e2,11913,"[{""event"":""focus"",""trial"":0,""time"":0},{""event"":""fullscreenenter"",""trial"":1,""time"":7230}]",NA,2651,static/audio/instructions17.wav,NA,0,NA,NA,NA,NA,NA,NA,NA,NA,NA,NA,NA,NA,NA,NA,NA,NA,NA,NA,NA,NA,NA,NA,NA,NA,NA
audio-instructions,30,436017,0.0-7.0-3.0,voc_e2,11913,"[{""event"":""focus"",""trial"":0,""time"":0},{""event"":""fullscreenenter"",""trial"":1,""time"":7230}]",NA,2220,static/audio/instructions18.wav,NA,0,NA,NA,NA,NA,NA,NA,NA,NA,NA,NA,NA,NA,NA,NA,NA,NA,NA,NA,NA,NA,NA,NA,NA,NA,NA
audio-instructions,31,443912,0.0-7.0-4.0,voc_e2,11913,"[{""event"":""focus"",""trial"":0,""time"":0},{""event"":""fullscreenenter"",""trial"":1,""time"":7230}]",NA,1146,static/audio/instructions19.wav,NA,0,NA,NA,NA,NA,NA,NA,NA,NA,NA,NA,NA,NA,NA,NA,NA,NA,NA,NA,NA,NA,NA,NA,NA,NA,NA
fcp-comprehension,32,454029,0.0-7.0-5.0,voc_e2,11913,"[{""event"":""focus"",""trial"":0,""time"":0},{""event"":""fullscreenenter"",""trial"":1,""time"":7230}]",NA,10115,NA,NA,NA,NA,NA,NA,NA,NA,NA,NA,NA,NA,NA,NA,NA,NA,NA,NA,"false,false,false,true",0,NA,NA,NA,NA,NA,NA,NA,NA
audio-instructions,33,464434,0.0-8.0,voc_e2,11913,"[{""event"":""focus"",""trial"":0,""time"":0},{""event"":""fullscreenenter"",""trial"":1,""time"":7230}]",NA,1178,static/audio/ready.wav,NA,0,NA,NA,NA,NA,NA,NA,NA,NA,NA,NA,NA,NA,NA,NA,NA,NA,NA,NA,NA,NA,NA,NA,NA,NA,NA
fcp-trial,34,469832,0.0-9.0-0.0,voc_e2,11913,"[{""event"":""focus"",""trial"":0,""time"":0},{""event"":""fullscreenenter"",""trial"":1,""time"":7230}]",NA,NA,NA,NA,NA,4,#D8271C,#741CD8,10,0,1,40,0,3070,39,0,805,0,0,experiment,NA,NA,2,0.5,0.5,4,5,1,1,NA
fcp-trial,35,473175,0.0-10.0-0.0,voc_e2,11913,"[{""event"":""focus"",""trial"":0,""time"":0},{""event"":""fullscreenenter"",""trial"":1,""time"":7230}]",NA,NA,NA,NA,NA,6,#741CD8,#D8271C,0,10,0,40,0,1136,37,1,575,0,0,experiment,NA,NA,2,0.5,0.5,5,4,2,1,NA
fcp-trial,36,476466,0.0-11.0-0.0,voc_e2,11913,"[{""event"":""focus"",""trial"":0,""time"":0},{""event"":""fullscreenenter"",""trial"":1,""time"":7230}]",NA,NA,NA,NA,NA,3,#D89F1C,#3386FF,10,0,1,40,0,576,39,0,1188,0,0,experiment,NA,NA,0,0.9,0.1,0,1,3,1,NA
fcp-trial,37,479420,0.0-12.0-0.0,voc_e2,11913,"[{""event"":""focus"",""trial"":0,""time"":0},{""event"":""fullscreenenter"",""trial"":1,""time"":7230}]",NA,NA,NA,NA,NA,2,#D8271C,#741CD8,10,10,1,40,0,718,39,0,702,10,0,experiment,NA,NA,2,0.5,0.5,4,5,4,1,NA
fcp-trial,38,483505,0.0-13.0-0.0,voc_e2,11913,"[{""event"":""focus"",""trial"":0,""time"":0},{""event"":""fullscreenenter"",""trial"":1,""time"":7230}]",NA,NA,NA,NA,NA,5,#FA92F8,#1CD855,10,10,0,40,0,1867,37,1,694,10,0,experiment,NA,NA,1,0.3,0.7,3,2,5,1,NA
fcp-trial,39,487034,0.0-14.0-0.0,voc_e2,11913,"[{""event"":""focus"",""trial"":0,""time"":0},{""event"":""fullscreenenter"",""trial"":1,""time"":7230}]",NA,NA,NA,NA,NA,2,#3386FF,#D89F1C,0,10,0,40,0,1359,37,1,628,0,0,experiment,NA,NA,0,0.1,0.9,1,0,6,1,NA
fcp-trial,40,491173,0.0-15.0-0.0,voc_e2,11913,"[{""event"":""focus"",""trial"":0,""time"":0},{""event"":""fullscreenenter"",""trial"":1,""time"":7230}]",NA,NA,NA,NA,NA,0,#FA92F8,#1CD855,0,0,0,40,0,1545,37,1,1074,0,0,experiment,NA,NA,1,0.3,0.7,3,2,7,1,NA
fcp-trial,41,494674,0.0-16.0-0.0,voc_e2,11913,"[{""event"":""focus"",""trial"":0,""time"":0},{""event"":""fullscreenenter"",""trial"":1,""time"":7230}]",NA,NA,NA,NA,NA,4,#1CD855,#FA92F8,0,10,1,40,0,1156,39,0,818,10,0,experiment,NA,NA,1,0.7,0.3,2,3,8,1,NA
fcp-trial,42,498449,0.0-17.0-0.0,voc_e2,11913,"[{""event"":""focus"",""trial"":0,""time"":0},{""event"":""fullscreenenter"",""trial"":1,""time"":7230}]",NA,NA,NA,NA,NA,0,#741CD8,#D8271C,10,10,0,40,0,1648,37,1,592,10,0,experiment,NA,NA,2,0.5,0.5,5,4,9,1,NA
fcp-trial,43,502284,0.0-18.0-0.0,voc_e2,11913,"[{""event"":""focus"",""trial"":0,""time"":0},{""event"":""fullscreenenter"",""trial"":1,""time"":7230}]",NA,NA,NA,NA,NA,6,#D89F1C,#3386FF,10,0,1,40,0,1384,39,0,925,0,0,experiment,NA,NA,0,0.9,0.1,0,1,10,1,NA
fcp-trial,44,505501,0.0-19.0-0.0,voc_e2,11913,"[{""event"":""focus"",""trial"":0,""time"":0},{""event"":""fullscreenenter"",""trial"":1,""time"":7230}]",NA,NA,NA,NA,NA,0,#D89F1C,#3386FF,10,0,1,40,0,1004,39,0,694,0,0,experiment,NA,NA,0,0.9,0.1,0,1,11,1,NA
fcp-trial,45,509055,0.0-20.0-0.0,voc_e2,11913,"[{""event"":""focus"",""trial"":0,""time"":0},{""event"":""fullscreenenter"",""trial"":1,""time"":7230}]",NA,NA,NA,NA,NA,2,#FA92F8,#1CD855,0,10,0,40,0,1068,39,0,872,10,1,experiment,NA,NA,1,0.3,0.7,3,2,12,1,NA
fcp-trial,46,511421,0.0-21.0-0.0,voc_e2,11913,"[{""event"":""focus"",""trial"":0,""time"":0},{""event"":""fullscreenenter"",""trial"":1,""time"":7230}]",NA,NA,NA,NA,NA,1,#D8271C,#741CD8,10,0,1,40,0,426,37,1,416,10,1,experiment,NA,NA,2,0.5,0.5,4,5,13,1,NA
fcp-trial,47,514215,0.0-22.0-0.0,voc_e2,11913,"[{""event"":""focus"",""trial"":0,""time"":0},{""event"":""fullscreenenter"",""trial"":1,""time"":7230}]",NA,NA,NA,NA,NA,1,#FA92F8,#1CD855,10,10,0,40,0,549,39,0,718,10,1,experiment,NA,NA,1,0.3,0.7,3,2,14,1,NA
fcp-trial,48,519361,0.0-23.0-0.0,voc_e2,11913,"[{""event"":""focus"",""trial"":0,""time"":0},{""event"":""fullscreenenter"",""trial"":1,""time"":7230}]",NA,NA,NA,NA,NA,5,#D89F1C,#3386FF,10,0,1,40,0,2981,37,1,644,10,1,experiment,NA,NA,0,0.9,0.1,0,1,15,1,NA
fcp-trial,49,523406,0.0-24.0-0.0,voc_e2,11913,"[{""event"":""focus"",""trial"":0,""time"":0},{""event"":""fullscreenenter"",""trial"":1,""time"":7230}]",NA,NA,NA,NA,NA,1,#D89F1C,#3386FF,10,0,1,40,0,1746,39,0,631,0,0,experiment,NA,NA,0,0.9,0.1,0,1,16,1,NA
fcp-trial,50,529262,0.0-25.0-0.0,voc_e2,11913,"[{""event"":""focus"",""trial"":0,""time"":0},{""event"":""fullscreenenter"",""trial"":1,""time"":7230}]",NA,NA,NA,NA,NA,5,#D8271C,#741CD8,10,10,1,40,0,1532,37,1,2807,10,1,experiment,NA,NA,2,0.5,0.5,4,5,17,1,NA
fcp-trial,51,532408,0.0-26.0-0.0,voc_e2,11913,"[{""event"":""focus"",""trial"":0,""time"":0},{""event"":""fullscreenenter"",""trial"":1,""time"":7230}]",NA,NA,NA,NA,NA,6,#FA92F8,#1CD855,10,10,0,40,0,564,37,1,1049,10,0,experiment,NA,NA,1,0.3,0.7,3,2,18,1,NA
fcp-trial,52,535199,0.0-27.0-0.0,voc_e2,11913,"[{""event"":""focus"",""trial"":0,""time"":0},{""event"":""fullscreenenter"",""trial"":1,""time"":7230}]",NA,NA,NA,NA,NA,4,#D89F1C,#3386FF,10,0,1,40,0,538,39,0,739,0,0,experiment,NA,NA,0,0.9,0.1,0,1,19,1,NA
fcp-trial,53,538125,0.0-28.0-0.0,voc_e2,11913,"[{""event"":""focus"",""trial"":0,""time"":0},{""event"":""fullscreenenter"",""trial"":1,""time"":7230}]",NA,NA,NA,NA,NA,3,#741CD8,#D8271C,0,0,0,40,0,628,37,1,762,0,0,experiment,NA,NA,2,0.5,0.5,5,4,20,1,NA
fcp-trial,54,542090,0.0-29.0-0.0,voc_e2,11913,"[{""event"":""focus"",""trial"":0,""time"":0},{""event"":""fullscreenenter"",""trial"":1,""time"":7230}]",NA,NA,NA,NA,NA,3,#FA92F8,#1CD855,10,10,0,40,0,1726,37,1,725,10,0,experiment,NA,NA,1,0.3,0.7,3,2,21,1,NA
fcp-trial,55,545226,0.0-30.0-0.0,voc_e2,11913,"[{""event"":""focus"",""trial"":0,""time"":0},{""event"":""fullscreenenter"",""trial"":1,""time"":7230}]",NA,NA,NA,NA,NA,3,#FA92F8,#1CD855,0,10,0,40,0,528,37,1,879,0,0,experiment,NA,NA,1,0.3,0.7,3,2,22,1,NA
fcp-trial,56,548195,0.0-31.0-0.0,voc_e2,11913,"[{""event"":""focus"",""trial"":0,""time"":0},{""event"":""fullscreenenter"",""trial"":1,""time"":7230}]",NA,NA,NA,NA,NA,4,#3386FF,#D89F1C,0,10,0,40,0,768,37,1,663,0,0,experiment,NA,NA,0,0.1,0.9,1,0,23,1,NA
fcp-trial,57,551755,0.0-32.0-0.0,voc_e2,11913,"[{""event"":""focus"",""trial"":0,""time"":0},{""event"":""fullscreenenter"",""trial"":1,""time"":7230}]",NA,NA,NA,NA,NA,2,#D8271C,#741CD8,0,10,1,40,0,49,39,0,1845,10,0,experiment,NA,NA,2,0.5,0.5,4,5,24,1,NA
fcp-trial,58,554425,0.0-33.0-0.0,voc_e2,11913,"[{""event"":""focus"",""trial"":0,""time"":0},{""event"":""fullscreenenter"",""trial"":1,""time"":7230}]",NA,NA,NA,NA,NA,5,#1CD855,#FA92F8,0,0,1,40,0,462,37,1,679,0,1,experiment,NA,NA,1,0.7,0.3,2,3,25,1,NA
fcp-trial,59,557189,0.0-34.0-0.0,voc_e2,11913,"[{""event"":""focus"",""trial"":0,""time"":0},{""event"":""fullscreenenter"",""trial"":1,""time"":7230}]",NA,NA,NA,NA,NA,5,#3386FF,#D89F1C,0,10,0,40,0,906,37,1,343,0,0,experiment,NA,NA,0,0.1,0.9,1,0,26,1,NA
fcp-trial,60,560092,0.0-35.0-0.0,voc_e2,11913,"[{""event"":""focus"",""trial"":0,""time"":0},{""event"":""fullscreenenter"",""trial"":1,""time"":7230}]",NA,NA,NA,NA,NA,3,#741CD8,#D8271C,0,0,0,40,0,679,39,0,713,0,1,experiment,NA,NA,2,0.5,0.5,5,4,27,1,NA
fcp-trial,61,564855,0.0-36.0-0.0,voc_e2,11913,"[{""event"":""focus"",""trial"":0,""time"":0},{""event"":""fullscreenenter"",""trial"":1,""time"":7230}]",NA,NA,NA,NA,NA,0,#741CD8,#D8271C,10,10,0,40,0,2435,37,1,792,10,0,experiment,NA,NA,2,0.5,0.5,5,4,28,1,NA
fcp-trial,62,568574,0.0-37.0-0.0,voc_e2,11913,"[{""event"":""focus"",""trial"":0,""time"":0},{""event"":""fullscreenenter"",""trial"":1,""time"":7230}]",NA,NA,NA,NA,NA,1,#D89F1C,#3386FF,10,0,1,40,0,841,39,0,1352,0,0,experiment,NA,NA,0,0.9,0.1,0,1,29,1,NA
fcp-trial,63,571370,0.0-38.0-0.0,voc_e2,11913,"[{""event"":""focus"",""trial"":0,""time"":0},{""event"":""fullscreenenter"",""trial"":1,""time"":7230}]",NA,NA,NA,NA,NA,1,#FA92F8,#1CD855,0,10,0,40,0,963,37,1,293,0,0,experiment,NA,NA,1,0.3,0.7,3,2,30,1,NA
fcp-trial,64,573700,0.0-39.0-0.0,voc_e2,11913,"[{""event"":""focus"",""trial"":0,""time"":0},{""event"":""fullscreenenter"",""trial"":1,""time"":7230}]",NA,NA,NA,NA,NA,6,#3386FF,#D89F1C,0,10,0,40,0,415,39,0,376,10,1,experiment,NA,NA,0,0.1,0.9,1,0,31,1,NA
fcp-trial,65,576179,0.0-40.0-0.0,voc_e2,11913,"[{""event"":""focus"",""trial"":0,""time"":0},{""event"":""fullscreenenter"",""trial"":1,""time"":7230}]",NA,NA,NA,NA,NA,0,#1CD855,#FA92F8,10,10,1,40,0,551,37,1,374,10,1,experiment,NA,NA,1,0.7,0.3,2,3,32,1,NA
fcp-trial,66,578790,0.0-41.0-0.0,voc_e2,11913,"[{""event"":""focus"",""trial"":0,""time"":0},{""event"":""fullscreenenter"",""trial"":1,""time"":7230}]",NA,NA,NA,NA,NA,4,#D8271C,#741CD8,10,0,1,40,0,409,39,0,670,0,0,experiment,NA,NA,2,0.5,0.5,4,5,33,1,NA
fcp-trial,67,581320,0.0-42.0-0.0,voc_e2,11913,"[{""event"":""focus"",""trial"":0,""time"":0},{""event"":""fullscreenenter"",""trial"":1,""time"":7230}]",NA,NA,NA,NA,NA,3,#3386FF,#D89F1C,0,10,0,40,0,508,37,1,498,0,0,experiment,NA,NA,0,0.1,0.9,1,0,34,1,NA
fcp-trial,68,584270,0.0-43.0-0.0,voc_e2,11913,"[{""event"":""focus"",""trial"":0,""time"":0},{""event"":""fullscreenenter"",""trial"":1,""time"":7230}]",NA,NA,NA,NA,NA,6,#741CD8,#D8271C,0,0,0,40,0,649,37,1,596,0,0,experiment,NA,NA,2,0.5,0.5,5,4,35,1,NA
fcp-trial,69,586750,0.0-44.0-0.0,voc_e2,11913,"[{""event"":""focus"",""trial"":0,""time"":0},{""event"":""fullscreenenter"",""trial"":1,""time"":7230}]",NA,NA,NA,NA,NA,2,#D89F1C,#3386FF,0,0,1,40,0,375,37,1,571,0,1,experiment,NA,NA,0,0.9,0.1,0,1,36,1,NA
fcp-trial,70,589606,0.0-45.0-0.0,voc_e2,11913,"[{""event"":""focus"",""trial"":0,""time"":0},{""event"":""fullscreenenter"",""trial"":1,""time"":7230}]",NA,NA,NA,NA,NA,4,#1CD855,#FA92F8,10,0,1,40,0,972,37,1,349,10,1,experiment,NA,NA,1,0.7,0.3,2,3,37,1,NA
fcp-trial,71,593250,0.0-46.0-0.0,voc_e2,11913,"[{""event"":""focus"",""trial"":0,""time"":0},{""event"":""fullscreenenter"",""trial"":1,""time"":7230}]",NA,NA,NA,NA,NA,6,#FA92F8,#1CD855,10,0,0,40,0,362,37,1,1743,10,0,experiment,NA,NA,1,0.3,0.7,3,2,38,1,NA
fcp-trial,72,597877,0.0-47.0-0.0,voc_e2,11913,"[{""event"":""focus"",""trial"":0,""time"":0},{""event"":""fullscreenenter"",""trial"":1,""time"":7230}]",NA,NA,NA,NA,NA,1,#D8271C,#741CD8,10,10,1,40,0,2605,39,0,488,10,0,experiment,NA,NA,2,0.5,0.5,4,5,39,1,NA
fcp-trial,73,600260,0.0-48.0-0.0,voc_e2,11913,"[{""event"":""focus"",""trial"":0,""time"":0},{""event"":""fullscreenenter"",""trial"":1,""time"":7230}]",NA,NA,NA,NA,NA,0,#3386FF,#D89F1C,0,10,0,40,0,420,39,0,426,10,1,experiment,NA,NA,0,0.1,0.9,1,0,40,1,NA
fcp-trial,74,603969,0.0-49.0-0.0,voc_e2,11913,"[{""event"":""focus"",""trial"":0,""time"":0},{""event"":""fullscreenenter"",""trial"":1,""time"":7230}]",NA,NA,NA,NA,NA,2,#FA92F8,#1CD855,0,10,0,40,0,1756,37,1,414,0,0,experiment,NA,NA,1,0.3,0.7,3,2,41,1,NA
fcp-trial,75,607629,0.0-50.0-0.0,voc_e2,11913,"[{""event"":""focus"",""trial"":0,""time"":0},{""event"":""fullscreenenter"",""trial"":1,""time"":7230}]",NA,NA,NA,NA,NA,5,#D8271C,#741CD8,0,0,1,40,0,1624,37,1,515,0,1,experiment,NA,NA,2,0.5,0.5,4,5,42,1,NA
fcp-trial,76,610760,0.0-51.0-0.0,voc_e2,11913,"[{""event"":""focus"",""trial"":0,""time"":0},{""event"":""fullscreenenter"",""trial"":1,""time"":7230}]",NA,NA,NA,NA,NA,1,#D8271C,#741CD8,0,0,1,40,0,238,37,1,1222,0,1,experiment,NA,NA,2,0.5,0.5,4,5,43,1,NA
fcp-trial,77,613929,0.0-52.0-0.0,voc_e2,11913,"[{""event"":""focus"",""trial"":0,""time"":0},{""event"":""fullscreenenter"",""trial"":1,""time"":7230}]",NA,NA,NA,NA,NA,6,#D8271C,#741CD8,10,10,1,40,0,850,37,1,792,10,1,experiment,NA,NA,2,0.5,0.5,4,5,44,1,NA
fcp-trial,78,617119,0.0-53.0-0.0,voc_e2,11913,"[{""event"":""focus"",""trial"":0,""time"":0},{""event"":""fullscreenenter"",""trial"":1,""time"":7230}]",NA,NA,NA,NA,NA,2,#D89F1C,#3386FF,10,0,1,40,0,702,37,1,968,10,1,experiment,NA,NA,0,0.9,0.1,0,1,45,1,NA
fcp-trial,79,619420,0.0-54.0-0.0,voc_e2,11913,"[{""event"":""focus"",""trial"":0,""time"":0},{""event"":""fullscreenenter"",""trial"":1,""time"":7230}]",NA,NA,NA,NA,NA,4,#1CD855,#FA92F8,0,0,1,40,0,225,37,1,550,0,1,experiment,NA,NA,1,0.7,0.3,2,3,46,2,NA
fcp-trial,80,622359,0.0-55.0-0.0,voc_e2,11913,"[{""event"":""focus"",""trial"":0,""time"":0},{""event"":""fullscreenenter"",""trial"":1,""time"":7230}]",NA,NA,NA,NA,NA,3,#1CD855,#FA92F8,10,10,1,40,0,975,37,1,446,10,1,experiment,NA,NA,1,0.7,0.3,2,3,47,2,NA
fcp-trial,81,624489,0.0-56.0-0.0,voc_e2,11913,"[{""event"":""focus"",""trial"":0,""time"":0},{""event"":""fullscreenenter"",""trial"":1,""time"":7230}]",NA,NA,NA,NA,NA,0,#3386FF,#D89F1C,10,10,0,40,0,65,37,1,551,10,0,experiment,NA,NA,0,0.1,0.9,1,0,48,2,NA
fcp-trial,82,628188,0.0-57.0-0.0,voc_e2,11913,"[{""event"":""focus"",""trial"":0,""time"":0},{""event"":""fullscreenenter"",""trial"":1,""time"":7230}]",NA,NA,NA,NA,NA,2,#741CD8,#D8271C,0,10,0,40,0,1528,39,0,647,10,1,experiment,NA,NA,2,0.5,0.5,5,4,49,2,NA
fcp-trial,83,634300,0.0-58.0-0.0,voc_e2,11913,"[{""event"":""focus"",""trial"":0,""time"":0},{""event"":""fullscreenenter"",""trial"":1,""time"":7230}]",NA,NA,NA,NA,NA,4,#3386FF,#D89F1C,10,10,0,40,0,246,39,0,4338,10,1,experiment,NA,NA,0,0.1,0.9,1,0,50,2,NA
fcp-trial,84,637159,0.0-59.0-0.0,voc_e2,11913,"[{""event"":""focus"",""trial"":0,""time"":0},{""event"":""fullscreenenter"",""trial"":1,""time"":7230}]",NA,NA,NA,NA,NA,2,#1CD855,#FA92F8,10,0,1,40,0,605,37,1,566,10,1,experiment,NA,NA,1,0.7,0.3,2,3,51,2,NA
fcp-trial,85,639666,0.0-60.0-0.0,voc_e2,11913,"[{""event"":""focus"",""trial"":0,""time"":0},{""event"":""fullscreenenter"",""trial"":1,""time"":7230}]",NA,NA,NA,NA,NA,0,#FA92F8,#1CD855,0,10,0,40,0,369,39,0,594,10,1,experiment,NA,NA,1,0.3,0.7,3,2,52,2,NA
fcp-trial,86,642360,0.0-61.0-0.0,voc_e2,11913,"[{""event"":""focus"",""trial"":0,""time"":0},{""event"":""fullscreenenter"",""trial"":1,""time"":7230}]",NA,NA,NA,NA,NA,0,#741CD8,#D8271C,0,10,0,40,0,578,39,0,593,10,1,experiment,NA,NA,2,0.5,0.5,5,4,53,2,NA
fcp-trial,87,644831,0.0-62.0-0.0,voc_e2,11913,"[{""event"":""focus"",""trial"":0,""time"":0},{""event"":""fullscreenenter"",""trial"":1,""time"":7230}]",NA,NA,NA,NA,NA,3,#3386FF,#D89F1C,0,10,0,40,0,434,37,1,510,0,0,experiment,NA,NA,0,0.1,0.9,1,0,54,2,NA
fcp-trial,88,647844,0.0-63.0-0.0,voc_e2,11913,"[{""event"":""focus"",""trial"":0,""time"":0},{""event"":""fullscreenenter"",""trial"":1,""time"":7230}]",NA,NA,NA,NA,NA,6,#FA92F8,#1CD855,0,0,0,40,0,896,39,0,580,0,1,experiment,NA,NA,1,0.3,0.7,3,2,55,2,NA
fcp-trial,89,650422,0.0-64.0-0.0,voc_e2,11913,"[{""event"":""focus"",""trial"":0,""time"":0},{""event"":""fullscreenenter"",""trial"":1,""time"":7230}]",NA,NA,NA,NA,NA,5,#D89F1C,#3386FF,10,0,1,40,0,620,37,1,419,10,1,experiment,NA,NA,0,0.9,0.1,0,1,56,2,NA
fcp-trial,90,653082,0.0-65.0-0.0,voc_e2,11913,"[{""event"":""focus"",""trial"":0,""time"":0},{""event"":""fullscreenenter"",""trial"":1,""time"":7230}]",NA,NA,NA,NA,NA,3,#741CD8,#D8271C,10,0,0,40,0,623,37,1,499,10,0,experiment,NA,NA,2,0.5,0.5,5,4,57,2,NA
fcp-trial,91,655902,0.0-66.0-0.0,voc_e2,11913,"[{""event"":""focus"",""trial"":0,""time"":0},{""event"":""fullscreenenter"",""trial"":1,""time"":7230}]",NA,NA,NA,NA,NA,5,#D8271C,#741CD8,0,10,1,40,0,801,37,1,494,0,1,experiment,NA,NA,2,0.5,0.5,4,5,58,2,NA
fcp-trial,92,658469,0.0-67.0-0.0,voc_e2,11913,"[{""event"":""focus"",""trial"":0,""time"":0},{""event"":""fullscreenenter"",""trial"":1,""time"":7230}]",NA,NA,NA,NA,NA,6,#D89F1C,#3386FF,10,0,1,40,0,490,37,1,535,10,1,experiment,NA,NA,0,0.9,0.1,0,1,59,2,NA
fcp-trial,93,661209,0.0-68.0-0.0,voc_e2,11913,"[{""event"":""focus"",""trial"":0,""time"":0},{""event"":""fullscreenenter"",""trial"":1,""time"":7230}]",NA,NA,NA,NA,NA,5,#1CD855,#FA92F8,10,10,1,40,0,125,37,1,1090,10,1,experiment,NA,NA,1,0.7,0.3,2,3,60,2,NA
fcp-trial,94,665249,0.0-69.0-0.0,voc_e2,11913,"[{""event"":""focus"",""trial"":0,""time"":0},{""event"":""fullscreenenter"",""trial"":1,""time"":7230}]",NA,NA,NA,NA,NA,1,#FA92F8,#1CD855,10,10,0,40,0,2226,37,1,303,10,0,experiment,NA,NA,1,0.3,0.7,3,2,61,2,NA
fcp-trial,95,668019,0.0-70.0-0.0,voc_e2,11913,"[{""event"":""focus"",""trial"":0,""time"":0},{""event"":""fullscreenenter"",""trial"":1,""time"":7230}]",NA,NA,NA,NA,NA,1,#3386FF,#D89F1C,0,10,0,40,0,615,39,0,621,10,1,experiment,NA,NA,0,0.1,0.9,1,0,62,2,NA
fcp-trial,96,672038,0.0-71.0-0.0,voc_e2,11913,"[{""event"":""focus"",""trial"":0,""time"":0},{""event"":""fullscreenenter"",""trial"":1,""time"":7230}]",NA,NA,NA,NA,NA,4,#741CD8,#D8271C,10,0,0,40,0,1902,37,1,588,10,0,experiment,NA,NA,2,0.5,0.5,5,4,63,2,NA
fcp-trial,97,674859,0.0-72.0-0.0,voc_e2,11913,"[{""event"":""focus"",""trial"":0,""time"":0},{""event"":""fullscreenenter"",""trial"":1,""time"":7230}]",NA,NA,NA,NA,NA,0,#3386FF,#D89F1C,0,10,0,40,0,710,39,0,593,10,1,experiment,NA,NA,0,0.1,0.9,1,0,64,2,NA
fcp-trial,98,677210,0.0-73.0-0.0,voc_e2,11913,"[{""event"":""focus"",""trial"":0,""time"":0},{""event"":""fullscreenenter"",""trial"":1,""time"":7230}]",NA,NA,NA,NA,NA,6,#3386FF,#D89F1C,0,10,0,40,0,100,39,0,736,10,1,experiment,NA,NA,0,0.1,0.9,1,0,65,2,NA
fcp-trial,99,680319,0.0-74.0-0.0,voc_e2,11913,"[{""event"":""focus"",""trial"":0,""time"":0},{""event"":""fullscreenenter"",""trial"":1,""time"":7230}]",NA,NA,NA,NA,NA,0,#FA92F8,#1CD855,10,0,0,40,0,985,37,1,594,10,0,experiment,NA,NA,1,0.3,0.7,3,2,66,2,NA
fcp-trial,100,684098,0.0-75.0-0.0,voc_e2,11913,"[{""event"":""focus"",""trial"":0,""time"":0},{""event"":""fullscreenenter"",""trial"":1,""time"":7230}]",NA,NA,NA,NA,NA,2,#D8271C,#741CD8,0,0,1,40,0,1921,37,1,327,0,1,experiment,NA,NA,2,0.5,0.5,4,5,67,2,NA
fcp-trial,101,687238,0.0-76.0-0.0,voc_e2,11913,"[{""event"":""focus"",""trial"":0,""time"":0},{""event"":""fullscreenenter"",""trial"":1,""time"":7230}]",NA,NA,NA,NA,NA,4,#D8271C,#741CD8,0,0,1,40,0,1311,39,0,306,0,0,experiment,NA,NA,2,0.5,0.5,4,5,68,2,NA
fcp-trial,102,689599,0.0-77.0-0.0,voc_e2,11913,"[{""event"":""focus"",""trial"":0,""time"":0},{""event"":""fullscreenenter"",""trial"":1,""time"":7230}]",NA,NA,NA,NA,NA,1,#3386FF,#D89F1C,0,10,0,40,0,460,37,1,384,0,0,experiment,NA,NA,0,0.1,0.9,1,0,69,2,NA
fcp-trial,103,692589,0.0-78.0-0.0,voc_e2,11913,"[{""event"":""focus"",""trial"":0,""time"":0},{""event"":""fullscreenenter"",""trial"":1,""time"":7230}]",NA,NA,NA,NA,NA,6,#741CD8,#D8271C,10,10,0,40,0,993,37,1,469,10,0,experiment,NA,NA,2,0.5,0.5,5,4,70,2,NA
fcp-trial,104,695335,0.0-79.0-0.0,voc_e2,11913,"[{""event"":""focus"",""trial"":0,""time"":0},{""event"":""fullscreenenter"",""trial"":1,""time"":7230}]",NA,NA,NA,NA,NA,6,#FA92F8,#1CD855,0,0,0,40,0,636,39,0,579,0,1,experiment,NA,NA,1,0.3,0.7,3,2,71,2,NA
fcp-trial,105,698299,0.0-80.0-0.0,voc_e2,11913,"[{""event"":""focus"",""trial"":0,""time"":0},{""event"":""fullscreenenter"",""trial"":1,""time"":7230}]",NA,NA,NA,NA,NA,3,#FA92F8,#1CD855,0,0,0,40,0,565,39,0,853,0,1,experiment,NA,NA,1,0.3,0.7,3,2,72,2,NA
fcp-trial,106,700876,0.0-81.0-0.0,voc_e2,11913,"[{""event"":""focus"",""trial"":0,""time"":0},{""event"":""fullscreenenter"",""trial"":1,""time"":7230}]",NA,NA,NA,NA,NA,4,#D89F1C,#3386FF,10,0,1,40,0,470,37,1,594,10,1,experiment,NA,NA,0,0.9,0.1,0,1,73,2,NA
fcp-trial,107,703588,0.0-82.0-0.0,voc_e2,11913,"[{""event"":""focus"",""trial"":0,""time"":0},{""event"":""fullscreenenter"",""trial"":1,""time"":7230}]",NA,NA,NA,NA,NA,2,#FA92F8,#1CD855,10,10,0,40,0,727,39,0,452,10,1,experiment,NA,NA,1,0.3,0.7,3,2,74,2,NA
fcp-trial,108,706438,0.0-83.0-0.0,voc_e2,11913,"[{""event"":""focus"",""trial"":0,""time"":0},{""event"":""fullscreenenter"",""trial"":1,""time"":7230}]",NA,NA,NA,NA,NA,3,#741CD8,#D8271C,0,0,0,40,0,869,37,1,447,0,0,experiment,NA,NA,2,0.5,0.5,5,4,75,2,NA
fcp-trial,109,709144,0.0-84.0-0.0,voc_e2,11913,"[{""event"":""focus"",""trial"":0,""time"":0},{""event"":""fullscreenenter"",""trial"":1,""time"":7230}]",NA,NA,NA,NA,NA,5,#D8271C,#741CD8,10,0,1,40,0,394,39,0,781,0,0,experiment,NA,NA,2,0.5,0.5,4,5,76,2,NA
fcp-trial,110,712143,0.0-85.0-0.0,voc_e2,11913,"[{""event"":""focus"",""trial"":0,""time"":0},{""event"":""fullscreenenter"",""trial"":1,""time"":7230}]",NA,NA,NA,NA,NA,1,#FA92F8,#1CD855,0,10,0,40,0,433,37,1,985,0,0,experiment,NA,NA,1,0.3,0.7,3,2,77,2,NA
fcp-trial,111,714810,0.0-86.0-0.0,voc_e2,11913,"[{""event"":""focus"",""trial"":0,""time"":0},{""event"":""fullscreenenter"",""trial"":1,""time"":7230}]",NA,NA,NA,NA,NA,5,#D89F1C,#3386FF,10,0,1,40,0,601,39,0,536,0,0,experiment,NA,NA,0,0.9,0.1,0,1,78,2,NA
fcp-trial,112,717763,0.0-87.0-0.0,voc_e2,11913,"[{""event"":""focus"",""trial"":0,""time"":0},{""event"":""fullscreenenter"",""trial"":1,""time"":7230}]",NA,NA,NA,NA,NA,5,#1CD855,#FA92F8,0,10,1,40,0,455,37,1,971,0,1,experiment,NA,NA,1,0.7,0.3,2,3,79,2,NA
fcp-trial,113,720335,0.0-88.0-0.0,voc_e2,11913,"[{""event"":""focus"",""trial"":0,""time"":0},{""event"":""fullscreenenter"",""trial"":1,""time"":7230}]",NA,NA,NA,NA,NA,0,#D8271C,#741CD8,0,10,1,40,0,470,37,1,578,0,1,experiment,NA,NA,2,0.5,0.5,4,5,80,2,NA
fcp-trial,114,722959,0.0-89.0-0.0,voc_e2,11913,"[{""event"":""focus"",""trial"":0,""time"":0},{""event"":""fullscreenenter"",""trial"":1,""time"":7230}]",NA,NA,NA,NA,NA,4,#1CD855,#FA92F8,0,0,1,40,0,594,37,1,503,0,1,experiment,NA,NA,1,0.7,0.3,2,3,81,2,NA
fcp-trial,115,726606,0.0-90.0-0.0,voc_e2,11913,"[{""event"":""focus"",""trial"":0,""time"":0},{""event"":""fullscreenenter"",""trial"":1,""time"":7230}]",NA,NA,NA,NA,NA,2,#D89F1C,#3386FF,10,0,1,40,0,547,39,0,1565,0,0,experiment,NA,NA,0,0.9,0.1,0,1,82,2,NA
fcp-trial,116,729729,0.0-91.0-0.0,voc_e2,11913,"[{""event"":""focus"",""trial"":0,""time"":0},{""event"":""fullscreenenter"",""trial"":1,""time"":7230}]",NA,NA,NA,NA,NA,1,#D8271C,#741CD8,10,10,1,40,0,106,39,0,1493,10,0,experiment,NA,NA,2,0.5,0.5,4,5,83,2,NA
fcp-trial,117,732668,0.0-92.0-0.0,voc_e2,11913,"[{""event"":""focus"",""trial"":0,""time"":0},{""event"":""fullscreenenter"",""trial"":1,""time"":7230}]",NA,NA,NA,NA,NA,3,#D89F1C,#3386FF,10,0,1,40,0,641,39,0,623,0,0,experiment,NA,NA,0,0.9,0.1,0,1,84,2,NA
fcp-trial,118,735564,0.0-93.0-0.0,voc_e2,11913,"[{""event"":""focus"",""trial"":0,""time"":0},{""event"":""fullscreenenter"",""trial"":1,""time"":7230}]",NA,NA,NA,NA,NA,3,#3386FF,#D89F1C,0,10,0,40,0,893,39,0,477,10,1,experiment,NA,NA,0,0.1,0.9,1,0,85,2,NA
fcp-trial,119,737950,0.0-94.0-0.0,voc_e2,11913,"[{""event"":""focus"",""trial"":0,""time"":0},{""event"":""fullscreenenter"",""trial"":1,""time"":7230}]",NA,NA,NA,NA,NA,1,#3386FF,#D89F1C,0,10,0,40,0,191,39,0,662,10,1,experiment,NA,NA,0,0.1,0.9,1,0,86,2,NA
fcp-trial,120,740160,0.0-95.0-0.0,voc_e2,11913,"[{""event"":""focus"",""trial"":0,""time"":0},{""event"":""fullscreenenter"",""trial"":1,""time"":7230}]",NA,NA,NA,NA,NA,3,#FA92F8,#1CD855,10,10,0,40,0,59,37,1,625,10,0,experiment,NA,NA,1,0.3,0.7,3,2,87,2,NA
fcp-trial,121,743549,0.0-96.0-0.0,voc_e2,11913,"[{""event"":""focus"",""trial"":0,""time"":0},{""event"":""fullscreenenter"",""trial"":1,""time"":7230}]",NA,NA,NA,NA,NA,5,#741CD8,#D8271C,10,0,0,40,0,1377,39,0,492,0,1,experiment,NA,NA,2,0.5,0.5,5,4,88,2,NA
fcp-trial,122,746341,0.0-97.0-0.0,voc_e2,11913,"[{""event"":""focus"",""trial"":0,""time"":0},{""event"":""fullscreenenter"",""trial"":1,""time"":7230}]",NA,NA,NA,NA,NA,6,#1CD855,#FA92F8,10,0,1,40,0,570,37,1,704,10,1,experiment,NA,NA,1,0.7,0.3,2,3,89,2,NA
fcp-trial,123,748955,0.0-98.0-0.0,voc_e2,11913,"[{""event"":""focus"",""trial"":0,""time"":0},{""event"":""fullscreenenter"",""trial"":1,""time"":7230}]",NA,NA,NA,NA,NA,4,#FA92F8,#1CD855,0,10,0,40,0,588,39,0,493,10,1,experiment,NA,NA,1,0.3,0.7,3,2,90,2,NA
fcp-trial,124,753038,0.0-99.0-0.0,voc_e2,11913,"[{""event"":""focus"",""trial"":0,""time"":0},{""event"":""fullscreenenter"",""trial"":1,""time"":7230}]",NA,NA,NA,NA,NA,4,#3386FF,#D89F1C,0,10,0,40,0,1837,39,0,629,10,1,experiment,NA,NA,0,0.1,0.9,1,0,91,3,NA
fcp-trial,125,758588,0.0-100.0-0.0,voc_e2,11913,"[{""event"":""focus"",""trial"":0,""time"":0},{""event"":""fullscreenenter"",""trial"":1,""time"":7230}]",NA,NA,NA,NA,NA,6,#D8271C,#741CD8,10,10,1,40,0,3169,39,0,852,10,0,experiment,NA,NA,2,0.5,0.5,4,5,92,3,NA
fcp-trial,126,763879,0.0-101.0-0.0,voc_e2,11913,"[{""event"":""focus"",""trial"":0,""time"":0},{""event"":""fullscreenenter"",""trial"":1,""time"":7230}]",NA,NA,NA,NA,NA,0,#1CD855,#FA92F8,10,0,1,40,0,3190,37,1,586,10,1,experiment,NA,NA,1,0.7,0.3,2,3,93,3,NA
fcp-trial,127,766289,0.0-102.0-0.0,voc_e2,11913,"[{""event"":""focus"",""trial"":0,""time"":0},{""event"":""fullscreenenter"",""trial"":1,""time"":7230}]",NA,NA,NA,NA,NA,2,#3386FF,#D89F1C,0,10,0,40,0,354,39,0,522,10,1,experiment,NA,NA,0,0.1,0.9,1,0,94,3,NA
fcp-trial,128,768438,0.0-103.0-0.0,voc_e2,11913,"[{""event"":""focus"",""trial"":0,""time"":0},{""event"":""fullscreenenter"",""trial"":1,""time"":7230}]",NA,NA,NA,NA,NA,2,#D8271C,#741CD8,10,10,1,40,0,48,39,0,555,10,0,experiment,NA,NA,2,0.5,0.5,4,5,95,3,NA
fcp-trial,129,771839,0.0-104.0-0.0,voc_e2,11913,"[{""event"":""focus"",""trial"":0,""time"":0},{""event"":""fullscreenenter"",""trial"":1,""time"":7230}]",NA,NA,NA,NA,NA,5,#1CD855,#FA92F8,10,0,1,40,0,1482,39,0,382,0,0,experiment,NA,NA,1,0.7,0.3,2,3,96,3,NA
fcp-trial,130,775386,0.0-105.0-0.0,voc_e2,11913,"[{""event"":""focus"",""trial"":0,""time"":0},{""event"":""fullscreenenter"",""trial"":1,""time"":7230}]",NA,NA,NA,NA,NA,3,#D8271C,#741CD8,0,0,1,40,0,1498,39,0,360,0,0,experiment,NA,NA,2,0.5,0.5,4,5,97,3,NA
fcp-trial,131,777805,0.0-106.0-0.0,voc_e2,11913,"[{""event"":""focus"",""trial"":0,""time"":0},{""event"":""fullscreenenter"",""trial"":1,""time"":7230}]",NA,NA,NA,NA,NA,4,#741CD8,#D8271C,10,0,0,40,0,391,39,0,491,0,1,experiment,NA,NA,2,0.5,0.5,5,4,98,3,NA
fcp-trial,132,780030,0.0-107.0-0.0,voc_e2,11913,"[{""event"":""focus"",""trial"":0,""time"":0},{""event"":""fullscreenenter"",""trial"":1,""time"":7230}]",NA,NA,NA,NA,NA,6,#D89F1C,#3386FF,10,0,1,40,0,163,37,1,532,10,1,experiment,NA,NA,0,0.9,0.1,0,1,99,3,NA
fcp-trial,133,782484,0.0-108.0-0.0,voc_e2,11913,"[{""event"":""focus"",""trial"":0,""time"":0},{""event"":""fullscreenenter"",""trial"":1,""time"":7230}]",NA,NA,NA,NA,NA,1,#FA92F8,#1CD855,0,0,0,40,0,498,39,0,447,0,1,experiment,NA,NA,1,0.3,0.7,3,2,100,3,NA
fcp-trial,134,786304,0.0-109.0-0.0,voc_e2,11913,"[{""event"":""focus"",""trial"":0,""time"":0},{""event"":""fullscreenenter"",""trial"":1,""time"":7230}]",NA,NA,NA,NA,NA,0,#741CD8,#D8271C,10,10,0,40,0,1764,37,1,535,10,0,experiment,NA,NA,2,0.5,0.5,5,4,101,3,NA
fcp-trial,135,788898,0.0-110.0-0.0,voc_e2,11913,"[{""event"":""focus"",""trial"":0,""time"":0},{""event"":""fullscreenenter"",""trial"":1,""time"":7230}]",NA,NA,NA,NA,NA,1,#D8271C,#741CD8,0,0,1,40,0,547,37,1,529,0,1,experiment,NA,NA,2,0.5,0.5,4,5,102,3,NA
fcp-trial,136,791708,0.0-111.0-0.0,voc_e2,11913,"[{""event"":""focus"",""trial"":0,""time"":0},{""event"":""fullscreenenter"",""trial"":1,""time"":7230}]",NA,NA,NA,NA,NA,5,#3386FF,#D89F1C,0,10,0,40,0,438,39,0,719,10,1,experiment,NA,NA,0,0.1,0.9,1,0,103,3,NA
fcp-trial,137,794659,0.0-112.0-0.0,voc_e2,11913,"[{""event"":""focus"",""trial"":0,""time"":0},{""event"":""fullscreenenter"",""trial"":1,""time"":7230}]",NA,NA,NA,NA,NA,0,#3386FF,#D89F1C,0,10,0,40,0,758,37,1,669,0,0,experiment,NA,NA,0,0.1,0.9,1,0,104,3,NA
fcp-trial,138,797209,0.0-113.0-0.0,voc_e2,11913,"[{""event"":""focus"",""trial"":0,""time"":0},{""event"":""fullscreenenter"",""trial"":1,""time"":7230}]",NA,NA,NA,NA,NA,2,#FA92F8,#1CD855,0,0,0,40,0,558,39,0,474,0,1,experiment,NA,NA,1,0.3,0.7,3,2,105,3,NA
audio-instructions,139,802286,0.0-114.0,voc_e2,11913,"[{""event"":""focus"",""trial"":0,""time"":0},{""event"":""fullscreenenter"",""trial"":1,""time"":7230}]",NA,633,static/audio/pause.wav,NA,0,NA,NA,NA,NA,NA,NA,NA,NA,NA,NA,NA,NA,NA,NA,NA,NA,NA,NA,NA,NA,NA,NA,NA,NA,NA
fcp-trial,140,806109,0.0-115.0-0.0,voc_e2,11913,"[{""event"":""focus"",""trial"":0,""time"":0},{""event"":""fullscreenenter"",""trial"":1,""time"":7230}]",NA,NA,NA,NA,NA,5,#3386FF,#D89F1C,0,10,0,40,0,1640,37,1,654,0,0,experiment,NA,NA,0,0.1,0.9,1,0,106,3,NA
fcp-trial,141,808870,0.0-116.0-0.0,voc_e2,11913,"[{""event"":""focus"",""trial"":0,""time"":0},{""event"":""fullscreenenter"",""trial"":1,""time"":7230}]",NA,NA,NA,NA,NA,4,#3386FF,#D89F1C,10,0,0,40,0,744,39,0,504,0,1,experiment,NA,NA,0,0.1,0.9,1,0,107,3,NA
fcp-trial,142,811489,0.0-117.0-0.0,voc_e2,11913,"[{""event"":""focus"",""trial"":0,""time"":0},{""event"":""fullscreenenter"",""trial"":1,""time"":7230}]",NA,NA,NA,NA,NA,6,#3386FF,#D89F1C,0,10,0,40,0,611,39,0,401,10,1,experiment,NA,NA,0,0.1,0.9,1,0,108,3,NA
fcp-trial,143,814192,0.0-118.0-0.0,voc_e2,11913,"[{""event"":""focus"",""trial"":0,""time"":0},{""event"":""fullscreenenter"",""trial"":1,""time"":7230}]",NA,NA,NA,NA,NA,1,#741CD8,#D8271C,10,0,0,40,0,94,39,0,1090,0,1,experiment,NA,NA,2,0.5,0.5,5,4,109,3,NA
fcp-trial,144,816748,0.0-119.0-0.0,voc_e2,11913,"[{""event"":""focus"",""trial"":0,""time"":0},{""event"":""fullscreenenter"",""trial"":1,""time"":7230}]",NA,NA,NA,NA,NA,6,#FA92F8,#1CD855,0,10,0,40,0,584,37,1,441,0,0,experiment,NA,NA,1,0.3,0.7,3,2,110,3,NA
fcp-trial,145,819289,0.0-120.0-0.0,voc_e2,11913,"[{""event"":""focus"",""trial"":0,""time"":0},{""event"":""fullscreenenter"",""trial"":1,""time"":7230}]",NA,NA,NA,NA,NA,2,#1CD855,#FA92F8,10,10,1,40,0,445,39,0,587,10,0,experiment,NA,NA,1,0.7,0.3,2,3,111,3,NA
fcp-trial,146,821909,0.0-121.0-0.0,voc_e2,11913,"[{""event"":""focus"",""trial"":0,""time"":0},{""event"":""fullscreenenter"",""trial"":1,""time"":7230}]",NA,NA,NA,NA,NA,0,#3386FF,#D89F1C,0,10,0,40,0,511,39,0,465,10,1,experiment,NA,NA,0,0.1,0.9,1,0,112,3,NA
fcp-trial,147,824649,0.0-122.0-0.0,voc_e2,11913,"[{""event"":""focus"",""trial"":0,""time"":0},{""event"":""fullscreenenter"",""trial"":1,""time"":7230}]",NA,NA,NA,NA,NA,0,#741CD8,#D8271C,10,10,0,40,0,649,39,0,547,10,1,experiment,NA,NA,2,0.5,0.5,5,4,113,3,NA
fcp-trial,148,827178,0.0-123.0-0.0,voc_e2,11913,"[{""event"":""focus"",""trial"":0,""time"":0},{""event"":""fullscreenenter"",""trial"":1,""time"":7230}]",NA,NA,NA,NA,NA,5,#1CD855,#FA92F8,10,0,1,40,0,552,39,0,466,0,0,experiment,NA,NA,1,0.7,0.3,2,3,114,3,NA
fcp-trial,149,829748,0.0-124.0-0.0,voc_e2,11913,"[{""event"":""focus"",""trial"":0,""time"":0},{""event"":""fullscreenenter"",""trial"":1,""time"":7230}]",NA,NA,NA,NA,NA,4,#D8271C,#741CD8,10,0,1,40,0,607,37,1,442,10,1,experiment,NA,NA,2,0.5,0.5,4,5,115,3,NA
fcp-trial,150,832844,0.0-125.0-0.0,voc_e2,11913,"[{""event"":""focus"",""trial"":0,""time"":0},{""event"":""fullscreenenter"",""trial"":1,""time"":7230}]",NA,NA,NA,NA,NA,1,#D89F1C,#3386FF,10,0,1,40,0,325,37,1,1249,10,1,experiment,NA,NA,0,0.9,0.1,0,1,116,3,NA
fcp-trial,151,835488,0.0-126.0-0.0,voc_e2,11913,"[{""event"":""focus"",""trial"":0,""time"":0},{""event"":""fullscreenenter"",""trial"":1,""time"":7230}]",NA,NA,NA,NA,NA,5,#741CD8,#D8271C,10,0,0,40,0,629,39,0,482,0,1,experiment,NA,NA,2,0.5,0.5,5,4,117,3,NA
fcp-trial,152,838119,0.0-127.0-0.0,voc_e2,11913,"[{""event"":""focus"",""trial"":0,""time"":0},{""event"":""fullscreenenter"",""trial"":1,""time"":7230}]",NA,NA,NA,NA,NA,0,#FA92F8,#1CD855,0,10,0,40,0,511,37,1,487,0,0,experiment,NA,NA,1,0.3,0.7,3,2,118,3,NA
fcp-trial,153,840488,0.0-128.0-0.0,voc_e2,11913,"[{""event"":""focus"",""trial"":0,""time"":0},{""event"":""fullscreenenter"",""trial"":1,""time"":7230}]",NA,NA,NA,NA,NA,3,#741CD8,#D8271C,0,10,0,40,0,347,37,1,499,0,0,experiment,NA,NA,2,0.5,0.5,5,4,119,3,NA
fcp-trial,154,843138,0.0-129.0-0.0,voc_e2,11913,"[{""event"":""focus"",""trial"":0,""time"":0},{""event"":""fullscreenenter"",""trial"":1,""time"":7230}]",NA,NA,NA,NA,NA,1,#FA92F8,#1CD855,0,10,0,40,0,680,37,1,454,0,0,experiment,NA,NA,1,0.3,0.7,3,2,120,3,NA
fcp-trial,155,846218,0.0-130.0-0.0,voc_e2,11913,"[{""event"":""focus"",""trial"":0,""time"":0},{""event"":""fullscreenenter"",""trial"":1,""time"":7230}]",NA,NA,NA,NA,NA,2,#3386FF,#D89F1C,0,10,0,40,0,855,37,1,612,0,0,experiment,NA,NA,0,0.1,0.9,1,0,121,3,NA
fcp-trial,156,849043,0.0-131.0-0.0,voc_e2,11913,"[{""event"":""focus"",""trial"":0,""time"":0},{""event"":""fullscreenenter"",""trial"":1,""time"":7230}]",NA,NA,NA,NA,NA,4,#1CD855,#FA92F8,10,0,1,40,0,716,39,0,572,0,0,experiment,NA,NA,1,0.7,0.3,2,3,122,3,NA
fcp-trial,157,851338,0.0-132.0-0.0,voc_e2,11913,"[{""event"":""focus"",""trial"":0,""time"":0},{""event"":""fullscreenenter"",""trial"":1,""time"":7230}]",NA,NA,NA,NA,NA,3,#D89F1C,#3386FF,10,0,1,40,0,253,37,1,531,10,1,experiment,NA,NA,0,0.9,0.1,0,1,123,3,NA
fcp-trial,158,853889,0.0-133.0-0.0,voc_e2,11913,"[{""event"":""focus"",""trial"":0,""time"":0},{""event"":""fullscreenenter"",""trial"":1,""time"":7230}]",NA,NA,NA,NA,NA,6,#D8271C,#741CD8,10,10,1,40,0,502,37,1,502,10,1,experiment,NA,NA,2,0.5,0.5,4,5,124,3,NA
fcp-trial,159,856691,0.0-134.0-0.0,voc_e2,11913,"[{""event"":""focus"",""trial"":0,""time"":0},{""event"":""fullscreenenter"",""trial"":1,""time"":7230}]",NA,NA,NA,NA,NA,3,#1CD855,#FA92F8,0,0,1,40,0,650,39,0,640,0,0,experiment,NA,NA,1,0.7,0.3,2,3,125,3,NA
fcp-trial,160,860101,0.0-135.0-0.0,voc_e2,11913,"[{""event"":""focus"",""trial"":0,""time"":0},{""event"":""fullscreenenter"",""trial"":1,""time"":7230}]",NA,NA,NA,NA,NA,2,#741CD8,#D8271C,0,0,0,40,0,1502,39,0,388,0,1,experiment,NA,NA,2,0.5,0.5,5,4,126,3,NA
fcp-trial,161,862707,0.0-136.0-0.0,voc_e2,11913,"[{""event"":""focus"",""trial"":0,""time"":0},{""event"":""fullscreenenter"",""trial"":1,""time"":7230}]",NA,NA,NA,NA,NA,1,#D89F1C,#3386FF,10,0,1,40,0,650,37,1,417,10,1,experiment,NA,NA,0,0.9,0.1,0,1,127,3,NA
fcp-trial,162,865198,0.0-137.0-0.0,voc_e2,11913,"[{""event"":""focus"",""trial"":0,""time"":0},{""event"":""fullscreenenter"",""trial"":1,""time"":7230}]",NA,NA,NA,NA,NA,5,#D8271C,#741CD8,0,0,1,40,0,534,37,1,423,0,1,experiment,NA,NA,2,0.5,0.5,4,5,128,3,NA
fcp-trial,163,868583,0.0-138.0-0.0,voc_e2,11913,"[{""event"":""focus"",""trial"":0,""time"":0},{""event"":""fullscreenenter"",""trial"":1,""time"":7230}]",NA,NA,NA,NA,NA,2,#FA92F8,#1CD855,0,0,0,40,0,1279,37,1,440,0,0,experiment,NA,NA,1,0.3,0.7,3,2,129,3,NA
fcp-trial,164,870849,0.0-139.0-0.0,voc_e2,11913,"[{""event"":""focus"",""trial"":0,""time"":0},{""event"":""fullscreenenter"",""trial"":1,""time"":7230}]",NA,NA,NA,NA,NA,0,#D8271C,#741CD8,0,10,1,40,0,371,37,1,375,0,1,experiment,NA,NA,2,0.5,0.5,4,5,130,3,NA
fcp-trial,165,873238,0.0-140.0-0.0,voc_e2,11913,"[{""event"":""focus"",""trial"":0,""time"":0},{""event"":""fullscreenenter"",""trial"":1,""time"":7230}]",NA,NA,NA,NA,NA,6,#1CD855,#FA92F8,0,0,1,40,0,295,37,1,573,0,1,experiment,NA,NA,1,0.7,0.3,2,3,131,3,NA
fcp-trial,166,875720,0.0-141.0-0.0,voc_e2,11913,"[{""event"":""focus"",""trial"":0,""time"":0},{""event"":""fullscreenenter"",""trial"":1,""time"":7230}]",NA,NA,NA,NA,NA,5,#D89F1C,#3386FF,10,0,1,40,0,464,39,0,487,0,0,experiment,NA,NA,0,0.9,0.1,0,1,132,3,NA
fcp-trial,167,878222,0.0-142.0-0.0,voc_e2,11913,"[{""event"":""focus"",""trial"":0,""time"":0},{""event"":""fullscreenenter"",""trial"":1,""time"":7230}]",NA,NA,NA,NA,NA,3,#741CD8,#D8271C,0,10,0,40,0,471,39,0,490,10,1,experiment,NA,NA,2,0.5,0.5,5,4,133,3,NA
fcp-trial,168,880844,0.0-143.0-0.0,voc_e2,11913,"[{""event"":""focus"",""trial"":0,""time"":0},{""event"":""fullscreenenter"",""trial"":1,""time"":7230}]",NA,NA,NA,NA,NA,6,#D89F1C,#3386FF,10,0,1,40,0,611,39,0,485,0,0,experiment,NA,NA,0,0.9,0.1,0,1,134,3,NA
fcp-trial,169,883763,0.0-144.0-0.0,voc_e2,11913,"[{""event"":""focus"",""trial"":0,""time"":0},{""event"":""fullscreenenter"",""trial"":1,""time"":7230}]",NA,NA,NA,NA,NA,3,#FA92F8,#1CD855,0,10,0,40,0,923,39,0,470,10,1,experiment,NA,NA,1,0.3,0.7,3,2,135,3,NA
fcp-trial,170,887968,0.0-145.0-0.0,voc_e2,11913,"[{""event"":""focus"",""trial"":0,""time"":0},{""event"":""fullscreenenter"",""trial"":1,""time"":7230}]",NA,NA,NA,NA,NA,4,#3386FF,#D89F1C,0,10,0,40,0,2165,37,1,517,0,0,experiment,NA,NA,0,0.1,0.9,1,0,136,4,NA
fcp-trial,171,891224,0.0-146.0-0.0,voc_e2,11913,"[{""event"":""focus"",""trial"":0,""time"":0},{""event"":""fullscreenenter"",""trial"":1,""time"":7230}]",NA,NA,NA,NA,NA,1,#741CD8,#D8271C,10,0,0,40,0,1273,39,0,465,0,1,experiment,NA,NA,2,0.5,0.5,5,4,137,4,NA
fcp-trial,172,893959,0.0-147.0-0.0,voc_e2,11913,"[{""event"":""focus"",""trial"":0,""time"":0},{""event"":""fullscreenenter"",""trial"":1,""time"":7230}]",NA,NA,NA,NA,NA,2,#3386FF,#D89F1C,0,10,0,40,0,679,37,1,537,0,0,experiment,NA,NA,0,0.1,0.9,1,0,138,4,NA
fcp-trial,173,896748,0.0-148.0-0.0,voc_e2,11913,"[{""event"":""focus"",""trial"":0,""time"":0},{""event"":""fullscreenenter"",""trial"":1,""time"":7230}]",NA,NA,NA,NA,NA,0,#FA92F8,#1CD855,0,10,0,40,0,708,39,0,564,10,1,experiment,NA,NA,1,0.3,0.7,3,2,139,4,NA
fcp-trial,174,899218,0.0-149.0-0.0,voc_e2,11913,"[{""event"":""focus"",""trial"":0,""time"":0},{""event"":""fullscreenenter"",""trial"":1,""time"":7230}]",NA,NA,NA,NA,NA,4,#741CD8,#D8271C,0,10,0,40,0,409,37,1,555,0,0,experiment,NA,NA,2,0.5,0.5,5,4,140,4,NA
fcp-trial,175,901988,0.0-150.0-0.0,voc_e2,11913,"[{""event"":""focus"",""trial"":0,""time"":0},{""event"":""fullscreenenter"",""trial"":1,""time"":7230}]",NA,NA,NA,NA,NA,3,#3386FF,#D89F1C,0,0,0,40,0,815,37,1,437,0,0,experiment,NA,NA,0,0.1,0.9,1,0,141,4,NA
fcp-trial,176,905689,0.0-151.0-0.0,voc_e2,11913,"[{""event"":""focus"",""trial"":0,""time"":0},{""event"":""fullscreenenter"",""trial"":1,""time"":7230}]",NA,NA,NA,NA,NA,2,#741CD8,#D8271C,0,0,0,40,0,1610,39,0,564,0,1,experiment,NA,NA,2,0.5,0.5,5,4,142,4,NA
fcp-trial,177,908316,0.0-152.0-0.0,voc_e2,11913,"[{""event"":""focus"",""trial"":0,""time"":0},{""event"":""fullscreenenter"",""trial"":1,""time"":7230}]",NA,NA,NA,NA,NA,4,#FA92F8,#1CD855,10,10,0,40,0,687,37,1,407,10,0,experiment,NA,NA,1,0.3,0.7,3,2,143,4,NA
fcp-trial,178,911028,0.0-153.0-0.0,voc_e2,11913,"[{""event"":""focus"",""trial"":0,""time"":0},{""event"":""fullscreenenter"",""trial"":1,""time"":7230}]",NA,NA,NA,NA,NA,1,#FA92F8,#1CD855,0,0,0,40,0,532,39,0,517,0,1,experiment,NA,NA,1,0.3,0.7,3,2,144,4,NA
fcp-trial,179,914034,0.0-154.0-0.0,voc_e2,11913,"[{""event"":""focus"",""trial"":0,""time"":0},{""event"":""fullscreenenter"",""trial"":1,""time"":7230}]",NA,NA,NA,NA,NA,6,#D8271C,#741CD8,10,0,1,40,0,868,39,0,597,0,0,experiment,NA,NA,2,0.5,0.5,4,5,145,4,NA
fcp-trial,180,917217,0.0-155.0-0.0,voc_e2,11913,"[{""event"":""focus"",""trial"":0,""time"":0},{""event"":""fullscreenenter"",""trial"":1,""time"":7230}]",NA,NA,NA,NA,NA,0,#3386FF,#D89F1C,0,10,0,40,0,1022,39,0,630,10,1,experiment,NA,NA,0,0.1,0.9,1,0,146,4,NA
fcp-trial,181,921449,0.0-156.0-0.0,voc_e2,11913,"[{""event"":""focus"",""trial"":0,""time"":0},{""event"":""fullscreenenter"",""trial"":1,""time"":7230}]",NA,NA,NA,NA,NA,5,#FA92F8,#1CD855,0,10,0,40,0,1934,39,0,763,10,1,experiment,NA,NA,1,0.3,0.7,3,2,147,4,NA
fcp-trial,182,924808,0.0-157.0-0.0,voc_e2,11913,"[{""event"":""focus"",""trial"":0,""time"":0},{""event"":""fullscreenenter"",""trial"":1,""time"":7230}]",NA,NA,NA,NA,NA,1,#D8271C,#741CD8,0,0,1,40,0,1305,39,0,517,0,0,experiment,NA,NA,2,0.5,0.5,4,5,148,4,NA
fcp-trial,183,927479,0.0-158.0-0.0,voc_e2,11913,"[{""event"":""focus"",""trial"":0,""time"":0},{""event"":""fullscreenenter"",""trial"":1,""time"":7230}]",NA,NA,NA,NA,NA,4,#3386FF,#D89F1C,0,10,0,40,0,527,37,1,625,0,0,experiment,NA,NA,0,0.1,0.9,1,0,149,4,NA
fcp-trial,184,930113,0.0-159.0-0.0,voc_e2,11913,"[{""event"":""focus"",""trial"":0,""time"":0},{""event"":""fullscreenenter"",""trial"":1,""time"":7230}]",NA,NA,NA,NA,NA,0,#D8271C,#741CD8,10,0,1,40,0,634,39,0,462,0,0,experiment,NA,NA,2,0.5,0.5,4,5,150,4,NA
fcp-trial,185,932728,0.0-160.0-0.0,voc_e2,11913,"[{""event"":""focus"",""trial"":0,""time"":0},{""event"":""fullscreenenter"",""trial"":1,""time"":7230}]",NA,NA,NA,NA,NA,0,#FA92F8,#1CD855,10,0,0,40,0,647,37,1,440,10,0,experiment,NA,NA,1,0.3,0.7,3,2,151,4,NA
fcp-trial,186,935247,0.0-161.0-0.0,voc_e2,11913,"[{""event"":""focus"",""trial"":0,""time"":0},{""event"":""fullscreenenter"",""trial"":1,""time"":7230}]",NA,NA,NA,NA,NA,1,#D89F1C,#3386FF,10,0,1,40,0,471,39,0,525,0,0,experiment,NA,NA,0,0.9,0.1,0,1,152,4,NA
fcp-trial,187,937648,0.0-162.0-0.0,voc_e2,11913,"[{""event"":""focus"",""trial"":0,""time"":0},{""event"":""fullscreenenter"",""trial"":1,""time"":7230}]",NA,NA,NA,NA,NA,2,#D89F1C,#3386FF,0,0,1,40,0,506,39,0,371,0,0,experiment,NA,NA,0,0.9,0.1,0,1,153,4,NA
fcp-trial,188,942879,0.0-163.0-0.0,voc_e2,11913,"[{""event"":""focus"",""trial"":0,""time"":0},{""event"":""fullscreenenter"",""trial"":1,""time"":7230}]",NA,NA,NA,NA,NA,2,#FA92F8,#1CD855,0,0,0,40,0,3145,37,1,560,0,0,experiment,NA,NA,1,0.3,0.7,3,2,154,4,NA
fcp-trial,189,946598,0.0-164.0-0.0,voc_e2,11913,"[{""event"":""focus"",""trial"":0,""time"":0},{""event"":""fullscreenenter"",""trial"":1,""time"":7230}]",NA,NA,NA,NA,NA,4,#D8271C,#741CD8,10,10,1,40,0,1712,39,0,482,10,0,experiment,NA,NA,2,0.5,0.5,4,5,155,4,NA
fcp-trial,190,949168,0.0-165.0-0.0,voc_e2,11913,"[{""event"":""focus"",""trial"":0,""time"":0},{""event"":""fullscreenenter"",""trial"":1,""time"":7230}]",NA,NA,NA,NA,NA,3,#741CD8,#D8271C,0,0,0,40,0,626,39,0,409,0,1,experiment,NA,NA,2,0.5,0.5,5,4,156,4,NA
fcp-trial,191,952237,0.0-166.0-0.0,voc_e2,11913,"[{""event"":""focus"",""trial"":0,""time"":0},{""event"":""fullscreenenter"",""trial"":1,""time"":7230}]",NA,NA,NA,NA,NA,3,#3386FF,#D89F1C,0,10,0,40,0,1128,39,0,414,10,1,experiment,NA,NA,0,0.1,0.9,1,0,157,4,NA
fcp-trial,192,954618,0.0-167.0-0.0,voc_e2,11913,"[{""event"":""focus"",""trial"":0,""time"":0},{""event"":""fullscreenenter"",""trial"":1,""time"":7230}]",NA,NA,NA,NA,NA,3,#1CD855,#FA92F8,0,0,1,40,0,378,37,1,463,0,1,experiment,NA,NA,1,0.7,0.3,2,3,158,4,NA
fcp-trial,193,958508,0.0-168.0-0.0,voc_e2,11913,"[{""event"":""focus"",""trial"":0,""time"":0},{""event"":""fullscreenenter"",""trial"":1,""time"":7230}]",NA,NA,NA,NA,NA,1,#FA92F8,#1CD855,10,10,0,40,0,1822,39,0,545,10,1,experiment,NA,NA,1,0.3,0.7,3,2,159,4,NA
fcp-trial,194,961078,0.0-169.0-0.0,voc_e2,11913,"[{""event"":""focus"",""trial"":0,""time"":0},{""event"":""fullscreenenter"",""trial"":1,""time"":7230}]",NA,NA,NA,NA,NA,4,#1CD855,#FA92F8,0,0,1,40,0,652,39,0,387,0,0,experiment,NA,NA,1,0.7,0.3,2,3,160,4,NA
fcp-trial,195,963758,0.0-170.0-0.0,voc_e2,11913,"[{""event"":""focus"",""trial"":0,""time"":0},{""event"":""fullscreenenter"",""trial"":1,""time"":7230}]",NA,NA,NA,NA,NA,5,#741CD8,#D8271C,10,10,0,40,0,625,37,1,531,10,0,experiment,NA,NA,2,0.5,0.5,5,4,161,4,NA
fcp-trial,196,966527,0.0-171.0-0.0,voc_e2,11913,"[{""event"":""focus"",""trial"":0,""time"":0},{""event"":""fullscreenenter"",""trial"":1,""time"":7230}]",NA,NA,NA,NA,NA,6,#D89F1C,#3386FF,10,0,1,40,0,702,37,1,544,10,1,experiment,NA,NA,0,0.9,0.1,0,1,162,4,NA
fcp-trial,197,970258,0.0-172.0-0.0,voc_e2,11913,"[{""event"":""focus"",""trial"":0,""time"":0},{""event"":""fullscreenenter"",""trial"":1,""time"":7230}]",NA,NA,NA,NA,NA,6,#FA92F8,#1CD855,0,10,0,40,0,1610,37,1,590,0,0,experiment,NA,NA,1,0.3,0.7,3,2,163,4,NA
fcp-trial,198,973074,0.0-173.0-0.0,voc_e2,11913,"[{""event"":""focus"",""trial"":0,""time"":0},{""event"":""fullscreenenter"",""trial"":1,""time"":7230}]",NA,NA,NA,NA,NA,6,#D8271C,#741CD8,0,10,1,40,0,751,39,0,532,10,0,experiment,NA,NA,2,0.5,0.5,4,5,164,4,NA
fcp-trial,199,976578,0.0-174.0-0.0,voc_e2,11913,"[{""event"":""focus"",""trial"":0,""time"":0},{""event"":""fullscreenenter"",""trial"":1,""time"":7230}]",NA,NA,NA,NA,NA,2,#D8271C,#741CD8,0,10,1,40,0,678,39,0,1290,10,0,experiment,NA,NA,2,0.5,0.5,4,5,165,4,NA
fcp-trial,200,979339,0.0-175.0-0.0,voc_e2,11913,"[{""event"":""focus"",""trial"":0,""time"":0},{""event"":""fullscreenenter"",""trial"":1,""time"":7230}]",NA,NA,NA,NA,NA,5,#1CD855,#FA92F8,0,0,1,40,0,735,39,0,486,0,0,experiment,NA,NA,1,0.7,0.3,2,3,166,4,NA
fcp-trial,201,981944,0.0-176.0-0.0,voc_e2,11913,"[{""event"":""focus"",""trial"":0,""time"":0},{""event"":""fullscreenenter"",""trial"":1,""time"":7230}]",NA,NA,NA,NA,NA,0,#D89F1C,#3386FF,0,0,1,40,0,646,39,0,435,0,0,experiment,NA,NA,0,0.9,0.1,0,1,167,4,NA
fcp-trial,202,985627,0.0-177.0-0.0,voc_e2,11913,"[{""event"":""focus"",""trial"":0,""time"":0},{""event"":""fullscreenenter"",""trial"":1,""time"":7230}]",NA,NA,NA,NA,NA,5,#3386FF,#D89F1C,0,10,0,40,0,680,39,0,1387,10,1,experiment,NA,NA,0,0.1,0.9,1,0,168,4,NA
fcp-trial,203,988246,0.0-178.0-0.0,voc_e2,11913,"[{""event"":""focus"",""trial"":0,""time"":0},{""event"":""fullscreenenter"",""trial"":1,""time"":7230}]",NA,NA,NA,NA,NA,4,#FA92F8,#1CD855,0,10,0,40,0,541,37,1,556,0,0,experiment,NA,NA,1,0.3,0.7,3,2,169,4,NA
fcp-trial,204,991128,0.0-179.0-0.0,voc_e2,11913,"[{""event"":""focus"",""trial"":0,""time"":0},{""event"":""fullscreenenter"",""trial"":1,""time"":7230}]",NA,NA,NA,NA,NA,1,#D89F1C,#3386FF,10,0,1,40,0,714,37,1,654,10,1,experiment,NA,NA,0,0.9,0.1,0,1,170,4,NA
fcp-trial,205,995173,0.0-180.0-0.0,voc_e2,11913,"[{""event"":""focus"",""trial"":0,""time"":0},{""event"":""fullscreenenter"",""trial"":1,""time"":7230}]",NA,NA,NA,NA,NA,2,#741CD8,#D8271C,0,0,0,40,0,2023,39,0,490,0,1,experiment,NA,NA,2,0.5,0.5,5,4,171,4,NA
fcp-trial,206,997547,0.0-181.0-0.0,voc_e2,11913,"[{""event"":""focus"",""trial"":0,""time"":0},{""event"":""fullscreenenter"",""trial"":1,""time"":7230}]",NA,NA,NA,NA,NA,6,#FA92F8,#1CD855,0,10,0,40,0,489,37,1,342,0,0,experiment,NA,NA,1,0.3,0.7,3,2,172,4,NA
fcp-trial,207,999997,0.0-182.0-0.0,voc_e2,11913,"[{""event"":""focus"",""trial"":0,""time"":0},{""event"":""fullscreenenter"",""trial"":1,""time"":7230}]",NA,NA,NA,NA,NA,6,#D89F1C,#3386FF,10,0,1,40,0,483,37,1,451,10,1,experiment,NA,NA,0,0.9,0.1,0,1,173,4,NA
fcp-trial,208,1002687,0.0-183.0-0.0,voc_e2,11913,"[{""event"":""focus"",""trial"":0,""time"":0},{""event"":""fullscreenenter"",""trial"":1,""time"":7230}]",NA,NA,NA,NA,NA,0,#D8271C,#741CD8,0,10,1,40,0,760,37,1,418,0,1,experiment,NA,NA,2,0.5,0.5,4,5,174,4,NA
fcp-trial,209,1005548,0.0-184.0-0.0,voc_e2,11913,"[{""event"":""focus"",""trial"":0,""time"":0},{""event"":""fullscreenenter"",""trial"":1,""time"":7230}]",NA,NA,NA,NA,NA,0,#FA92F8,#1CD855,10,0,0,40,0,912,37,1,405,10,0,experiment,NA,NA,1,0.3,0.7,3,2,175,4,NA
fcp-trial,210,1008415,0.0-185.0-0.0,voc_e2,11913,"[{""event"":""focus"",""trial"":0,""time"":0},{""event"":""fullscreenenter"",""trial"":1,""time"":7230}]",NA,NA,NA,NA,NA,5,#D89F1C,#3386FF,10,0,1,40,0,867,39,0,483,0,0,experiment,NA,NA,0,0.9,0.1,0,1,176,4,NA
fcp-trial,211,1011028,0.0-186.0-0.0,voc_e2,11913,"[{""event"":""focus"",""trial"":0,""time"":0},{""event"":""fullscreenenter"",""trial"":1,""time"":7230}]",NA,NA,NA,NA,NA,4,#D8271C,#741CD8,10,0,1,40,0,691,39,0,387,0,0,experiment,NA,NA,2,0.5,0.5,4,5,177,4,NA
fcp-trial,212,1017403,0.0-187.0-0.0,voc_e2,11913,"[{""event"":""focus"",""trial"":0,""time"":0},{""event"":""fullscreenenter"",""trial"":1,""time"":7230}]",NA,NA,NA,NA,NA,2,#FA92F8,#1CD855,0,10,0,40,0,1012,37,1,3835,0,0,experiment,NA,NA,1,0.3,0.7,3,2,178,4,NA
fcp-trial,213,1020033,0.0-188.0-0.0,voc_e2,11913,"[{""event"":""focus"",""trial"":0,""time"":0},{""event"":""fullscreenenter"",""trial"":1,""time"":7230}]",NA,NA,NA,NA,NA,5,#1CD855,#FA92F8,0,0,1,40,0,539,37,1,583,0,1,experiment,NA,NA,1,0.7,0.3,2,3,179,4,NA
fcp-trial,214,1022551,0.0-189.0-0.0,voc_e2,11913,"[{""event"":""focus"",""trial"":0,""time"":0},{""event"":""fullscreenenter"",""trial"":1,""time"":7230}]",NA,NA,NA,NA,NA,3,#D8271C,#741CD8,0,10,1,40,0,470,37,1,485,0,1,experiment,NA,NA,2,0.5,0.5,4,5,180,4,NA
fcp-trial,215,1025113,0.0-190.0-0.0,voc_e2,11913,"[{""event"":""focus"",""trial"":0,""time"":0},{""event"":""fullscreenenter"",""trial"":1,""time"":7230}]",NA,NA,NA,NA,NA,2,#3386FF,#D89F1C,0,0,0,40,0,535,39,0,502,0,1,experiment,NA,NA,0,0.1,0.9,1,0,181,5,NA
fcp-trial,216,1028779,0.0-191.0-0.0,voc_e2,11913,"[{""event"":""focus"",""trial"":0,""time"":0},{""event"":""fullscreenenter"",""trial"":1,""time"":7230}]",NA,NA,NA,NA,NA,5,#741CD8,#D8271C,10,0,0,40,0,1277,39,0,863,0,1,experiment,NA,NA,2,0.5,0.5,5,4,182,5,NA
fcp-trial,217,1033783,0.0-192.0-0.0,voc_e2,11913,"[{""event"":""focus"",""trial"":0,""time"":0},{""event"":""fullscreenenter"",""trial"":1,""time"":7230}]",NA,NA,NA,NA,NA,3,#1CD855,#FA92F8,10,0,1,40,0,1678,37,1,1618,10,1,experiment,NA,NA,1,0.7,0.3,2,3,183,5,NA
fcp-trial,218,1037348,0.0-193.0-0.0,voc_e2,11913,"[{""event"":""focus"",""trial"":0,""time"":0},{""event"":""fullscreenenter"",""trial"":1,""time"":7230}]",NA,NA,NA,NA,NA,4,#3386FF,#D89F1C,0,10,0,40,0,1328,37,1,712,0,0,experiment,NA,NA,0,0.1,0.9,1,0,184,5,NA
fcp-trial,219,1040951,0.0-194.0-0.0,voc_e2,11913,"[{""event"":""focus"",""trial"":0,""time"":0},{""event"":""fullscreenenter"",""trial"":1,""time"":7230}]",NA,NA,NA,NA,NA,0,#3386FF,#D89F1C,0,10,0,40,0,397,39,0,1685,10,1,experiment,NA,NA,0,0.1,0.9,1,0,185,5,NA
fcp-trial,220,1044027,0.0-195.0-0.0,voc_e2,11913,"[{""event"":""focus"",""trial"":0,""time"":0},{""event"":""fullscreenenter"",""trial"":1,""time"":7230}]",NA,NA,NA,NA,NA,1,#741CD8,#D8271C,0,10,0,40,0,735,37,1,820,0,0,experiment,NA,NA,2,0.5,0.5,5,4,186,5,NA
fcp-trial,221,1048192,0.0-196.0-0.0,voc_e2,11913,"[{""event"":""focus"",""trial"":0,""time"":0},{""event"":""fullscreenenter"",""trial"":1,""time"":7230}]",NA,NA,NA,NA,NA,3,#D89F1C,#3386FF,10,0,1,40,0,1101,37,1,1551,10,1,experiment,NA,NA,0,0.9,0.1,0,1,187,5,NA
fcp-trial,222,1051738,0.0-197.0-0.0,voc_e2,11913,"[{""event"":""focus"",""trial"":0,""time"":0},{""event"":""fullscreenenter"",""trial"":1,""time"":7230}]",NA,NA,NA,NA,NA,1,#1CD855,#FA92F8,10,0,1,40,0,888,39,0,1126,0,0,experiment,NA,NA,1,0.7,0.3,2,3,188,5,NA
fcp-trial,223,1055064,0.0-198.0-0.0,voc_e2,11913,"[{""event"":""focus"",""trial"":0,""time"":0},{""event"":""fullscreenenter"",""trial"":1,""time"":7230}]",NA,NA,NA,NA,NA,6,#D8271C,#741CD8,0,0,1,40,0,882,37,1,837,0,1,experiment,NA,NA,2,0.5,0.5,4,5,189,5,NA
fcp-trial,224,1059098,0.0-199.0-0.0,voc_e2,11913,"[{""event"":""focus"",""trial"":0,""time"":0},{""event"":""fullscreenenter"",""trial"":1,""time"":7230}]",NA,NA,NA,NA,NA,1,#D89F1C,#3386FF,10,0,1,40,0,1136,39,0,1295,0,0,experiment,NA,NA,0,0.9,0.1,0,1,190,5,NA
fcp-trial,225,1063373,0.0-200.0-0.0,voc_e2,11913,"[{""event"":""focus"",""trial"":0,""time"":0},{""event"":""fullscreenenter"",""trial"":1,""time"":7230}]",NA,NA,NA,NA,NA,6,#741CD8,#D8271C,10,10,0,40,0,859,39,0,1884,10,1,experiment,NA,NA,2,0.5,0.5,5,4,191,5,NA
fcp-trial,226,1066303,0.0-201.0-0.0,voc_e2,11913,"[{""event"":""focus"",""trial"":0,""time"":0},{""event"":""fullscreenenter"",""trial"":1,""time"":7230}]",NA,NA,NA,NA,NA,4,#741CD8,#D8271C,10,10,0,40,0,571,37,1,832,10,0,experiment,NA,NA,2,0.5,0.5,5,4,192,5,NA
fcp-trial,227,1070129,0.0-202.0-0.0,voc_e2,11913,"[{""event"":""focus"",""trial"":0,""time"":0},{""event"":""fullscreenenter"",""trial"":1,""time"":7230}]",NA,NA,NA,NA,NA,4,#FA92F8,#1CD855,0,0,0,40,0,535,37,1,1750,0,0,experiment,NA,NA,1,0.3,0.7,3,2,193,5,NA
fcp-trial,228,1074554,0.0-203.0-0.0,voc_e2,11913,"[{""event"":""focus"",""trial"":0,""time"":0},{""event"":""fullscreenenter"",""trial"":1,""time"":7230}]",NA,NA,NA,NA,NA,3,#D8271C,#741CD8,0,10,1,40,0,1908,39,0,981,10,0,experiment,NA,NA,2,0.5,0.5,4,5,194,5,NA
fcp-trial,229,1078163,0.0-204.0-0.0,voc_e2,11913,"[{""event"":""focus"",""trial"":0,""time"":0},{""event"":""fullscreenenter"",""trial"":1,""time"":7230}]",NA,NA,NA,NA,NA,4,#3386FF,#D89F1C,0,10,0,40,0,1282,39,0,801,10,1,experiment,NA,NA,0,0.1,0.9,1,0,195,5,NA
fcp-trial,230,1082775,0.0-205.0-0.0,voc_e2,11913,"[{""event"":""focus"",""trial"":0,""time"":0},{""event"":""fullscreenenter"",""trial"":1,""time"":7230}]",NA,NA,NA,NA,NA,3,#1CD855,#FA92F8,10,0,1,40,0,2117,39,0,964,0,0,experiment,NA,NA,1,0.7,0.3,2,3,196,5,NA
fcp-trial,231,1086429,0.0-206.0-0.0,voc_e2,11913,"[{""event"":""focus"",""trial"":0,""time"":0},{""event"":""fullscreenenter"",""trial"":1,""time"":7230}]",NA,NA,NA,NA,NA,2,#3386FF,#D89F1C,0,10,0,40,0,1440,39,0,674,10,1,experiment,NA,NA,0,0.1,0.9,1,0,197,5,NA
fcp-trial,232,1089789,0.0-207.0-0.0,voc_e2,11913,"[{""event"":""focus"",""trial"":0,""time"":0},{""event"":""fullscreenenter"",""trial"":1,""time"":7230}]",NA,NA,NA,NA,NA,3,#D89F1C,#3386FF,10,0,1,40,0,1522,39,0,318,0,0,experiment,NA,NA,0,0.9,0.1,0,1,198,5,NA
fcp-trial,233,1092519,0.0-208.0-0.0,voc_e2,11913,"[{""event"":""focus"",""trial"":0,""time"":0},{""event"":""fullscreenenter"",""trial"":1,""time"":7230}]",NA,NA,NA,NA,NA,1,#741CD8,#D8271C,10,0,0,40,0,924,39,0,291,0,1,experiment,NA,NA,2,0.5,0.5,5,4,199,5,NA
fcp-trial,234,1095937,0.0-209.0-0.0,voc_e2,11913,"[{""event"":""focus"",""trial"":0,""time"":0},{""event"":""fullscreenenter"",""trial"":1,""time"":7230}]",NA,NA,NA,NA,NA,5,#1CD855,#FA92F8,0,0,1,40,0,487,37,1,1404,0,1,experiment,NA,NA,1,0.7,0.3,2,3,200,5,NA
fcp-trial,235,1101978,0.0-210.0-0.0,voc_e2,11913,"[{""event"":""focus"",""trial"":0,""time"":0},{""event"":""fullscreenenter"",""trial"":1,""time"":7230}]",NA,NA,NA,NA,NA,1,#1CD855,#FA92F8,10,0,1,40,0,1415,39,0,2940,0,0,experiment,NA,NA,1,0.7,0.3,2,3,201,5,NA
fcp-trial,236,1105552,0.0-211.0-0.0,voc_e2,11913,"[{""event"":""focus"",""trial"":0,""time"":0},{""event"":""fullscreenenter"",""trial"":1,""time"":7230}]",NA,NA,NA,NA,NA,5,#741CD8,#D8271C,10,0,0,40,0,340,37,1,1702,10,0,experiment,NA,NA,2,0.5,0.5,5,4,202,5,NA
fcp-trial,237,1110807,0.0-212.0-0.0,voc_e2,11913,"[{""event"":""focus"",""trial"":0,""time"":0},{""event"":""fullscreenenter"",""trial"":1,""time"":7230}]",NA,NA,NA,NA,NA,0,#3386FF,#D89F1C,0,10,0,40,0,1295,39,0,2429,10,1,experiment,NA,NA,0,0.1,0.9,1,0,203,5,NA
fcp-trial,238,1112857,0.0-213.0-0.0,voc_e2,11913,"[{""event"":""focus"",""trial"":0,""time"":0},{""event"":""fullscreenenter"",""trial"":1,""time"":7230}]",NA,NA,NA,NA,NA,6,#FA92F8,#1CD855,0,10,0,40,0,83,37,1,434,0,0,experiment,NA,NA,1,0.3,0.7,3,2,204,5,NA
fcp-trial,239,1118432,0.0-214.0-0.0,voc_e2,11913,"[{""event"":""focus"",""trial"":0,""time"":0},{""event"":""fullscreenenter"",""trial"":1,""time"":7230}]",NA,NA,NA,NA,NA,6,#3386FF,#D89F1C,0,10,0,40,0,1919,39,0,2116,10,1,experiment,NA,NA,0,0.1,0.9,1,0,205,5,NA
fcp-trial,240,1121432,0.0-215.0-0.0,voc_e2,11913,"[{""event"":""focus"",""trial"":0,""time"":0},{""event"":""fullscreenenter"",""trial"":1,""time"":7230}]",NA,NA,NA,NA,NA,5,#D89F1C,#3386FF,10,0,1,40,0,102,37,1,1376,10,1,experiment,NA,NA,0,0.9,0.1,0,1,206,5,NA
fcp-trial,241,1123467,0.0-216.0-0.0,voc_e2,11913,"[{""event"":""focus"",""trial"":0,""time"":0},{""event"":""fullscreenenter"",""trial"":1,""time"":7230}]",NA,NA,NA,NA,NA,2,#D8271C,#741CD8,0,0,1,40,0,166,39,0,342,0,0,experiment,NA,NA,2,0.5,0.5,4,5,207,5,NA
fcp-trial,242,1126037,0.0-217.0-0.0,voc_e2,11913,"[{""event"":""focus"",""trial"":0,""time"":0},{""event"":""fullscreenenter"",""trial"":1,""time"":7230}]",NA,NA,NA,NA,NA,2,#FA92F8,#1CD855,0,10,0,40,0,781,39,0,277,10,1,experiment,NA,NA,1,0.3,0.7,3,2,208,5,NA
fcp-trial,243,1130327,0.0-218.0-0.0,voc_e2,11913,"[{""event"":""focus"",""trial"":0,""time"":0},{""event"":""fullscreenenter"",""trial"":1,""time"":7230}]",NA,NA,NA,NA,NA,0,#1CD855,#FA92F8,10,10,1,40,0,2249,37,1,330,10,1,experiment,NA,NA,1,0.7,0.3,2,3,209,5,NA
fcp-trial,244,1132347,0.0-219.0-0.0,voc_e2,11913,"[{""event"":""focus"",""trial"":0,""time"":0},{""event"":""fullscreenenter"",""trial"":1,""time"":7230}]",NA,NA,NA,NA,NA,0,#D8271C,#741CD8,0,10,1,40,0,15,39,0,320,10,0,experiment,NA,NA,2,0.5,0.5,4,5,210,5,NA
audio-instructions,245,1149742,0.0-220.0,voc_e2,11913,"[{""event"":""focus"",""trial"":0,""time"":0},{""event"":""fullscreenenter"",""trial"":1,""time"":7230}]",NA,12948,static/audio/pause.wav,NA,0,NA,NA,NA,NA,NA,NA,NA,NA,NA,NA,NA,NA,NA,NA,NA,NA,NA,NA,NA,NA,NA,NA,NA,NA,NA
fcp-trial,246,1155031,0.0-221.0-0.0,voc_e2,11913,"[{""event"":""focus"",""trial"":0,""time"":0},{""event"":""fullscreenenter"",""trial"":1,""time"":7230}]",NA,NA,NA,NA,NA,3,#1CD855,#FA92F8,10,0,1,40,0,2826,37,1,839,10,1,experiment,NA,NA,1,0.7,0.3,2,3,211,5,NA
fcp-trial,247,1158535,0.0-222.0-0.0,voc_e2,11913,"[{""event"":""focus"",""trial"":0,""time"":0},{""event"":""fullscreenenter"",""trial"":1,""time"":7230}]",NA,NA,NA,NA,NA,4,#3386FF,#D89F1C,10,10,0,40,0,1168,39,0,804,10,1,experiment,NA,NA,0,0.1,0.9,1,0,212,5,NA
fcp-trial,248,1162873,0.0-223.0-0.0,voc_e2,11913,"[{""event"":""focus"",""trial"":0,""time"":0},{""event"":""fullscreenenter"",""trial"":1,""time"":7230}]",NA,NA,NA,NA,NA,4,#FA92F8,#1CD855,0,10,0,40,0,2008,37,1,806,0,0,experiment,NA,NA,1,0.3,0.7,3,2,213,5,NA
fcp-trial,249,1167287,0.0-224.0-0.0,voc_e2,11913,"[{""event"":""focus"",""trial"":0,""time"":0},{""event"":""fullscreenenter"",""trial"":1,""time"":7230}]",NA,NA,NA,NA,NA,4,#741CD8,#D8271C,10,10,0,40,0,2050,37,1,791,10,0,experiment,NA,NA,2,0.5,0.5,5,4,214,5,NA
fcp-trial,250,1176718,0.0-225.0-0.0,voc_e2,11913,"[{""event"":""focus"",""trial"":0,""time"":0},{""event"":""fullscreenenter"",""trial"":1,""time"":7230}]",NA,NA,NA,NA,NA,6,#D89F1C,#3386FF,10,0,1,40,0,4854,39,0,3045,0,0,experiment,NA,NA,0,0.9,0.1,0,1,215,5,NA
fcp-trial,251,1179548,0.0-226.0-0.0,voc_e2,11913,"[{""event"":""focus"",""trial"":0,""time"":0},{""event"":""fullscreenenter"",""trial"":1,""time"":7230}]",NA,NA,NA,NA,NA,6,#1CD855,#FA92F8,10,10,1,40,0,451,39,0,856,10,0,experiment,NA,NA,1,0.7,0.3,2,3,216,5,NA
fcp-trial,252,1182027,0.0-227.0-0.0,voc_e2,11913,"[{""event"":""focus"",""trial"":0,""time"":0},{""event"":""fullscreenenter"",""trial"":1,""time"":7230}]",NA,NA,NA,NA,NA,2,#741CD8,#D8271C,10,0,0,40,0,530,39,0,435,0,1,experiment,NA,NA,2,0.5,0.5,5,4,217,5,NA
fcp-trial,253,1184661,0.0-228.0-0.0,voc_e2,11913,"[{""event"":""focus"",""trial"":0,""time"":0},{""event"":""fullscreenenter"",""trial"":1,""time"":7230}]",NA,NA,NA,NA,NA,0,#3386FF,#D89F1C,0,10,0,40,0,541,39,0,564,10,1,experiment,NA,NA,0,0.1,0.9,1,0,218,5,NA
fcp-trial,254,1187182,0.0-229.0-0.0,voc_e2,11913,"[{""event"":""focus"",""trial"":0,""time"":0},{""event"":""fullscreenenter"",""trial"":1,""time"":7230}]",NA,NA,NA,NA,NA,2,#FA92F8,#1CD855,10,10,0,40,0,457,39,0,553,10,1,experiment,NA,NA,1,0.3,0.7,3,2,219,5,NA
fcp-trial,255,1189701,0.0-230.0-0.0,voc_e2,11913,"[{""event"":""focus"",""trial"":0,""time"":0},{""event"":""fullscreenenter"",""trial"":1,""time"":7230}]",NA,NA,NA,NA,NA,3,#3386FF,#D89F1C,0,10,0,40,0,410,39,0,515,10,1,experiment,NA,NA,0,0.1,0.9,1,0,220,5,NA
fcp-trial,256,1192371,0.0-231.0-0.0,voc_e2,11913,"[{""event"":""focus"",""trial"":0,""time"":0},{""event"":""fullscreenenter"",""trial"":1,""time"":7230}]",NA,NA,NA,NA,NA,1,#741CD8,#D8271C,0,0,0,40,0,674,39,0,389,0,1,experiment,NA,NA,2,0.5,0.5,5,4,221,5,NA
fcp-trial,257,1194885,0.0-232.0-0.0,voc_e2,11913,"[{""event"":""focus"",""trial"":0,""time"":0},{""event"":""fullscreenenter"",""trial"":1,""time"":7230}]",NA,NA,NA,NA,NA,0,#1CD855,#FA92F8,10,0,1,40,0,451,39,0,530,0,0,experiment,NA,NA,1,0.7,0.3,2,3,222,5,NA
fcp-trial,258,1197974,0.0-233.0-0.0,voc_e2,11913,"[{""event"":""focus"",""trial"":0,""time"":0},{""event"":""fullscreenenter"",""trial"":1,""time"":7230}]",NA,NA,NA,NA,NA,5,#3386FF,#D89F1C,0,10,0,40,0,1019,37,1,535,0,0,experiment,NA,NA,0,0.1,0.9,1,0,223,5,NA
fcp-trial,259,1202218,0.0-234.0-0.0,voc_e2,11913,"[{""event"":""focus"",""trial"":0,""time"":0},{""event"":""fullscreenenter"",""trial"":1,""time"":7230}]",NA,NA,NA,NA,NA,6,#741CD8,#D8271C,10,10,0,40,0,1848,37,1,878,10,0,experiment,NA,NA,2,0.5,0.5,5,4,224,5,NA
fcp-trial,260,1204901,0.0-235.0-0.0,voc_e2,11913,"[{""event"":""focus"",""trial"":0,""time"":0},{""event"":""fullscreenenter"",""trial"":1,""time"":7230}]",NA,NA,NA,NA,NA,5,#1CD855,#FA92F8,10,0,1,40,0,559,37,1,595,10,1,experiment,NA,NA,1,0.7,0.3,2,3,225,5,NA
fcp-trial,261,1207534,0.0-236.0-0.0,voc_e2,11913,"[{""event"":""focus"",""trial"":0,""time"":0},{""event"":""fullscreenenter"",""trial"":1,""time"":7230}]",NA,NA,NA,NA,NA,0,#741CD8,#D8271C,0,0,0,40,0,602,37,1,501,0,0,experiment,NA,NA,2,0.5,0.5,5,4,226,6,NA
fcp-trial,262,1210617,0.0-237.0-0.0,voc_e2,11913,"[{""event"":""focus"",""trial"":0,""time"":0},{""event"":""fullscreenenter"",""trial"":1,""time"":7230}]",NA,NA,NA,NA,NA,2,#D89F1C,#3386FF,0,0,1,40,0,768,39,0,781,0,0,experiment,NA,NA,0,0.9,0.1,0,1,227,6,NA
fcp-trial,263,1213247,0.0-238.0-0.0,voc_e2,11913,"[{""event"":""focus"",""trial"":0,""time"":0},{""event"":""fullscreenenter"",""trial"":1,""time"":7230}]",NA,NA,NA,NA,NA,3,#D8271C,#741CD8,10,10,1,40,0,533,39,0,580,10,0,experiment,NA,NA,2,0.5,0.5,4,5,228,6,NA
fcp-trial,264,1215617,0.0-239.0-0.0,voc_e2,11913,"[{""event"":""focus"",""trial"":0,""time"":0},{""event"":""fullscreenenter"",""trial"":1,""time"":7230}]",NA,NA,NA,NA,NA,1,#D89F1C,#3386FF,10,0,1,40,0,440,39,0,418,0,0,experiment,NA,NA,0,0.9,0.1,0,1,229,6,NA
fcp-trial,265,1218147,0.0-240.0-0.0,voc_e2,11913,"[{""event"":""focus"",""trial"":0,""time"":0},{""event"":""fullscreenenter"",""trial"":1,""time"":7230}]",NA,NA,NA,NA,NA,1,#1CD855,#FA92F8,10,0,1,40,0,415,39,0,462,0,0,experiment,NA,NA,1,0.7,0.3,2,3,230,6,NA
fcp-trial,266,1220732,0.0-241.0-0.0,voc_e2,11913,"[{""event"":""focus"",""trial"":0,""time"":0},{""event"":""fullscreenenter"",""trial"":1,""time"":7230}]",NA,NA,NA,NA,NA,5,#741CD8,#D8271C,0,10,0,40,0,578,39,0,484,10,1,experiment,NA,NA,2,0.5,0.5,5,4,231,6,NA
fcp-trial,267,1223372,0.0-242.0-0.0,voc_e2,11913,"[{""event"":""focus"",""trial"":0,""time"":0},{""event"":""fullscreenenter"",""trial"":1,""time"":7230}]",NA,NA,NA,NA,NA,2,#741CD8,#D8271C,10,10,0,40,0,565,37,1,560,10,0,experiment,NA,NA,2,0.5,0.5,5,4,232,6,NA
fcp-trial,268,1226170,0.0-243.0-0.0,voc_e2,11913,"[{""event"":""focus"",""trial"":0,""time"":0},{""event"":""fullscreenenter"",""trial"":1,""time"":7230}]",NA,NA,NA,NA,NA,4,#1CD855,#FA92F8,0,0,1,40,0,700,39,0,458,0,0,experiment,NA,NA,1,0.7,0.3,2,3,233,6,NA
fcp-trial,269,1228763,0.0-244.0-0.0,voc_e2,11913,"[{""event"":""focus"",""trial"":0,""time"":0},{""event"":""fullscreenenter"",""trial"":1,""time"":7230}]",NA,NA,NA,NA,NA,2,#FA92F8,#1CD855,10,10,0,40,0,466,39,0,603,10,1,experiment,NA,NA,1,0.3,0.7,3,2,234,6,NA
fcp-trial,270,1231482,0.0-245.0-0.0,voc_e2,11913,"[{""event"":""focus"",""trial"":0,""time"":0},{""event"":""fullscreenenter"",""trial"":1,""time"":7230}]",NA,NA,NA,NA,NA,6,#D8271C,#741CD8,10,0,1,40,0,639,37,1,567,10,1,experiment,NA,NA,2,0.5,0.5,4,5,235,6,NA
fcp-trial,271,1234428,0.0-246.0-0.0,voc_e2,11913,"[{""event"":""focus"",""trial"":0,""time"":0},{""event"":""fullscreenenter"",""trial"":1,""time"":7230}]",NA,NA,NA,NA,NA,4,#3386FF,#D89F1C,0,10,0,40,0,875,37,1,536,0,0,experiment,NA,NA,0,0.1,0.9,1,0,236,6,NA
fcp-trial,272,1237277,0.0-247.0-0.0,voc_e2,11913,"[{""event"":""focus"",""trial"":0,""time"":0},{""event"":""fullscreenenter"",""trial"":1,""time"":7230}]",NA,NA,NA,NA,NA,0,#FA92F8,#1CD855,0,10,0,40,0,851,37,1,471,0,0,experiment,NA,NA,1,0.3,0.7,3,2,237,6,NA
fcp-trial,273,1241243,0.0-248.0-0.0,voc_e2,11913,"[{""event"":""focus"",""trial"":0,""time"":0},{""event"":""fullscreenenter"",""trial"":1,""time"":7230}]",NA,NA,NA,NA,NA,2,#D89F1C,#3386FF,10,0,1,40,0,1571,37,1,880,10,1,experiment,NA,NA,0,0.9,0.1,0,1,238,6,NA
fcp-trial,274,1244347,0.0-249.0-0.0,voc_e2,11913,"[{""event"":""focus"",""trial"":0,""time"":0},{""event"":""fullscreenenter"",""trial"":1,""time"":7230}]",NA,NA,NA,NA,NA,1,#D8271C,#741CD8,0,0,1,40,0,1034,37,1,550,0,1,experiment,NA,NA,2,0.5,0.5,4,5,239,6,NA
fcp-trial,275,1247567,0.0-250.0-0.0,voc_e2,11913,"[{""event"":""focus"",""trial"":0,""time"":0},{""event"":""fullscreenenter"",""trial"":1,""time"":7230}]",NA,NA,NA,NA,NA,6,#FA92F8,#1CD855,0,10,0,40,0,831,39,0,858,10,1,experiment,NA,NA,1,0.3,0.7,3,2,240,6,NA
fcp-trial,276,1250013,0.0-251.0-0.0,voc_e2,11913,"[{""event"":""focus"",""trial"":0,""time"":0},{""event"":""fullscreenenter"",""trial"":1,""time"":7230}]",NA,NA,NA,NA,NA,5,#D8271C,#741CD8,0,10,1,40,0,0,37,1,741,0,1,experiment,NA,NA,2,0.5,0.5,4,5,241,6,NA
fcp-trial,277,1253317,0.0-252.0-0.0,voc_e2,11913,"[{""event"":""focus"",""trial"":0,""time"":0},{""event"":""fullscreenenter"",""trial"":1,""time"":7230}]",NA,NA,NA,NA,NA,3,#FA92F8,#1CD855,10,10,0,40,0,562,39,0,1217,10,1,experiment,NA,NA,1,0.3,0.7,3,2,242,6,NA
fcp-trial,278,1256198,0.0-253.0-0.0,voc_e2,11913,"[{""event"":""focus"",""trial"":0,""time"":0},{""event"":""fullscreenenter"",""trial"":1,""time"":7230}]",NA,NA,NA,NA,NA,3,#3386FF,#D89F1C,0,10,0,40,0,802,37,1,546,0,0,experiment,NA,NA,0,0.1,0.9,1,0,243,6,NA
fcp-trial,279,1258587,0.0-254.0-0.0,voc_e2,11913,"[{""event"":""focus"",""trial"":0,""time"":0},{""event"":""fullscreenenter"",""trial"":1,""time"":7230}]",NA,NA,NA,NA,NA,0,#741CD8,#D8271C,0,0,0,40,0,5,39,0,856,0,1,experiment,NA,NA,2,0.5,0.5,5,4,244,6,NA
fcp-trial,280,1262026,0.0-255.0-0.0,voc_e2,11913,"[{""event"":""focus"",""trial"":0,""time"":0},{""event"":""fullscreenenter"",""trial"":1,""time"":7230}]",NA,NA,NA,NA,NA,1,#D89F1C,#3386FF,10,0,1,40,0,1348,39,0,566,0,0,experiment,NA,NA,0,0.9,0.1,0,1,245,6,NA
fcp-trial,281,1264307,0.0-256.0-0.0,voc_e2,11913,"[{""event"":""focus"",""trial"":0,""time"":0},{""event"":""fullscreenenter"",""trial"":1,""time"":7230}]",NA,NA,NA,NA,NA,1,#1CD855,#FA92F8,10,0,1,40,0,109,37,1,660,10,1,experiment,NA,NA,1,0.7,0.3,2,3,246,6,NA
fcp-trial,282,1267601,0.0-257.0-0.0,voc_e2,11913,"[{""event"":""focus"",""trial"":0,""time"":0},{""event"":""fullscreenenter"",""trial"":1,""time"":7230}]",NA,NA,NA,NA,NA,6,#D89F1C,#3386FF,10,0,1,40,0,988,39,0,778,0,0,experiment,NA,NA,0,0.9,0.1,0,1,247,6,NA
fcp-trial,283,1271202,0.0-258.0-0.0,voc_e2,11913,"[{""event"":""focus"",""trial"":0,""time"":0},{""event"":""fullscreenenter"",""trial"":1,""time"":7230}]",NA,NA,NA,NA,NA,5,#3386FF,#D89F1C,0,10,0,40,0,1173,39,0,862,10,1,experiment,NA,NA,0,0.1,0.9,1,0,248,6,NA
fcp-trial,284,1276027,0.0-259.0-0.0,voc_e2,11913,"[{""event"":""focus"",""trial"":0,""time"":0},{""event"":""fullscreenenter"",""trial"":1,""time"":7230}]",NA,NA,NA,NA,NA,4,#D8271C,#741CD8,0,10,1,40,0,1205,37,1,2096,0,1,experiment,NA,NA,2,0.5,0.5,4,5,249,6,NA
fcp-trial,285,1281322,0.0-260.0-0.0,voc_e2,11913,"[{""event"":""focus"",""trial"":0,""time"":0},{""event"":""fullscreenenter"",""trial"":1,""time"":7230}]",NA,NA,NA,NA,NA,5,#1CD855,#FA92F8,10,0,1,40,0,2437,39,0,1241,0,0,experiment,NA,NA,1,0.7,0.3,2,3,250,6,NA
fcp-trial,286,1287022,0.0-261.0-0.0,voc_e2,11913,"[{""event"":""focus"",""trial"":0,""time"":0},{""event"":""fullscreenenter"",""trial"":1,""time"":7230}]",NA,NA,NA,NA,NA,3,#D8271C,#741CD8,0,0,1,40,0,1507,37,1,2670,0,1,experiment,NA,NA,2,0.5,0.5,4,5,251,6,NA
fcp-trial,287,1291937,0.0-262.0-0.0,voc_e2,11913,"[{""event"":""focus"",""trial"":0,""time"":0},{""event"":""fullscreenenter"",""trial"":1,""time"":7230}]",NA,NA,NA,NA,NA,0,#D89F1C,#3386FF,10,0,1,40,0,1919,37,1,1459,10,1,experiment,NA,NA,0,0.9,0.1,0,1,252,6,NA
fcp-trial,288,1296307,0.0-263.0-0.0,voc_e2,11913,"[{""event"":""focus"",""trial"":0,""time"":0},{""event"":""fullscreenenter"",""trial"":1,""time"":7230}]",NA,NA,NA,NA,NA,4,#1CD855,#FA92F8,10,0,1,40,0,1007,37,1,1835,10,1,experiment,NA,NA,1,0.7,0.3,2,3,253,6,NA
fcp-trial,289,1299676,0.0-264.0-0.0,voc_e2,11913,"[{""event"":""focus"",""trial"":0,""time"":0},{""event"":""fullscreenenter"",""trial"":1,""time"":7230}]",NA,NA,NA,NA,NA,2,#D89F1C,#3386FF,10,0,1,40,0,1399,37,1,444,10,1,experiment,NA,NA,0,0.9,0.1,0,1,254,6,NA
fcp-trial,290,1303701,0.0-265.0-0.0,voc_e2,11913,"[{""event"":""focus"",""trial"":0,""time"":0},{""event"":""fullscreenenter"",""trial"":1,""time"":7230}]",NA,NA,NA,NA,NA,5,#3386FF,#D89F1C,0,10,0,40,0,1763,39,0,722,10,1,experiment,NA,NA,0,0.1,0.9,1,0,255,6,NA
fcp-trial,291,1307737,0.0-266.0-0.0,voc_e2,11913,"[{""event"":""focus"",""trial"":0,""time"":0},{""event"":""fullscreenenter"",""trial"":1,""time"":7230}]",NA,NA,NA,NA,NA,3,#1CD855,#FA92F8,10,0,1,40,0,1657,39,0,771,0,0,experiment,NA,NA,1,0.7,0.3,2,3,256,6,NA
fcp-trial,292,1310519,0.0-267.0-0.0,voc_e2,11913,"[{""event"":""focus"",""trial"":0,""time"":0},{""event"":""fullscreenenter"",""trial"":1,""time"":7230}]",NA,NA,NA,NA,NA,3,#D89F1C,#3386FF,10,0,1,40,0,718,39,0,535,0,0,experiment,NA,NA,0,0.9,0.1,0,1,257,6,NA
fcp-trial,293,1313156,0.0-268.0-0.0,voc_e2,11913,"[{""event"":""focus"",""trial"":0,""time"":0},{""event"":""fullscreenenter"",""trial"":1,""time"":7230}]",NA,NA,NA,NA,NA,0,#3386FF,#D89F1C,0,0,0,40,0,671,39,0,449,0,1,experiment,NA,NA,0,0.1,0.9,1,0,258,6,NA
fcp-trial,294,1315529,0.0-269.0-0.0,voc_e2,11913,"[{""event"":""focus"",""trial"":0,""time"":0},{""event"":""fullscreenenter"",""trial"":1,""time"":7230}]",NA,NA,NA,NA,NA,0,#741CD8,#D8271C,10,0,0,40,0,122,37,1,660,10,0,experiment,NA,NA,2,0.5,0.5,5,4,259,6,NA
fcp-trial,295,1318037,0.0-270.0-0.0,voc_e2,11913,"[{""event"":""focus"",""trial"":0,""time"":0},{""event"":""fullscreenenter"",""trial"":1,""time"":7230}]",NA,NA,NA,NA,NA,2,#FA92F8,#1CD855,0,10,0,40,0,614,39,0,369,10,1,experiment,NA,NA,1,0.3,0.7,3,2,260,6,NA
fcp-trial,296,1320657,0.0-271.0-0.0,voc_e2,11913,"[{""event"":""focus"",""trial"":0,""time"":0},{""event"":""fullscreenenter"",""trial"":1,""time"":7230}]",NA,NA,NA,NA,NA,2,#D8271C,#741CD8,10,10,1,40,0,663,39,0,423,10,0,experiment,NA,NA,2,0.5,0.5,4,5,261,6,NA
fcp-trial,297,1323036,0.0-272.0-0.0,voc_e2,11913,"[{""event"":""focus"",""trial"":0,""time"":0},{""event"":""fullscreenenter"",""trial"":1,""time"":7230}]",NA,NA,NA,NA,NA,4,#D89F1C,#3386FF,10,10,1,40,0,462,39,0,387,10,0,experiment,NA,NA,0,0.9,0.1,0,1,262,6,NA
fcp-trial,298,1325822,0.0-273.0-0.0,voc_e2,11913,"[{""event"":""focus"",""trial"":0,""time"":0},{""event"":""fullscreenenter"",""trial"":1,""time"":7230}]",NA,NA,NA,NA,NA,1,#1CD855,#FA92F8,10,10,1,40,0,483,37,1,770,10,1,experiment,NA,NA,1,0.7,0.3,2,3,263,6,NA
fcp-trial,299,1328697,0.0-274.0-0.0,voc_e2,11913,"[{""event"":""focus"",""trial"":0,""time"":0},{""event"":""fullscreenenter"",""trial"":1,""time"":7230}]",NA,NA,NA,NA,NA,5,#741CD8,#D8271C,10,10,0,40,0,901,37,1,450,10,0,experiment,NA,NA,2,0.5,0.5,5,4,264,6,NA
fcp-trial,300,1331239,0.0-275.0-0.0,voc_e2,11913,"[{""event"":""focus"",""trial"":0,""time"":0},{""event"":""fullscreenenter"",""trial"":1,""time"":7230}]",NA,NA,NA,NA,NA,1,#741CD8,#D8271C,10,10,0,40,0,525,37,1,490,10,0,experiment,NA,NA,2,0.5,0.5,5,4,265,6,NA
fcp-trial,301,1333956,0.0-276.0-0.0,voc_e2,11913,"[{""event"":""focus"",""trial"":0,""time"":0},{""event"":""fullscreenenter"",""trial"":1,""time"":7230}]",NA,NA,NA,NA,NA,5,#FA92F8,#1CD855,0,10,0,40,0,783,39,0,401,10,1,experiment,NA,NA,1,0.3,0.7,3,2,266,6,NA
fcp-trial,302,1336346,0.0-277.0-0.0,voc_e2,11913,"[{""event"":""focus"",""trial"":0,""time"":0},{""event"":""fullscreenenter"",""trial"":1,""time"":7230}]",NA,NA,NA,NA,NA,1,#3386FF,#D89F1C,10,10,0,40,0,491,37,1,368,10,0,experiment,NA,NA,0,0.1,0.9,1,0,267,6,NA
fcp-trial,303,1338572,0.0-278.0-0.0,voc_e2,11913,"[{""event"":""focus"",""trial"":0,""time"":0},{""event"":""fullscreenenter"",""trial"":1,""time"":7230}]",NA,NA,NA,NA,NA,6,#1CD855,#FA92F8,10,0,1,40,0,188,37,1,513,10,1,experiment,NA,NA,1,0.7,0.3,2,3,268,6,NA
fcp-trial,304,1341882,0.0-279.0-0.0,voc_e2,11913,"[{""event"":""focus"",""trial"":0,""time"":0},{""event"":""fullscreenenter"",""trial"":1,""time"":7230}]",NA,NA,NA,NA,NA,3,#D8271C,#741CD8,0,0,1,40,0,1113,37,1,670,0,1,experiment,NA,NA,2,0.5,0.5,4,5,269,6,NA
fcp-trial,305,1345003,0.0-280.0-0.0,voc_e2,11913,"[{""event"":""focus"",""trial"":0,""time"":0},{""event"":""fullscreenenter"",""trial"":1,""time"":7230}]",NA,NA,NA,NA,NA,4,#D8271C,#741CD8,10,0,1,40,0,684,39,0,912,0,0,experiment,NA,NA,2,0.5,0.5,4,5,270,6,NA
fcp-trial,306,1347673,0.0-281.0-0.0,voc_e2,11913,"[{""event"":""focus"",""trial"":0,""time"":0},{""event"":""fullscreenenter"",""trial"":1,""time"":7230}]",NA,NA,NA,NA,NA,0,#1CD855,#FA92F8,10,10,1,40,0,756,37,1,374,10,1,experiment,NA,NA,1,0.7,0.3,2,3,271,7,NA
fcp-trial,307,1350416,0.0-282.0-0.0,voc_e2,11913,"[{""event"":""focus"",""trial"":0,""time"":0},{""event"":""fullscreenenter"",""trial"":1,""time"":7230}]",NA,NA,NA,NA,NA,6,#D89F1C,#3386FF,10,0,1,40,0,816,37,1,385,10,1,experiment,NA,NA,0,0.9,0.1,0,1,272,7,NA
fcp-trial,308,1353660,0.0-283.0-0.0,voc_e2,11913,"[{""event"":""focus"",""trial"":0,""time"":0},{""event"":""fullscreenenter"",""trial"":1,""time"":7230}]",NA,NA,NA,NA,NA,6,#741CD8,#D8271C,10,10,0,40,0,1269,37,1,435,10,0,experiment,NA,NA,2,0.5,0.5,5,4,273,7,NA
fcp-trial,309,1356098,0.0-284.0-0.0,voc_e2,11913,"[{""event"":""focus"",""trial"":0,""time"":0},{""event"":""fullscreenenter"",""trial"":1,""time"":7230}]",NA,NA,NA,NA,NA,5,#3386FF,#D89F1C,0,10,0,40,0,460,39,0,445,10,1,experiment,NA,NA,0,0.1,0.9,1,0,274,7,NA
fcp-trial,310,1359537,0.0-285.0-0.0,voc_e2,11913,"[{""event"":""focus"",""trial"":0,""time"":0},{""event"":""fullscreenenter"",""trial"":1,""time"":7230}]",NA,NA,NA,NA,NA,4,#D8271C,#741CD8,0,10,1,40,0,1532,37,1,374,0,1,experiment,NA,NA,2,0.5,0.5,4,5,275,7,NA
fcp-trial,311,1362954,0.0-286.0-0.0,voc_e2,11913,"[{""event"":""focus"",""trial"":0,""time"":0},{""event"":""fullscreenenter"",""trial"":1,""time"":7230}]",NA,NA,NA,NA,NA,4,#3386FF,#D89F1C,0,10,0,40,0,1173,39,0,556,10,1,experiment,NA,NA,0,0.1,0.9,1,0,276,7,NA
fcp-trial,312,1365474,0.0-287.0-0.0,voc_e2,11913,"[{""event"":""focus"",""trial"":0,""time"":0},{""event"":""fullscreenenter"",""trial"":1,""time"":7230}]",NA,NA,NA,NA,NA,5,#FA92F8,#1CD855,0,10,0,40,0,499,39,0,504,10,1,experiment,NA,NA,1,0.3,0.7,3,2,277,7,NA
fcp-trial,313,1367976,0.0-288.0-0.0,voc_e2,11913,"[{""event"":""focus"",""trial"":0,""time"":0},{""event"":""fullscreenenter"",""trial"":1,""time"":7230}]",NA,NA,NA,NA,NA,2,#3386FF,#D89F1C,0,10,0,40,0,575,37,1,396,0,0,experiment,NA,NA,0,0.1,0.9,1,0,278,7,NA
fcp-trial,314,1371856,0.0-289.0-0.0,voc_e2,11913,"[{""event"":""focus"",""trial"":0,""time"":0},{""event"":""fullscreenenter"",""trial"":1,""time"":7230}]",NA,NA,NA,NA,NA,0,#741CD8,#D8271C,0,0,0,40,0,1640,37,1,594,0,0,experiment,NA,NA,2,0.5,0.5,5,4,279,7,NA
fcp-trial,315,1374598,0.0-290.0-0.0,voc_e2,11913,"[{""event"":""focus"",""trial"":0,""time"":0},{""event"":""fullscreenenter"",""trial"":1,""time"":7230}]",NA,NA,NA,NA,NA,2,#D8271C,#741CD8,0,0,1,40,0,550,39,0,662,0,0,experiment,NA,NA,2,0.5,0.5,4,5,280,7,NA
fcp-trial,316,1378568,0.0-291.0-0.0,voc_e2,11913,"[{""event"":""focus"",""trial"":0,""time"":0},{""event"":""fullscreenenter"",""trial"":1,""time"":7230}]",NA,NA,NA,NA,NA,1,#FA92F8,#1CD855,0,10,0,40,0,1169,39,0,1274,10,1,experiment,NA,NA,1,0.3,0.7,3,2,281,7,NA
fcp-trial,317,1382238,0.0-292.0-0.0,voc_e2,11913,"[{""event"":""focus"",""trial"":0,""time"":0},{""event"":""fullscreenenter"",""trial"":1,""time"":7230}]",NA,NA,NA,NA,NA,5,#D8271C,#741CD8,0,10,1,40,0,1594,37,1,554,0,1,experiment,NA,NA,2,0.5,0.5,4,5,282,7,NA
fcp-trial,318,1385627,0.0-293.0-0.0,voc_e2,11913,"[{""event"":""focus"",""trial"":0,""time"":0},{""event"":""fullscreenenter"",""trial"":1,""time"":7230}]",NA,NA,NA,NA,NA,3,#D89F1C,#3386FF,10,0,1,40,0,992,37,1,872,10,1,experiment,NA,NA,0,0.9,0.1,0,1,283,7,NA
fcp-trial,319,1388597,0.0-294.0-0.0,voc_e2,11913,"[{""event"":""focus"",""trial"":0,""time"":0},{""event"":""fullscreenenter"",""trial"":1,""time"":7230}]",NA,NA,NA,NA,NA,1,#D8271C,#741CD8,0,10,1,40,0,925,37,1,533,0,1,experiment,NA,NA,2,0.5,0.5,4,5,284,7,NA
fcp-trial,320,1391033,0.0-295.0-0.0,voc_e2,11913,"[{""event"":""focus"",""trial"":0,""time"":0},{""event"":""fullscreenenter"",""trial"":1,""time"":7230}]",NA,NA,NA,NA,NA,1,#D89F1C,#3386FF,10,0,1,40,0,367,39,0,547,0,0,experiment,NA,NA,0,0.9,0.1,0,1,285,7,NA
fcp-trial,321,1396222,0.0-296.0-0.0,voc_e2,11913,"[{""event"":""focus"",""trial"":0,""time"":0},{""event"":""fullscreenenter"",""trial"":1,""time"":7230}]",NA,NA,NA,NA,NA,3,#FA92F8,#1CD855,0,0,0,40,0,3171,39,0,501,0,1,experiment,NA,NA,1,0.3,0.7,3,2,286,7,NA
fcp-trial,322,1398893,0.0-297.0-0.0,voc_e2,11913,"[{""event"":""focus"",""trial"":0,""time"":0},{""event"":""fullscreenenter"",""trial"":1,""time"":7230}]",NA,NA,NA,NA,NA,6,#741CD8,#D8271C,0,10,0,40,0,625,37,1,502,0,0,experiment,NA,NA,2,0.5,0.5,5,4,287,7,NA
fcp-trial,323,1402352,0.0-298.0-0.0,voc_e2,11913,"[{""event"":""focus"",""trial"":0,""time"":0},{""event"":""fullscreenenter"",""trial"":1,""time"":7230}]",NA,NA,NA,NA,NA,0,#1CD855,#FA92F8,10,10,1,40,0,1114,39,0,832,10,0,experiment,NA,NA,1,0.7,0.3,2,3,288,7,NA
fcp-trial,324,1405756,0.0-299.0-0.0,voc_e2,11913,"[{""event"":""focus"",""trial"":0,""time"":0},{""event"":""fullscreenenter"",""trial"":1,""time"":7230}]",NA,NA,NA,NA,NA,0,#D89F1C,#3386FF,10,0,1,40,0,1414,39,0,469,0,0,experiment,NA,NA,0,0.9,0.1,0,1,289,7,NA
fcp-trial,325,1409111,0.0-300.0-0.0,voc_e2,11913,"[{""event"":""focus"",""trial"":0,""time"":0},{""event"":""fullscreenenter"",""trial"":1,""time"":7230}]",NA,NA,NA,NA,NA,3,#D8271C,#741CD8,0,10,1,40,0,786,39,0,1031,10,0,experiment,NA,NA,2,0.5,0.5,4,5,290,7,NA
fcp-trial,326,1411456,0.0-301.0-0.0,voc_e2,11913,"[{""event"":""focus"",""trial"":0,""time"":0},{""event"":""fullscreenenter"",""trial"":1,""time"":7230}]",NA,NA,NA,NA,NA,6,#1CD855,#FA92F8,10,0,1,40,0,93,39,0,645,0,0,experiment,NA,NA,1,0.7,0.3,2,3,291,7,NA
fcp-trial,327,1414192,0.0-302.0-0.0,voc_e2,11913,"[{""event"":""focus"",""trial"":0,""time"":0},{""event"":""fullscreenenter"",""trial"":1,""time"":7230}]",NA,NA,NA,NA,NA,2,#FA92F8,#1CD855,0,10,0,40,0,94,37,1,1131,0,0,experiment,NA,NA,1,0.3,0.7,3,2,292,7,NA
fcp-trial,328,1417636,0.0-303.0-0.0,voc_e2,11913,"[{""event"":""focus"",""trial"":0,""time"":0},{""event"":""fullscreenenter"",""trial"":1,""time"":7230}]",NA,NA,NA,NA,NA,4,#FA92F8,#1CD855,0,10,0,40,0,1222,37,1,703,0,0,experiment,NA,NA,1,0.3,0.7,3,2,293,7,NA
fcp-trial,329,1421672,0.0-304.0-0.0,voc_e2,11913,"[{""event"":""focus"",""trial"":0,""time"":0},{""event"":""fullscreenenter"",""trial"":1,""time"":7230}]",NA,NA,NA,NA,NA,6,#D89F1C,#3386FF,10,0,1,40,0,1853,37,1,653,10,1,experiment,NA,NA,0,0.9,0.1,0,1,294,7,NA
fcp-trial,330,1424277,0.0-305.0-0.0,voc_e2,11913,"[{""event"":""focus"",""trial"":0,""time"":0},{""event"":""fullscreenenter"",""trial"":1,""time"":7230}]",NA,NA,NA,NA,NA,1,#D8271C,#741CD8,10,0,1,40,0,477,39,0,597,0,0,experiment,NA,NA,2,0.5,0.5,4,5,295,7,NA
fcp-trial,331,1426556,0.0-306.0-0.0,voc_e2,11913,"[{""event"":""focus"",""trial"":0,""time"":0},{""event"":""fullscreenenter"",""trial"":1,""time"":7230}]",NA,NA,NA,NA,NA,3,#D89F1C,#3386FF,10,0,1,40,0,216,39,0,519,0,0,experiment,NA,NA,0,0.9,0.1,0,1,296,7,NA
fcp-trial,332,1430447,0.0-307.0-0.0,voc_e2,11913,"[{""event"":""focus"",""trial"":0,""time"":0},{""event"":""fullscreenenter"",""trial"":1,""time"":7230}]",NA,NA,NA,NA,NA,2,#3386FF,#D89F1C,0,10,0,40,0,1211,39,0,1172,10,1,experiment,NA,NA,0,0.1,0.9,1,0,297,7,NA
fcp-trial,333,1433606,0.0-308.0-0.0,voc_e2,11913,"[{""event"":""focus"",""trial"":0,""time"":0},{""event"":""fullscreenenter"",""trial"":1,""time"":7230}]",NA,NA,NA,NA,NA,4,#D89F1C,#3386FF,10,0,1,40,0,1057,37,1,589,10,1,experiment,NA,NA,0,0.9,0.1,0,1,298,7,NA
fcp-trial,334,1436886,0.0-309.0-0.0,voc_e2,11913,"[{""event"":""focus"",""trial"":0,""time"":0},{""event"":""fullscreenenter"",""trial"":1,""time"":7230}]",NA,NA,NA,NA,NA,6,#FA92F8,#1CD855,10,0,0,40,0,1115,37,1,637,10,0,experiment,NA,NA,1,0.3,0.7,3,2,299,7,NA
fcp-trial,335,1440257,0.0-310.0-0.0,voc_e2,11913,"[{""event"":""focus"",""trial"":0,""time"":0},{""event"":""fullscreenenter"",""trial"":1,""time"":7230}]",NA,NA,NA,NA,NA,3,#D8271C,#741CD8,10,10,1,40,0,864,39,0,983,10,0,experiment,NA,NA,2,0.5,0.5,4,5,300,7,NA
fcp-trial,336,1442971,0.0-311.0-0.0,voc_e2,11913,"[{""event"":""focus"",""trial"":0,""time"":0},{""event"":""fullscreenenter"",""trial"":1,""time"":7230}]",NA,NA,NA,NA,NA,0,#D89F1C,#3386FF,10,0,1,40,0,662,39,0,519,0,0,experiment,NA,NA,0,0.9,0.1,0,1,301,7,NA
fcp-trial,337,1445546,0.0-312.0-0.0,voc_e2,11913,"[{""event"":""focus"",""trial"":0,""time"":0},{""event"":""fullscreenenter"",""trial"":1,""time"":7230}]",NA,NA,NA,NA,NA,2,#D8271C,#741CD8,0,0,1,40,0,618,39,0,438,0,0,experiment,NA,NA,2,0.5,0.5,4,5,302,7,NA
fcp-trial,338,1447989,0.0-313.0-0.0,voc_e2,11913,"[{""event"":""focus"",""trial"":0,""time"":0},{""event"":""fullscreenenter"",""trial"":1,""time"":7230}]",NA,NA,NA,NA,NA,4,#FA92F8,#1CD855,0,10,0,40,0,448,37,1,458,0,0,experiment,NA,NA,1,0.3,0.7,3,2,303,7,NA
fcp-trial,339,1450836,0.0-314.0-0.0,voc_e2,11913,"[{""event"":""focus"",""trial"":0,""time"":0},{""event"":""fullscreenenter"",""trial"":1,""time"":7230}]",NA,NA,NA,NA,NA,5,#3386FF,#D89F1C,0,0,0,40,0,216,39,0,1117,0,1,experiment,NA,NA,0,0.1,0.9,1,0,304,7,NA
fcp-trial,340,1453486,0.0-315.0-0.0,voc_e2,11913,"[{""event"":""focus"",""trial"":0,""time"":0},{""event"":""fullscreenenter"",""trial"":1,""time"":7230}]",NA,NA,NA,NA,NA,5,#FA92F8,#1CD855,0,10,0,40,0,360,39,0,751,10,1,experiment,NA,NA,1,0.3,0.7,3,2,305,7,NA
fcp-trial,341,1455886,0.0-316.0-0.0,voc_e2,11913,"[{""event"":""focus"",""trial"":0,""time"":0},{""event"":""fullscreenenter"",""trial"":1,""time"":7230}]",NA,NA,NA,NA,NA,6,#741CD8,#D8271C,10,10,0,40,0,512,39,0,379,10,1,experiment,NA,NA,2,0.5,0.5,5,4,306,7,NA
fcp-trial,342,1458486,0.0-317.0-0.0,voc_e2,11913,"[{""event"":""focus"",""trial"":0,""time"":0},{""event"":""fullscreenenter"",""trial"":1,""time"":7230}]",NA,NA,NA,NA,NA,4,#741CD8,#D8271C,0,0,0,40,0,412,37,1,483,0,0,experiment,NA,NA,2,0.5,0.5,5,4,307,7,NA
fcp-trial,343,1460606,0.0-318.0-0.0,voc_e2,11913,"[{""event"":""focus"",""trial"":0,""time"":0},{""event"":""fullscreenenter"",""trial"":1,""time"":7230}]",NA,NA,NA,NA,NA,1,#D89F1C,#3386FF,10,0,1,40,0,6,37,1,593,10,1,experiment,NA,NA,0,0.9,0.1,0,1,308,7,NA
fcp-trial,344,1463075,0.0-319.0-0.0,voc_e2,11913,"[{""event"":""focus"",""trial"":0,""time"":0},{""event"":""fullscreenenter"",""trial"":1,""time"":7230}]",NA,NA,NA,NA,NA,5,#D8271C,#741CD8,0,0,1,40,0,513,39,0,424,0,0,experiment,NA,NA,2,0.5,0.5,4,5,309,7,NA
fcp-trial,345,1467693,0.0-320.0-0.0,voc_e2,11913,"[{""event"":""focus"",""trial"":0,""time"":0},{""event"":""fullscreenenter"",""trial"":1,""time"":7230}]",NA,NA,NA,NA,NA,2,#FA92F8,#1CD855,0,10,0,40,0,1770,39,0,1325,10,1,experiment,NA,NA,1,0.3,0.7,3,2,310,7,NA
fcp-trial,346,1472712,0.0-321.0-0.0,voc_e2,11913,"[{""event"":""focus"",""trial"":0,""time"":0},{""event"":""fullscreenenter"",""trial"":1,""time"":7230}]",NA,NA,NA,NA,NA,6,#3386FF,#D89F1C,0,10,0,40,0,3017,37,1,453,0,0,experiment,NA,NA,0,0.1,0.9,1,0,311,7,NA
fcp-trial,347,1475400,0.0-322.0-0.0,voc_e2,11913,"[{""event"":""focus"",""trial"":0,""time"":0},{""event"":""fullscreenenter"",""trial"":1,""time"":7230}]",NA,NA,NA,NA,NA,3,#1CD855,#FA92F8,0,0,1,40,0,637,39,0,520,0,0,experiment,NA,NA,1,0.7,0.3,2,3,312,7,NA
fcp-trial,348,1477986,0.0-323.0-0.0,voc_e2,11913,"[{""event"":""focus"",""trial"":0,""time"":0},{""event"":""fullscreenenter"",""trial"":1,""time"":7230}]",NA,NA,NA,NA,NA,0,#D8271C,#741CD8,10,0,1,40,0,662,37,1,408,10,1,experiment,NA,NA,2,0.5,0.5,4,5,313,7,NA
fcp-trial,349,1480575,0.0-324.0-0.0,voc_e2,11913,"[{""event"":""focus"",""trial"":0,""time"":0},{""event"":""fullscreenenter"",""trial"":1,""time"":7230}]",NA,NA,NA,NA,NA,1,#1CD855,#FA92F8,10,0,1,40,0,524,39,0,532,0,0,experiment,NA,NA,1,0.7,0.3,2,3,314,7,NA
fcp-trial,350,1485146,0.0-325.0-0.0,voc_e2,11913,"[{""event"":""focus"",""trial"":0,""time"":0},{""event"":""fullscreenenter"",""trial"":1,""time"":7230}]",NA,NA,NA,NA,NA,0,#1CD855,#FA92F8,0,10,1,40,0,2254,39,0,789,10,0,experiment,NA,NA,1,0.7,0.3,2,3,315,7,NA
audio-instructions,351,1495836,0.0-326.0,voc_e2,11913,"[{""event"":""focus"",""trial"":0,""time"":0},{""event"":""fullscreenenter"",""trial"":1,""time"":7230}]",NA,5044,static/audio/finished.wav,NA,0,NA,NA,NA,NA,NA,NA,NA,NA,NA,NA,NA,NA,NA,NA,NA,NA,NA,NA,NA,NA,NA,NA,NA,NA,NA
audio-instructions,352,1509896,0.0-327.0-0.0,voc_e2,11913,"[{""event"":""focus"",""trial"":0,""time"":0},{""event"":""fullscreenenter"",""trial"":1,""time"":7230}]",NA,3213,static/audio/explicit1.wav,NA,0,NA,NA,NA,NA,NA,NA,NA,NA,NA,NA,NA,NA,NA,NA,NA,NA,NA,NA,NA,NA,NA,NA,NA,NA,NA
audio-instructions,353,1519582,0.0-327.0-1.0,voc_e2,11913,"[{""event"":""focus"",""trial"":0,""time"":0},{""event"":""fullscreenenter"",""trial"":1,""time"":7230}]",NA,2080,static/audio/explicit2.wav,NA,0,NA,NA,NA,NA,NA,NA,NA,NA,NA,NA,NA,NA,NA,NA,NA,NA,NA,NA,NA,NA,NA,NA,NA,NA,NA
image-slider-response,354,1523236,0.0-328.0,voc_e2,11913,"[{""event"":""focus"",""trial"":0,""time"":0},{""event"":""fullscreenenter"",""trial"":1,""time"":7230}]",NA,3652,static/img/machines/machine2.png,NA,NA,NA,NA,NA,NA,NA,NA,NA,NA,NA,NA,NA,NA,NA,NA,explicit,NA,NA,NA,NA,NA,NA,NA,NA,NA,4
image-slider-response,355,1526694,0.0-329.0,voc_e2,11913,"[{""event"":""focus"",""trial"":0,""time"":0},{""event"":""fullscreenenter"",""trial"":1,""time"":7230}]",NA,3457,static/img/machines/machine6.png,NA,NA,NA,NA,NA,NA,NA,NA,NA,NA,NA,NA,NA,NA,NA,NA,explicit,NA,NA,NA,NA,NA,NA,NA,NA,NA,6
image-slider-response,356,1528300,0.0-330.0,voc_e2,11913,"[{""event"":""focus"",""trial"":0,""time"":0},{""event"":""fullscreenenter"",""trial"":1,""time"":7230}]",NA,1603,static/img/machines/machine1.png,NA,NA,NA,NA,NA,NA,NA,NA,NA,NA,NA,NA,NA,NA,NA,NA,explicit,NA,NA,NA,NA,NA,NA,NA,NA,NA,5
image-slider-response,357,1530748,0.0-331.0,voc_e2,11913,"[{""event"":""focus"",""trial"":0,""time"":0},{""event"":""fullscreenenter"",""trial"":1,""time"":7230}]",NA,2446,static/img/machines/machine3.png,NA,NA,NA,NA,NA,NA,NA,NA,NA,NA,NA,NA,NA,NA,NA,NA,explicit,NA,NA,NA,NA,NA,NA,NA,NA,NA,7
image-slider-response,358,1533450,0.0-332.0,voc_e2,11913,"[{""event"":""focus"",""trial"":0,""time"":0},{""event"":""fullscreenenter"",""trial"":1,""time"":7230}]",NA,2701,static/img/machines/machine4.png,NA,NA,NA,NA,NA,NA,NA,NA,NA,NA,NA,NA,NA,NA,NA,NA,explicit,NA,NA,NA,NA,NA,NA,NA,NA,NA,4
image-slider-response,359,1535442,0.0-333.0,voc_e2,11913,"[{""event"":""focus"",""trial"":0,""time"":0},{""event"":""fullscreenenter"",""trial"":1,""time"":7230}]",NA,1990,static/img/machines/machine5.png,NA,NA,NA,NA,NA,NA,NA,NA,NA,NA,NA,NA,NA,NA,NA,NA,explicit,NA,NA,NA,NA,NA,NA,NA,NA,NA,4
