trial_type,trial_index,time_elapsed,internal_node_id,task_version,subject_id,interactions,success,rt,stimulus,key_press,button_pressed,offer,arcade_color_L,arcade_color_R,arcade_outcome_L,arcade_outcome_R,correct,stage_1_key,stage_1_choice,stage_1_rt,stage_2_key,stage_2_choice,stage_2_rt,stage_3_outcome,accuracy,phase,responses,num_errors,context,reward_prob_L,reward_prob_R,arcade_id_L,arcade_id_R,trial,block,response
pavlovia,0,5,0.0-0.0,voc_e2,12198,[],NA,NA,NA,NA,NA,NA,NA,NA,NA,NA,NA,NA,NA,NA,NA,NA,NA,NA,NA,NA,NA,NA,NA,NA,NA,NA,NA,NA,NA,NA
fullscreen,1,2896,0.0-1.0,voc_e2,12198,"[{""event"":""fullscreenenter"",""trial"":1,""time"":1902}]",TRUE,NA,NA,NA,NA,NA,NA,NA,NA,NA,NA,NA,NA,NA,NA,NA,NA,NA,NA,NA,NA,NA,NA,NA,NA,NA,NA,NA,NA,NA
audio-keyboard-response,2,6015,0.0-2.0,voc_e2,12198,"[{""event"":""fullscreenenter"",""trial"":1,""time"":1902}]",NA,2784,static/audio/beep_loop.wav,32,NA,NA,NA,NA,NA,NA,NA,NA,NA,NA,NA,NA,NA,NA,NA,NA,NA,NA,NA,NA,NA,NA,NA,NA,NA,NA
audio-test,3,8709,0.0-3.0,voc_e2,12198,"[{""event"":""fullscreenenter"",""trial"":1,""time"":1902}]",NA,NA,static/audio/turtle.wav,NA,3,NA,NA,NA,NA,NA,NA,NA,NA,NA,NA,NA,NA,NA,NA,NA,NA,NA,NA,NA,NA,NA,NA,NA,NA,NA
audio-test,4,11457,0.0-4.0,voc_e2,12198,"[{""event"":""fullscreenenter"",""trial"":1,""time"":1902}]",NA,NA,static/audio/shark.wav,NA,2,NA,NA,NA,NA,NA,NA,NA,NA,NA,NA,NA,NA,NA,NA,NA,NA,NA,NA,NA,NA,NA,NA,NA,NA,NA
audio-instructions,5,20201,0.0-5.0-0.0,voc_e2,12198,"[{""event"":""fullscreenenter"",""trial"":1,""time"":1902}]",NA,2961.399999999441,static/audio/instructions1.wav,NA,0,NA,NA,NA,NA,NA,NA,NA,NA,NA,NA,NA,NA,NA,NA,NA,NA,NA,NA,NA,NA,NA,NA,NA,NA,NA
audio-instructions,6,30719,0.0-5.0-1.0,voc_e2,12198,"[{""event"":""fullscreenenter"",""trial"":1,""time"":1902}]",NA,3783,static/audio/instructions2.wav,NA,0,NA,NA,NA,NA,NA,NA,NA,NA,NA,NA,NA,NA,NA,NA,NA,NA,NA,NA,NA,NA,NA,NA,NA,NA,NA
audio-instructions,7,37805,0.0-5.0-2.0,voc_e2,12198,"[{""event"":""fullscreenenter"",""trial"":1,""time"":1902}]",NA,1291,static/audio/instructions3.wav,NA,0,NA,NA,NA,NA,NA,NA,NA,NA,NA,NA,NA,NA,NA,NA,NA,NA,NA,NA,NA,NA,NA,NA,NA,NA,NA
audio-instructions,8,53516,0.0-5.0-3.0,voc_e2,12198,"[{""event"":""fullscreenenter"",""trial"":1,""time"":1902}]",NA,2484.2999999998137,static/audio/instructions4.wav,NA,0,NA,NA,NA,NA,NA,NA,NA,NA,NA,NA,NA,NA,NA,NA,NA,NA,NA,NA,NA,NA,NA,NA,NA,NA,NA
audio-instructions,9,64120,0.0-5.0-4.0,voc_e2,12198,"[{""event"":""fullscreenenter"",""trial"":1,""time"":1902}]",NA,1216.2000000001865,static/audio/instructions5.wav,NA,0,NA,NA,NA,NA,NA,NA,NA,NA,NA,NA,NA,NA,NA,NA,NA,NA,NA,NA,NA,NA,NA,NA,NA,NA,NA
fcp-practice,10,67009,0.0-5.0-5.0-0.0,voc_e2,12198,"[{""event"":""fullscreenenter"",""trial"":1,""time"":1902}]",NA,NA,NA,NA,NA,NA,#EDC948,#46d3c8,10,0,1,null,null,null,37,1,1380.9000000003725,10,1,practice,NA,NA,NA,NA,NA,NA,NA,NA,NA,NA
fcp-practice,11,68920,0.0-5.0-5.0-1.0,voc_e2,12198,"[{""event"":""fullscreenenter"",""trial"":1,""time"":1902}]",NA,NA,NA,NA,NA,NA,#EDC948,#46d3c8,10,0,1,null,null,null,37,1,408.29999999981374,10,1,practice,NA,NA,NA,NA,NA,NA,NA,NA,NA,NA
fcp-practice,12,70730,0.0-5.0-5.0-2.0,voc_e2,12198,"[{""event"":""fullscreenenter"",""trial"":1,""time"":1902}]",NA,NA,NA,NA,NA,NA,#EDC948,#46d3c8,0,10,1,null,null,null,37,1,306.29999999981374,0,1,practice,NA,NA,NA,NA,NA,NA,NA,NA,NA,NA
fcp-practice,13,72669,0.0-5.0-5.0-3.0,voc_e2,12198,"[{""event"":""fullscreenenter"",""trial"":1,""time"":1902}]",NA,NA,NA,NA,NA,NA,#EDC948,#46d3c8,10,0,1,null,null,null,37,1,435.70000000018626,10,1,practice,NA,NA,NA,NA,NA,NA,NA,NA,NA,NA
fcp-practice,14,74619,0.0-5.0-5.0-4.0,voc_e2,12198,"[{""event"":""fullscreenenter"",""trial"":1,""time"":1902}]",NA,NA,NA,NA,NA,NA,#EDC948,#46d3c8,10,0,1,null,null,null,37,1,448,10,1,practice,NA,NA,NA,NA,NA,NA,NA,NA,NA,NA
audio-instructions,15,94620,0.0-5.0-6.0,voc_e2,12198,"[{""event"":""fullscreenenter"",""trial"":1,""time"":1902}]",NA,1999.7999999998135,static/audio/instructions6.wav,NA,0,NA,NA,NA,NA,NA,NA,NA,NA,NA,NA,NA,NA,NA,NA,NA,NA,NA,NA,NA,NA,NA,NA,NA,NA,NA
audio-instructions,16,114429,0.0-5.0-7.0,voc_e2,12198,"[{""event"":""fullscreenenter"",""trial"":1,""time"":1902}]",NA,613.2000000001863,static/audio/instructions7.wav,NA,0,NA,NA,NA,NA,NA,NA,NA,NA,NA,NA,NA,NA,NA,NA,NA,NA,NA,NA,NA,NA,NA,NA,NA,NA,NA
audio-instructions,17,124391,0.0-5.0-8.0,voc_e2,12198,"[{""event"":""fullscreenenter"",""trial"":1,""time"":1902}]",NA,496,static/audio/instructions8.wav,NA,0,NA,NA,NA,NA,NA,NA,NA,NA,NA,NA,NA,NA,NA,NA,NA,NA,NA,NA,NA,NA,NA,NA,NA,NA,NA
fcp-comprehension,18,134220,0.0-5.0-9.0,voc_e2,12198,"[{""event"":""fullscreenenter"",""trial"":1,""time"":1902}]",NA,9825.299999999814,NA,NA,NA,NA,NA,NA,NA,NA,NA,NA,NA,NA,NA,NA,NA,NA,NA,NA,"true,true",0,NA,NA,NA,NA,NA,NA,NA,NA
audio-instructions,19,142261,0.0-6.0-0.0,voc_e2,12198,"[{""event"":""fullscreenenter"",""trial"":1,""time"":1902}]",NA,2493.2000000001863,static/audio/instructions9.wav,NA,0,NA,NA,NA,NA,NA,NA,NA,NA,NA,NA,NA,NA,NA,NA,NA,NA,NA,NA,NA,NA,NA,NA,NA,NA,NA
audio-instructions,20,155110,0.0-6.0-1.0,voc_e2,12198,"[{""event"":""fullscreenenter"",""trial"":1,""time"":1902}]",NA,729.6000000005588,static/audio/instructions10.wav,NA,0,NA,NA,NA,NA,NA,NA,NA,NA,NA,NA,NA,NA,NA,NA,NA,NA,NA,NA,NA,NA,NA,NA,NA,NA,NA
fcp-trial,21,160874,0.0-6.0-2.0,voc_e2,12198,"[{""event"":""fullscreenenter"",""trial"":1,""time"":1902}]",NA,NA,NA,NA,NA,0,#EDC948,#46d3c8,10,10,1,38,1,3281.899999999441,39,0,969,10,0,practice,NA,NA,NA,NA,NA,NA,NA,NA,NA,NA
audio-instructions,22,172950,0.0-6.0-3.0,voc_e2,12198,"[{""event"":""fullscreenenter"",""trial"":1,""time"":1902}]",NA,1065.800000000745,static/audio/instructions11.wav,NA,0,NA,NA,NA,NA,NA,NA,NA,NA,NA,NA,NA,NA,NA,NA,NA,NA,NA,NA,NA,NA,NA,NA,NA,NA,NA
fcp-trial,23,178211,0.0-6.0-4.0,voc_e2,12198,"[{""event"":""fullscreenenter"",""trial"":1,""time"":1902}]",NA,NA,NA,NA,NA,6,#EDC948,#46d3c8,10,10,1,40,0,2792.399999999441,37,1,960.4000000003725,10,1,practice,NA,NA,NA,NA,NA,NA,NA,NA,NA,NA
audio-instructions,24,198638,0.0-6.0-5.0,voc_e2,12198,"[{""event"":""fullscreenenter"",""trial"":1,""time"":1902}]",NA,1739.9000000003723,static/audio/instructions12.wav,NA,0,NA,NA,NA,NA,NA,NA,NA,NA,NA,NA,NA,NA,NA,NA,NA,NA,NA,NA,NA,NA,NA,NA,NA,NA,NA
audio-instructions,25,206749,0.0-6.0-6.0,voc_e2,12198,"[{""event"":""fullscreenenter"",""trial"":1,""time"":1902}]",NA,518,static/audio/instructions13.wav,NA,0,NA,NA,NA,NA,NA,NA,NA,NA,NA,NA,NA,NA,NA,NA,NA,NA,NA,NA,NA,NA,NA,NA,NA,NA,NA
audio-instructions,26,215796,0.0-6.0-7.0,voc_e2,12198,"[{""event"":""fullscreenenter"",""trial"":1,""time"":1902}]",NA,604.7000000001863,static/audio/instructions14.wav,NA,0,NA,NA,NA,NA,NA,NA,NA,NA,NA,NA,NA,NA,NA,NA,NA,NA,NA,NA,NA,NA,NA,NA,NA,NA,NA
audio-instructions,27,223284,0.0-7.0-0.0,voc_e2,12198,"[{""event"":""fullscreenenter"",""trial"":1,""time"":1902}]",NA,583,static/audio/instructions15.wav,NA,0,NA,NA,NA,NA,NA,NA,NA,NA,NA,NA,NA,NA,NA,NA,NA,NA,NA,NA,NA,NA,NA,NA,NA,NA,NA
audio-instructions,28,231122,0.0-7.0-1.0,voc_e2,12198,"[{""event"":""fullscreenenter"",""trial"":1,""time"":1902}]",NA,1018.5999999996276,static/audio/instructions16.wav,NA,0,NA,NA,NA,NA,NA,NA,NA,NA,NA,NA,NA,NA,NA,NA,NA,NA,NA,NA,NA,NA,NA,NA,NA,NA,NA
audio-instructions,29,239350,0.0-7.0-2.0,voc_e2,12198,"[{""event"":""fullscreenenter"",""trial"":1,""time"":1902}]",NA,553.2999999998137,static/audio/instructions17.wav,NA,0,NA,NA,NA,NA,NA,NA,NA,NA,NA,NA,NA,NA,NA,NA,NA,NA,NA,NA,NA,NA,NA,NA,NA,NA,NA
audio-instructions,30,248202,0.0-7.0-3.0,voc_e2,12198,"[{""event"":""fullscreenenter"",""trial"":1,""time"":1902}]",NA,1085.0999999996277,static/audio/instructions18.wav,NA,0,NA,NA,NA,NA,NA,NA,NA,NA,NA,NA,NA,NA,NA,NA,NA,NA,NA,NA,NA,NA,NA,NA,NA,NA,NA
audio-instructions,31,255494,0.0-7.0-4.0,voc_e2,12198,"[{""event"":""fullscreenenter"",""trial"":1,""time"":1902}]",NA,548.3000000007451,static/audio/instructions19.wav,NA,0,NA,NA,NA,NA,NA,NA,NA,NA,NA,NA,NA,NA,NA,NA,NA,NA,NA,NA,NA,NA,NA,NA,NA,NA,NA
fcp-comprehension,32,268784,0.0-7.0-5.0,voc_e2,12198,"[{""event"":""fullscreenenter"",""trial"":1,""time"":1902}]",NA,13287.300000000743,NA,NA,NA,NA,NA,NA,NA,NA,NA,NA,NA,NA,NA,NA,NA,NA,NA,NA,"false,false,false,true",0,NA,NA,NA,NA,NA,NA,NA,NA
audio-instructions,33,280463,0.0-8.0,voc_e2,12198,"[{""event"":""fullscreenenter"",""trial"":1,""time"":1902}]",NA,2466.2999999998137,static/audio/ready.wav,NA,0,NA,NA,NA,NA,NA,NA,NA,NA,NA,NA,NA,NA,NA,NA,NA,NA,NA,NA,NA,NA,NA,NA,NA,NA,NA
fcp-trial,34,284726,0.0-9.0-0.0,voc_e2,12198,"[{""event"":""fullscreenenter"",""trial"":1,""time"":1902}]",NA,NA,NA,NA,NA,2,#741CD8,#D8271C,0,0,1,38,1,2012.2999999998137,39,0,742.5999999996275,0,0,experiment,NA,NA,1,0.7,0.3,2,3,1,1,NA
fcp-trial,35,288174,0.0-10.0-0.0,voc_e2,12198,"[{""event"":""fullscreenenter"",""trial"":1,""time"":1902}]",NA,NA,NA,NA,NA,3,#D89F1C,#3386FF,0,10,0,38,1,1540.5,37,1,402.70000000018626,0,0,experiment,NA,NA,0,0.1,0.9,1,0,2,1,NA
fcp-trial,36,290861,0.0-11.0-0.0,voc_e2,12198,"[{""event"":""fullscreenenter"",""trial"":1,""time"":1902}]",NA,NA,NA,NA,NA,4,#3386FF,#D89F1C,10,0,1,38,1,719.2999999998137,37,1,462.09999999962747,10,1,experiment,NA,NA,0,0.9,0.1,0,1,3,1,NA
fcp-trial,37,294083,0.0-12.0-0.0,voc_e2,12198,"[{""event"":""fullscreenenter"",""trial"":1,""time"":1902}]",NA,NA,NA,NA,NA,0,#D8271C,#741CD8,0,0,0,38,1,1294.2999999998137,39,0,417.6000000005588,0,1,experiment,NA,NA,1,0.3,0.7,3,2,4,1,NA
fcp-trial,38,297105,0.0-13.0-0.0,voc_e2,12198,"[{""event"":""fullscreenenter"",""trial"":1,""time"":1902}]",NA,NA,NA,NA,NA,5,#1CD855,#FA92F8,0,0,0,38,1,984.4000000003725,37,1,534.5999999996275,0,0,experiment,NA,NA,2,0.5,0.5,5,4,5,1,NA
fcp-trial,39,300101,0.0-14.0-0.0,voc_e2,12198,"[{""event"":""fullscreenenter"",""trial"":1,""time"":1902}]",NA,NA,NA,NA,NA,4,#FA92F8,#1CD855,10,0,1,38,1,770,39,0,721.9000000003725,0,0,experiment,NA,NA,2,0.5,0.5,4,5,6,1,NA
fcp-trial,40,302889,0.0-15.0-0.0,voc_e2,12198,"[{""event"":""fullscreenenter"",""trial"":1,""time"":1902}]",NA,NA,NA,NA,NA,6,#3386FF,#D89F1C,10,0,1,38,1,894.2999999998137,37,1,389.3999999994412,10,1,experiment,NA,NA,0,0.9,0.1,0,1,7,1,NA
fcp-trial,41,305644,0.0-16.0-0.0,voc_e2,12198,"[{""event"":""fullscreenenter"",""trial"":1,""time"":1902}]",NA,NA,NA,NA,NA,1,#3386FF,#D89F1C,10,0,1,38,1,775.5999999996275,37,1,474.79999999981374,10,1,experiment,NA,NA,0,0.9,0.1,0,1,8,1,NA
fcp-trial,42,308859,0.0-17.0-0.0,voc_e2,12198,"[{""event"":""fullscreenenter"",""trial"":1,""time"":1902}]",NA,NA,NA,NA,NA,6,#D8271C,#741CD8,0,10,0,40,0,766.0999999996275,39,0,939.3000000007451,10,1,experiment,NA,NA,1,0.3,0.7,3,2,9,1,NA
fcp-trial,43,312487,0.0-18.0-0.0,voc_e2,12198,"[{""event"":""fullscreenenter"",""trial"":1,""time"":1902}]",NA,NA,NA,NA,NA,2,#FA92F8,#1CD855,10,0,1,38,1,1568.9000000003725,37,1,555.5,10,1,experiment,NA,NA,2,0.5,0.5,4,5,10,1,NA
fcp-trial,44,315224,0.0-19.0-0.0,voc_e2,12198,"[{""event"":""fullscreenenter"",""trial"":1,""time"":1902}]",NA,NA,NA,NA,NA,2,#D89F1C,#3386FF,0,10,0,38,1,771.3999999994412,37,1,461.70000000018626,0,0,experiment,NA,NA,0,0.1,0.9,1,0,11,1,NA
fcp-trial,45,317864,0.0-20.0-0.0,voc_e2,12198,"[{""event"":""fullscreenenter"",""trial"":1,""time"":1902}]",NA,NA,NA,NA,NA,3,#FA92F8,#1CD855,0,10,1,38,1,739.5,37,1,395.20000000018626,0,1,experiment,NA,NA,2,0.5,0.5,4,5,12,1,NA
fcp-trial,46,320598,0.0-21.0-0.0,voc_e2,12198,"[{""event"":""fullscreenenter"",""trial"":1,""time"":1902}]",NA,NA,NA,NA,NA,1,#741CD8,#D8271C,10,10,1,38,1,612.4000000003725,39,0,615.5,10,0,experiment,NA,NA,1,0.7,0.3,2,3,13,1,NA
fcp-trial,47,323692,0.0-22.0-0.0,voc_e2,12198,"[{""event"":""fullscreenenter"",""trial"":1,""time"":1902}]",NA,NA,NA,NA,NA,4,#741CD8,#D8271C,0,0,1,38,1,862.7000000001863,37,1,727.3999999994412,0,1,experiment,NA,NA,1,0.7,0.3,2,3,14,1,NA
fcp-trial,48,326349,0.0-23.0-0.0,voc_e2,12198,"[{""event"":""fullscreenenter"",""trial"":1,""time"":1902}]",NA,NA,NA,NA,NA,0,#FA92F8,#1CD855,0,0,1,38,1,725.7999999998137,37,1,427,0,1,experiment,NA,NA,2,0.5,0.5,4,5,15,1,NA
fcp-trial,49,329249,0.0-24.0-0.0,voc_e2,12198,"[{""event"":""fullscreenenter"",""trial"":1,""time"":1902}]",NA,NA,NA,NA,NA,5,#3386FF,#D89F1C,10,0,1,38,1,967.1000000005588,39,0,429.5,0,0,experiment,NA,NA,0,0.9,0.1,0,1,16,1,NA
fcp-trial,50,332858,0.0-25.0-0.0,voc_e2,12198,"[{""event"":""fullscreenenter"",""trial"":1,""time"":1902}]",NA,NA,NA,NA,NA,1,#1CD855,#FA92F8,0,0,0,38,1,1710.7999999998137,37,1,393,0,0,experiment,NA,NA,2,0.5,0.5,5,4,17,1,NA
fcp-trial,51,335516,0.0-26.0-0.0,voc_e2,12198,"[{""event"":""fullscreenenter"",""trial"":1,""time"":1902}]",NA,NA,NA,NA,NA,3,#741CD8,#D8271C,10,10,1,38,1,854.0999999996275,37,1,300.40000000037253,10,1,experiment,NA,NA,1,0.7,0.3,2,3,18,1,NA
fcp-trial,52,338180,0.0-27.0-0.0,voc_e2,12198,"[{""event"":""fullscreenenter"",""trial"":1,""time"":1902}]",NA,NA,NA,NA,NA,0,#D89F1C,#3386FF,0,10,0,38,1,762.7999999998137,39,0,396.29999999981374,10,1,experiment,NA,NA,0,0.1,0.9,1,0,19,1,NA
fcp-trial,53,341320,0.0-28.0-0.0,voc_e2,12198,"[{""event"":""fullscreenenter"",""trial"":1,""time"":1902}]",NA,NA,NA,NA,NA,5,#D8271C,#741CD8,10,0,0,40,0,1075.5,39,0,560.4000000003725,0,1,experiment,NA,NA,1,0.3,0.7,3,2,20,1,NA
fcp-trial,54,343971,0.0-29.0-0.0,voc_e2,12198,"[{""event"":""fullscreenenter"",""trial"":1,""time"":1902}]",NA,NA,NA,NA,NA,6,#1CD855,#FA92F8,10,0,0,38,1,649.7000000001863,39,0,497,0,1,experiment,NA,NA,2,0.5,0.5,5,4,21,1,NA
fcp-trial,55,347482,0.0-30.0-0.0,voc_e2,12198,"[{""event"":""fullscreenenter"",""trial"":1,""time"":1902}]",NA,NA,NA,NA,NA,1,#3386FF,#D89F1C,0,0,1,38,1,1022,37,1,984,0,1,experiment,NA,NA,0,0.9,0.1,0,1,22,1,NA
fcp-trial,56,350049,0.0-31.0-0.0,voc_e2,12198,"[{""event"":""fullscreenenter"",""trial"":1,""time"":1902}]",NA,NA,NA,NA,NA,3,#741CD8,#D8271C,10,0,1,38,1,664,37,1,399.20000000018626,10,1,experiment,NA,NA,1,0.7,0.3,2,3,23,1,NA
fcp-trial,57,352908,0.0-32.0-0.0,voc_e2,12198,"[{""event"":""fullscreenenter"",""trial"":1,""time"":1902}]",NA,NA,NA,NA,NA,3,#FA92F8,#1CD855,0,10,1,38,1,541.6000000005588,37,1,813.2000000001863,0,1,experiment,NA,NA,2,0.5,0.5,4,5,24,1,NA
fcp-trial,58,355206,0.0-33.0-0.0,voc_e2,12198,"[{""event"":""fullscreenenter"",""trial"":1,""time"":1902}]",NA,NA,NA,NA,NA,5,#1CD855,#FA92F8,0,10,0,38,1,511.5,37,1,283.40000000037253,0,0,experiment,NA,NA,2,0.5,0.5,5,4,25,1,NA
fcp-trial,59,357820,0.0-34.0-0.0,voc_e2,12198,"[{""event"":""fullscreenenter"",""trial"":1,""time"":1902}]",NA,NA,NA,NA,NA,4,#D89F1C,#3386FF,10,10,0,38,1,648.2000000001863,39,0,462.1000000005588,10,1,experiment,NA,NA,0,0.1,0.9,1,0,26,1,NA
fcp-trial,60,361536,0.0-35.0-0.0,voc_e2,12198,"[{""event"":""fullscreenenter"",""trial"":1,""time"":1902}]",NA,NA,NA,NA,NA,6,#D8271C,#741CD8,10,10,0,38,1,807.8000000007451,37,1,1404.300000000745,10,0,experiment,NA,NA,1,0.3,0.7,3,2,27,1,NA
fcp-trial,61,364223,0.0-36.0-0.0,voc_e2,12198,"[{""event"":""fullscreenenter"",""trial"":1,""time"":1902}]",NA,NA,NA,NA,NA,5,#D89F1C,#3386FF,0,10,0,38,1,789.1000000005588,37,1,392,0,0,experiment,NA,NA,0,0.1,0.9,1,0,28,1,NA
fcp-trial,62,367115,0.0-37.0-0.0,voc_e2,12198,"[{""event"":""fullscreenenter"",""trial"":1,""time"":1902}]",NA,NA,NA,NA,NA,2,#1CD855,#FA92F8,0,0,0,38,1,625.4000000003725,39,0,763.2999999998137,0,1,experiment,NA,NA,2,0.5,0.5,5,4,29,1,NA
fcp-trial,63,369810,0.0-38.0-0.0,voc_e2,12198,"[{""event"":""fullscreenenter"",""trial"":1,""time"":1902}]",NA,NA,NA,NA,NA,4,#741CD8,#D8271C,10,0,1,38,1,546.6999999992549,37,1,644.3999999994412,10,1,experiment,NA,NA,1,0.7,0.3,2,3,30,1,NA
fcp-trial,64,372448,0.0-39.0-0.0,voc_e2,12198,"[{""event"":""fullscreenenter"",""trial"":1,""time"":1902}]",NA,NA,NA,NA,NA,4,#1CD855,#FA92F8,10,10,0,38,1,676.9000000003725,39,0,450.5,10,1,experiment,NA,NA,2,0.5,0.5,5,4,31,1,NA
fcp-trial,65,375123,0.0-40.0-0.0,voc_e2,12198,"[{""event"":""fullscreenenter"",""trial"":1,""time"":1902}]",NA,NA,NA,NA,NA,3,#D89F1C,#3386FF,0,10,0,38,1,823.2000000001863,37,1,348.79999999981374,0,0,experiment,NA,NA,0,0.1,0.9,1,0,32,1,NA
fcp-trial,66,377666,0.0-41.0-0.0,voc_e2,12198,"[{""event"":""fullscreenenter"",""trial"":1,""time"":1902}]",NA,NA,NA,NA,NA,1,#1CD855,#FA92F8,0,0,0,38,1,554.8999999994412,39,0,484.19999999925494,0,1,experiment,NA,NA,2,0.5,0.5,5,4,33,1,NA
fcp-trial,67,380091,0.0-42.0-0.0,voc_e2,12198,"[{""event"":""fullscreenenter"",""trial"":1,""time"":1902}]",NA,NA,NA,NA,NA,5,#741CD8,#D8271C,0,0,1,38,1,553.4000000003725,37,1,367.90000000037253,0,1,experiment,NA,NA,1,0.7,0.3,2,3,34,1,NA
fcp-trial,68,383014,0.0-43.0-0.0,voc_e2,12198,"[{""event"":""fullscreenenter"",""trial"":1,""time"":1902}]",NA,NA,NA,NA,NA,0,#1CD855,#FA92F8,0,0,0,38,1,1136.4000000003725,39,0,282.70000000018626,0,1,experiment,NA,NA,2,0.5,0.5,5,4,35,1,NA
fcp-trial,69,386722,0.0-44.0-0.0,voc_e2,12198,"[{""event"":""fullscreenenter"",""trial"":1,""time"":1902}]",NA,NA,NA,NA,NA,6,#3386FF,#D89F1C,10,0,1,38,1,1598.2000000001863,37,1,606.5,10,1,experiment,NA,NA,0,0.9,0.1,0,1,36,1,NA
fcp-trial,70,389034,0.0-45.0-0.0,voc_e2,12198,"[{""event"":""fullscreenenter"",""trial"":1,""time"":1902}]",NA,NA,NA,NA,NA,2,#3386FF,#D89F1C,10,0,1,38,1,485.30000000074506,37,1,322.8999999994412,10,1,experiment,NA,NA,0,0.9,0.1,0,1,37,1,NA
fcp-trial,71,393039,0.0-46.0-0.0,voc_e2,12198,"[{""event"":""fullscreenenter"",""trial"":1,""time"":1902}]",NA,NA,NA,NA,NA,2,#D8271C,#741CD8,0,0,0,40,0,1499.8999999994412,39,0,1001.7999999998137,0,1,experiment,NA,NA,1,0.3,0.7,3,2,38,1,NA
fcp-trial,72,396549,0.0-47.0-0.0,voc_e2,12198,"[{""event"":""fullscreenenter"",""trial"":1,""time"":1902}]",NA,NA,NA,NA,NA,6,#1CD855,#FA92F8,10,10,0,38,1,1308.7999999998137,37,1,697.3999999994412,10,0,experiment,NA,NA,2,0.5,0.5,5,4,39,1,NA
fcp-trial,73,400161,0.0-48.0-0.0,voc_e2,12198,"[{""event"":""fullscreenenter"",""trial"":1,""time"":1902}]",NA,NA,NA,NA,NA,0,#D8271C,#741CD8,0,10,0,38,1,1553.2000000001863,37,1,554.4000000003725,0,0,experiment,NA,NA,1,0.3,0.7,3,2,40,1,NA
fcp-trial,74,402598,0.0-49.0-0.0,voc_e2,12198,"[{""event"":""fullscreenenter"",""trial"":1,""time"":1902}]",NA,NA,NA,NA,NA,1,#D8271C,#741CD8,0,10,0,38,1,525.7000000001863,37,1,403.29999999981374,0,0,experiment,NA,NA,1,0.3,0.7,3,2,41,1,NA
fcp-trial,75,405182,0.0-50.0-0.0,voc_e2,12198,"[{""event"":""fullscreenenter"",""trial"":1,""time"":1902}]",NA,NA,NA,NA,NA,0,#3386FF,#D89F1C,10,0,1,38,1,532.5,37,1,548,10,1,experiment,NA,NA,0,0.9,0.1,0,1,42,1,NA
fcp-trial,76,407416,0.0-51.0-0.0,voc_e2,12198,"[{""event"":""fullscreenenter"",""trial"":1,""time"":1902}]",NA,NA,NA,NA,NA,2,#FA92F8,#1CD855,0,0,1,38,1,361.69999999925494,37,1,368.79999999981374,0,1,experiment,NA,NA,2,0.5,0.5,4,5,43,1,NA
fcp-trial,77,409900,0.0-52.0-0.0,voc_e2,12198,"[{""event"":""fullscreenenter"",""trial"":1,""time"":1902}]",NA,NA,NA,NA,NA,5,#FA92F8,#1CD855,0,0,1,38,1,569.0999999996275,39,0,410.29999999981374,0,0,experiment,NA,NA,2,0.5,0.5,4,5,44,1,NA
fcp-trial,78,412313,0.0-53.0-0.0,voc_e2,12198,"[{""event"":""fullscreenenter"",""trial"":1,""time"":1902}]",NA,NA,NA,NA,NA,1,#D89F1C,#3386FF,0,10,0,38,1,493.79999999981374,39,0,414.29999999981374,10,1,experiment,NA,NA,0,0.1,0.9,1,0,45,1,NA
fcp-trial,79,414804,0.0-54.0-0.0,voc_e2,12198,"[{""event"":""fullscreenenter"",""trial"":1,""time"":1902}]",NA,NA,NA,NA,NA,5,#3386FF,#D89F1C,10,10,1,38,1,483.3999999994412,37,1,503.79999999981374,10,1,experiment,NA,NA,0,0.9,0.1,0,1,46,2,NA
fcp-trial,80,418031,0.0-55.0-0.0,voc_e2,12198,"[{""event"":""fullscreenenter"",""trial"":1,""time"":1902}]",NA,NA,NA,NA,NA,1,#741CD8,#D8271C,0,0,1,38,1,729,39,0,994.5,0,0,experiment,NA,NA,1,0.7,0.3,2,3,47,2,NA
fcp-trial,81,421316,0.0-56.0-0.0,voc_e2,12198,"[{""event"":""fullscreenenter"",""trial"":1,""time"":1902}]",NA,NA,NA,NA,NA,3,#1CD855,#FA92F8,0,0,0,38,1,1159.5,37,1,622.0999999996275,0,0,experiment,NA,NA,2,0.5,0.5,5,4,48,2,NA
fcp-trial,82,424260,0.0-57.0-0.0,voc_e2,12198,"[{""event"":""fullscreenenter"",""trial"":1,""time"":1902}]",NA,NA,NA,NA,NA,1,#FA92F8,#1CD855,10,10,1,38,1,1041.2999999998137,39,0,396.59999999962747,10,0,experiment,NA,NA,2,0.5,0.5,4,5,49,2,NA
fcp-trial,83,427846,0.0-58.0-0.0,voc_e2,12198,"[{""event"":""fullscreenenter"",""trial"":1,""time"":1902}]",NA,NA,NA,NA,NA,3,#D89F1C,#3386FF,0,10,0,38,1,1349.4000000003725,39,0,726.5,10,1,experiment,NA,NA,0,0.1,0.9,1,0,50,2,NA
fcp-trial,84,430343,0.0-59.0-0.0,voc_e2,12198,"[{""event"":""fullscreenenter"",""trial"":1,""time"":1902}]",NA,NA,NA,NA,NA,6,#D89F1C,#3386FF,0,10,0,38,1,598.4000000003725,39,0,394.5,10,1,experiment,NA,NA,0,0.1,0.9,1,0,51,2,NA
fcp-trial,85,433314,0.0-60.0-0.0,voc_e2,12198,"[{""event"":""fullscreenenter"",""trial"":1,""time"":1902}]",NA,NA,NA,NA,NA,2,#741CD8,#D8271C,10,0,1,38,1,1027.7000000001863,37,1,434.20000000018626,10,1,experiment,NA,NA,1,0.7,0.3,2,3,52,2,NA
fcp-trial,86,435901,0.0-61.0-0.0,voc_e2,12198,"[{""event"":""fullscreenenter"",""trial"":1,""time"":1902}]",NA,NA,NA,NA,NA,4,#D89F1C,#3386FF,0,10,0,38,1,632.6999999992549,39,0,451,10,1,experiment,NA,NA,0,0.1,0.9,1,0,53,2,NA
fcp-trial,87,438775,0.0-62.0-0.0,voc_e2,12198,"[{""event"":""fullscreenenter"",""trial"":1,""time"":1902}]",NA,NA,NA,NA,NA,0,#1CD855,#FA92F8,10,10,0,38,1,605.5,37,1,764.9000000003725,10,0,experiment,NA,NA,2,0.5,0.5,5,4,54,2,NA
fcp-trial,88,441388,0.0-63.0-0.0,voc_e2,12198,"[{""event"":""fullscreenenter"",""trial"":1,""time"":1902}]",NA,NA,NA,NA,NA,6,#FA92F8,#1CD855,0,0,1,38,1,473.1000000005588,39,0,629.5,0,0,experiment,NA,NA,2,0.5,0.5,4,5,55,2,NA
fcp-trial,89,444055,0.0-64.0-0.0,voc_e2,12198,"[{""event"":""fullscreenenter"",""trial"":1,""time"":1902}]",NA,NA,NA,NA,NA,0,#741CD8,#D8271C,10,10,1,38,1,663.8999999994412,37,1,499.69999999925494,10,1,experiment,NA,NA,1,0.7,0.3,2,3,56,2,NA
fcp-trial,90,446478,0.0-65.0-0.0,voc_e2,12198,"[{""event"":""fullscreenenter"",""trial"":1,""time"":1902}]",NA,NA,NA,NA,NA,0,#3386FF,#D89F1C,10,0,1,38,1,425.29999999981374,37,1,493.79999999981374,10,1,experiment,NA,NA,0,0.9,0.1,0,1,57,2,NA
fcp-trial,91,449974,0.0-66.0-0.0,voc_e2,12198,"[{""event"":""fullscreenenter"",""trial"":1,""time"":1902}]",NA,NA,NA,NA,NA,4,#D8271C,#741CD8,0,10,0,40,0,1433.800000000745,39,0,557.5999999996275,10,1,experiment,NA,NA,1,0.3,0.7,3,2,58,2,NA
fcp-trial,92,452776,0.0-67.0-0.0,voc_e2,12198,"[{""event"":""fullscreenenter"",""trial"":1,""time"":1902}]",NA,NA,NA,NA,NA,6,#D8271C,#741CD8,0,10,0,38,1,639.4000000003725,37,1,658.7000000001863,0,0,experiment,NA,NA,1,0.3,0.7,3,2,59,2,NA
fcp-trial,93,455523,0.0-68.0-0.0,voc_e2,12198,"[{""event"":""fullscreenenter"",""trial"":1,""time"":1902}]",NA,NA,NA,NA,NA,4,#FA92F8,#1CD855,0,10,1,38,1,780.1000000005588,39,0,459.1000000005588,10,0,experiment,NA,NA,2,0.5,0.5,4,5,60,2,NA
fcp-trial,94,457629,0.0-69.0-0.0,voc_e2,12198,"[{""event"":""fullscreenenter"",""trial"":1,""time"":1902}]",NA,NA,NA,NA,NA,2,#D89F1C,#3386FF,0,10,0,38,1,257.59999999962747,39,0,344.6000000005588,10,1,experiment,NA,NA,0,0.1,0.9,1,0,61,2,NA
fcp-trial,95,460353,0.0-70.0-0.0,voc_e2,12198,"[{""event"":""fullscreenenter"",""trial"":1,""time"":1902}]",NA,NA,NA,NA,NA,3,#D8271C,#741CD8,10,10,0,38,1,404.3999999994412,39,0,815.5,10,1,experiment,NA,NA,1,0.3,0.7,3,2,62,2,NA
fcp-trial,96,462834,0.0-71.0-0.0,voc_e2,12198,"[{""event"":""fullscreenenter"",""trial"":1,""time"":1902}]",NA,NA,NA,NA,NA,5,#D8271C,#741CD8,10,10,0,38,1,510,39,0,467,10,1,experiment,NA,NA,1,0.3,0.7,3,2,63,2,NA
fcp-trial,97,465153,0.0-72.0-0.0,voc_e2,12198,"[{""event"":""fullscreenenter"",""trial"":1,""time"":1902}]",NA,NA,NA,NA,NA,0,#D8271C,#741CD8,0,0,0,38,1,316.29999999981374,39,0,499.59999999962747,0,1,experiment,NA,NA,1,0.3,0.7,3,2,64,2,NA
fcp-trial,98,467340,0.0-73.0-0.0,voc_e2,12198,"[{""event"":""fullscreenenter"",""trial"":1,""time"":1902}]",NA,NA,NA,NA,NA,2,#741CD8,#D8271C,0,10,1,38,1,312.79999999981374,37,1,370.20000000018626,0,1,experiment,NA,NA,1,0.7,0.3,2,3,65,2,NA
fcp-trial,99,469589,0.0-74.0-0.0,voc_e2,12198,"[{""event"":""fullscreenenter"",""trial"":1,""time"":1902}]",NA,NA,NA,NA,NA,4,#D89F1C,#3386FF,0,10,0,38,1,353.40000000037253,39,0,391.1000000005588,10,1,experiment,NA,NA,0,0.1,0.9,1,0,66,2,NA
fcp-trial,100,471633,0.0-75.0-0.0,voc_e2,12198,"[{""event"":""fullscreenenter"",""trial"":1,""time"":1902}]",NA,NA,NA,NA,NA,3,#1CD855,#FA92F8,0,10,0,38,1,200.1000000005588,37,1,340.79999999981374,0,0,experiment,NA,NA,2,0.5,0.5,5,4,67,2,NA
fcp-trial,101,473797,0.0-76.0-0.0,voc_e2,12198,"[{""event"":""fullscreenenter"",""trial"":1,""time"":1902}]",NA,NA,NA,NA,NA,0,#1CD855,#FA92F8,0,0,0,38,1,234.6000000005588,37,1,425.09999999962747,0,0,experiment,NA,NA,2,0.5,0.5,5,4,68,2,NA
fcp-trial,102,476407,0.0-77.0-0.0,voc_e2,12198,"[{""event"":""fullscreenenter"",""trial"":1,""time"":1902}]",NA,NA,NA,NA,NA,6,#D8271C,#741CD8,0,0,0,38,1,436,37,1,670.5,0,0,experiment,NA,NA,1,0.3,0.7,3,2,69,2,NA
fcp-trial,103,478622,0.0-78.0-0.0,voc_e2,12198,"[{""event"":""fullscreenenter"",""trial"":1,""time"":1902}]",NA,NA,NA,NA,NA,2,#3386FF,#D89F1C,10,0,1,38,1,378.79999999981374,37,1,332.8999999994412,10,1,experiment,NA,NA,0,0.9,0.1,0,1,70,2,NA
fcp-trial,104,480918,0.0-79.0-0.0,voc_e2,12198,"[{""event"":""fullscreenenter"",""trial"":1,""time"":1902}]",NA,NA,NA,NA,NA,3,#D8271C,#741CD8,0,10,0,38,1,478.20000000018626,39,0,313.29999999981374,10,1,experiment,NA,NA,1,0.3,0.7,3,2,71,2,NA
fcp-trial,105,483292,0.0-80.0-0.0,voc_e2,12198,"[{""event"":""fullscreenenter"",""trial"":1,""time"":1902}]",NA,NA,NA,NA,NA,1,#D89F1C,#3386FF,0,10,0,38,1,457.30000000074506,39,0,413,10,1,experiment,NA,NA,0,0.1,0.9,1,0,72,2,NA
fcp-trial,106,486045,0.0-81.0-0.0,voc_e2,12198,"[{""event"":""fullscreenenter"",""trial"":1,""time"":1902}]",NA,NA,NA,NA,NA,5,#1CD855,#FA92F8,0,10,0,40,0,485.80000000074506,37,1,757.2000000001863,0,0,experiment,NA,NA,2,0.5,0.5,5,4,73,2,NA
fcp-trial,107,489466,0.0-82.0-0.0,voc_e2,12198,"[{""event"":""fullscreenenter"",""trial"":1,""time"":1902}]",NA,NA,NA,NA,NA,1,#FA92F8,#1CD855,0,10,1,38,1,1536,39,0,381.29999999981374,10,0,experiment,NA,NA,2,0.5,0.5,4,5,74,2,NA
fcp-trial,108,492290,0.0-83.0-0.0,voc_e2,12198,"[{""event"":""fullscreenenter"",""trial"":1,""time"":1902}]",NA,NA,NA,NA,NA,5,#741CD8,#D8271C,10,10,1,40,0,804.8999999994412,37,1,514.9000000003725,10,1,experiment,NA,NA,1,0.7,0.3,2,3,75,2,NA
fcp-trial,109,495662,0.0-84.0-0.0,voc_e2,12198,"[{""event"":""fullscreenenter"",""trial"":1,""time"":1902}]",NA,NA,NA,NA,NA,5,#D89F1C,#3386FF,0,10,0,40,0,1262.9000000003725,37,1,599.1999999992549,0,0,experiment,NA,NA,0,0.1,0.9,1,0,76,2,NA
fcp-trial,110,498279,0.0-85.0-0.0,voc_e2,12198,"[{""event"":""fullscreenenter"",""trial"":1,""time"":1902}]",NA,NA,NA,NA,NA,0,#D89F1C,#3386FF,0,10,0,38,1,730.5,39,0,383,10,1,experiment,NA,NA,0,0.1,0.9,1,0,77,2,NA
fcp-trial,111,501613,0.0-86.0-0.0,voc_e2,12198,"[{""event"":""fullscreenenter"",""trial"":1,""time"":1902}]",NA,NA,NA,NA,NA,6,#3386FF,#D89F1C,10,0,1,40,0,863.7000000001863,39,0,967.0999999996275,0,0,experiment,NA,NA,0,0.9,0.1,0,1,78,2,NA
fcp-trial,112,505067,0.0-87.0-0.0,voc_e2,12198,"[{""event"":""fullscreenenter"",""trial"":1,""time"":1902}]",NA,NA,NA,NA,NA,2,#FA92F8,#1CD855,0,0,1,38,1,1519.5999999996275,39,0,430.79999999981374,0,0,experiment,NA,NA,2,0.5,0.5,4,5,79,2,NA
fcp-trial,113,507852,0.0-88.0-0.0,voc_e2,12198,"[{""event"":""fullscreenenter"",""trial"":1,""time"":1902}]",NA,NA,NA,NA,NA,4,#D8271C,#741CD8,0,10,0,40,0,789.1000000005588,37,1,489.70000000018626,0,0,experiment,NA,NA,1,0.3,0.7,3,2,80,2,NA
fcp-trial,114,511687,0.0-89.0-0.0,voc_e2,12198,"[{""event"":""fullscreenenter"",""trial"":1,""time"":1902}]",NA,NA,NA,NA,NA,1,#741CD8,#D8271C,10,0,1,38,1,873,37,1,1457.2000000001863,10,1,experiment,NA,NA,1,0.7,0.3,2,3,81,2,NA
fcp-trial,115,514717,0.0-90.0-0.0,voc_e2,12198,"[{""event"":""fullscreenenter"",""trial"":1,""time"":1902}]",NA,NA,NA,NA,NA,6,#1CD855,#FA92F8,10,10,0,40,0,894.0999999996275,37,1,632.8999999994412,10,0,experiment,NA,NA,2,0.5,0.5,5,4,82,2,NA
fcp-trial,116,517998,0.0-91.0-0.0,voc_e2,12198,"[{""event"":""fullscreenenter"",""trial"":1,""time"":1902}]",NA,NA,NA,NA,NA,3,#D89F1C,#3386FF,0,10,0,38,1,1464.5,39,0,312.59999999962747,10,1,experiment,NA,NA,0,0.1,0.9,1,0,83,2,NA
fcp-trial,117,521461,0.0-92.0-0.0,voc_e2,12198,"[{""event"":""fullscreenenter"",""trial"":1,""time"":1902}]",NA,NA,NA,NA,NA,4,#FA92F8,#1CD855,0,10,1,38,1,1641.300000000745,39,0,316.20000000018626,10,0,experiment,NA,NA,2,0.5,0.5,4,5,84,2,NA
fcp-trial,118,524055,0.0-93.0-0.0,voc_e2,12198,"[{""event"":""fullscreenenter"",""trial"":1,""time"":1902}]",NA,NA,NA,NA,NA,6,#1CD855,#FA92F8,0,10,0,38,1,681.6999999992549,37,1,409.3999999994412,0,0,experiment,NA,NA,2,0.5,0.5,5,4,85,2,NA
fcp-trial,119,527421,0.0-94.0-0.0,voc_e2,12198,"[{""event"":""fullscreenenter"",""trial"":1,""time"":1902}]",NA,NA,NA,NA,NA,3,#D89F1C,#3386FF,0,10,0,38,1,1547.9000000003725,39,0,314.59999999962747,10,1,experiment,NA,NA,0,0.1,0.9,1,0,86,2,NA
fcp-trial,120,530911,0.0-95.0-0.0,voc_e2,12198,"[{""event"":""fullscreenenter"",""trial"":1,""time"":1902}]",NA,NA,NA,NA,NA,1,#741CD8,#D8271C,0,0,1,38,1,1142.6000000005588,37,1,843.7000000001863,0,1,experiment,NA,NA,1,0.7,0.3,2,3,87,2,NA
fcp-trial,121,533857,0.0-96.0-0.0,voc_e2,12198,"[{""event"":""fullscreenenter"",""trial"":1,""time"":1902}]",NA,NA,NA,NA,NA,3,#FA92F8,#1CD855,0,10,1,38,1,744,39,0,697.5,10,0,experiment,NA,NA,2,0.5,0.5,4,5,88,2,NA
fcp-trial,122,536671,0.0-97.0-0.0,voc_e2,12198,"[{""event"":""fullscreenenter"",""trial"":1,""time"":1902}]",NA,NA,NA,NA,NA,2,#D8271C,#741CD8,10,0,0,38,1,700,39,0,605.7000000001863,0,1,experiment,NA,NA,1,0.3,0.7,3,2,89,2,NA
fcp-trial,123,539611,0.0-98.0-0.0,voc_e2,12198,"[{""event"":""fullscreenenter"",""trial"":1,""time"":1902}]",NA,NA,NA,NA,NA,4,#D89F1C,#3386FF,10,10,0,38,1,734,39,0,700.2000000001863,10,1,experiment,NA,NA,0,0.1,0.9,1,0,90,2,NA
fcp-trial,124,542220,0.0-99.0-0.0,voc_e2,12198,"[{""event"":""fullscreenenter"",""trial"":1,""time"":1902}]",NA,NA,NA,NA,NA,4,#FA92F8,#1CD855,0,0,1,40,0,574.7000000001863,39,0,530.2000000001863,0,0,experiment,NA,NA,2,0.5,0.5,4,5,91,3,NA
fcp-trial,125,545254,0.0-100.0-0.0,voc_e2,12198,"[{""event"":""fullscreenenter"",""trial"":1,""time"":1902}]",NA,NA,NA,NA,NA,2,#1CD855,#FA92F8,10,10,0,38,1,1213.5999999996275,37,1,317.3999999994412,10,0,experiment,NA,NA,2,0.5,0.5,5,4,92,3,NA
fcp-trial,126,548295,0.0-101.0-0.0,voc_e2,12198,"[{""event"":""fullscreenenter"",""trial"":1,""time"":1902}]",NA,NA,NA,NA,NA,0,#741CD8,#D8271C,10,0,1,38,1,851,37,1,683.8999999994412,10,1,experiment,NA,NA,1,0.7,0.3,2,3,93,3,NA
fcp-trial,127,550670,0.0-102.0-0.0,voc_e2,12198,"[{""event"":""fullscreenenter"",""trial"":1,""time"":1902}]",NA,NA,NA,NA,NA,6,#741CD8,#D8271C,0,0,1,38,1,538.3999999994412,37,1,332.29999999981374,0,1,experiment,NA,NA,1,0.7,0.3,2,3,94,3,NA
fcp-trial,128,553948,0.0-103.0-0.0,voc_e2,12198,"[{""event"":""fullscreenenter"",""trial"":1,""time"":1902}]",NA,NA,NA,NA,NA,6,#3386FF,#D89F1C,0,0,1,40,0,1287.0999999996275,37,1,486.70000000018626,0,1,experiment,NA,NA,0,0.9,0.1,0,1,95,3,NA
fcp-trial,129,557072,0.0-104.0-0.0,voc_e2,12198,"[{""event"":""fullscreenenter"",""trial"":1,""time"":1902}]",NA,NA,NA,NA,NA,1,#1CD855,#FA92F8,10,0,0,38,1,1155.6000000005588,37,1,464.79999999981374,10,0,experiment,NA,NA,2,0.5,0.5,5,4,96,3,NA
fcp-trial,130,559819,0.0-105.0-0.0,voc_e2,12198,"[{""event"":""fullscreenenter"",""trial"":1,""time"":1902}]",NA,NA,NA,NA,NA,5,#D89F1C,#3386FF,0,10,0,38,1,830.2999999998137,39,0,413,10,1,experiment,NA,NA,0,0.1,0.9,1,0,97,3,NA
fcp-trial,131,562328,0.0-106.0-0.0,voc_e2,12198,"[{""event"":""fullscreenenter"",""trial"":1,""time"":1902}]",NA,NA,NA,NA,NA,4,#741CD8,#D8271C,10,10,1,38,1,519.1999999992549,37,1,483.40000000037253,10,1,experiment,NA,NA,1,0.7,0.3,2,3,98,3,NA
fcp-trial,132,564934,0.0-107.0-0.0,voc_e2,12198,"[{""event"":""fullscreenenter"",""trial"":1,""time"":1902}]",NA,NA,NA,NA,NA,0,#D89F1C,#3386FF,0,10,0,38,1,620.0999999996275,39,0,482.40000000037253,10,1,experiment,NA,NA,0,0.1,0.9,1,0,99,3,NA
fcp-trial,133,568294,0.0-108.0-0.0,voc_e2,12198,"[{""event"":""fullscreenenter"",""trial"":1,""time"":1902}]",NA,NA,NA,NA,NA,5,#1CD855,#FA92F8,0,0,0,40,0,1389.699999999255,37,1,467,0,0,experiment,NA,NA,2,0.5,0.5,5,4,100,3,NA
fcp-trial,134,571252,0.0-109.0-0.0,voc_e2,12198,"[{""event"":""fullscreenenter"",""trial"":1,""time"":1902}]",NA,NA,NA,NA,NA,2,#3386FF,#D89F1C,10,0,1,38,1,1155.0999999996275,37,1,299.1000000005588,10,1,experiment,NA,NA,0,0.9,0.1,0,1,101,3,NA
fcp-trial,135,573630,0.0-110.0-0.0,voc_e2,12198,"[{""event"":""fullscreenenter"",""trial"":1,""time"":1902}]",NA,NA,NA,NA,NA,1,#3386FF,#D89F1C,0,0,1,38,1,517.4000000003725,37,1,356.80000000074506,0,1,experiment,NA,NA,0,0.9,0.1,0,1,102,3,NA
fcp-trial,136,576016,0.0-111.0-0.0,voc_e2,12198,"[{""event"":""fullscreenenter"",""trial"":1,""time"":1902}]",NA,NA,NA,NA,NA,3,#D8271C,#741CD8,10,0,0,38,1,474.80000000074506,37,1,407.1000000005588,10,0,experiment,NA,NA,1,0.3,0.7,3,2,103,3,NA
fcp-trial,137,579077,0.0-112.0-0.0,voc_e2,12198,"[{""event"":""fullscreenenter"",""trial"":1,""time"":1902}]",NA,NA,NA,NA,NA,0,#1CD855,#FA92F8,0,0,0,38,1,743.2999999998137,37,1,814.3999999994412,0,0,experiment,NA,NA,2,0.5,0.5,5,4,104,3,NA
fcp-trial,138,581428,0.0-113.0-0.0,voc_e2,12198,"[{""event"":""fullscreenenter"",""trial"":1,""time"":1902}]",NA,NA,NA,NA,NA,5,#D8271C,#741CD8,10,0,0,38,1,425.40000000037253,37,1,422.5,10,0,experiment,NA,NA,1,0.3,0.7,3,2,105,3,NA
audio-instructions,139,592305,0.0-114.0,voc_e2,12198,"[{""event"":""fullscreenenter"",""trial"":1,""time"":1902}]",NA,6106,static/audio/pause.wav,NA,0,NA,NA,NA,NA,NA,NA,NA,NA,NA,NA,NA,NA,NA,NA,NA,NA,NA,NA,NA,NA,NA,NA,NA,NA,NA
fcp-trial,140,595956,0.0-115.0-0.0,voc_e2,12198,"[{""event"":""fullscreenenter"",""trial"":1,""time"":1902}]",NA,NA,NA,NA,NA,2,#1CD855,#FA92F8,10,10,0,38,1,1660.699999999255,37,1,482.20000000018626,10,0,experiment,NA,NA,2,0.5,0.5,5,4,106,3,NA
fcp-trial,141,598272,0.0-116.0-0.0,voc_e2,12198,"[{""event"":""fullscreenenter"",""trial"":1,""time"":1902}]",NA,NA,NA,NA,NA,3,#D8271C,#741CD8,0,10,0,38,1,513.2999999998137,37,1,293.90000000037253,0,0,experiment,NA,NA,1,0.3,0.7,3,2,107,3,NA
fcp-trial,142,601459,0.0-117.0-0.0,voc_e2,12198,"[{""event"":""fullscreenenter"",""trial"":1,""time"":1902}]",NA,NA,NA,NA,NA,1,#FA92F8,#1CD855,0,10,1,38,1,1382.800000000745,39,0,295.90000000037253,10,0,experiment,NA,NA,2,0.5,0.5,4,5,108,3,NA
fcp-trial,143,604088,0.0-118.0-0.0,voc_e2,12198,"[{""event"":""fullscreenenter"",""trial"":1,""time"":1902}]",NA,NA,NA,NA,NA,5,#3386FF,#D89F1C,10,0,1,38,1,837.3000000007451,37,1,287.20000000018626,10,1,experiment,NA,NA,0,0.9,0.1,0,1,109,3,NA
fcp-trial,144,606422,0.0-119.0-0.0,voc_e2,12198,"[{""event"":""fullscreenenter"",""trial"":1,""time"":1902}]",NA,NA,NA,NA,NA,2,#3386FF,#D89F1C,10,0,1,38,1,579.2999999998137,37,1,250.69999999925494,10,1,experiment,NA,NA,0,0.9,0.1,0,1,110,3,NA
fcp-trial,145,608845,0.0-120.0-0.0,voc_e2,12198,"[{""event"":""fullscreenenter"",""trial"":1,""time"":1902}]",NA,NA,NA,NA,NA,6,#741CD8,#D8271C,10,0,1,38,1,583.8999999994412,39,0,330,0,0,experiment,NA,NA,1,0.7,0.3,2,3,111,3,NA
fcp-trial,146,611373,0.0-121.0-0.0,voc_e2,12198,"[{""event"":""fullscreenenter"",""trial"":1,""time"":1902}]",NA,NA,NA,NA,NA,4,#1CD855,#FA92F8,10,0,0,38,1,679.5,37,1,344.6000000005588,10,0,experiment,NA,NA,2,0.5,0.5,5,4,112,3,NA
fcp-trial,147,613884,0.0-122.0-0.0,voc_e2,12198,"[{""event"":""fullscreenenter"",""trial"":1,""time"":1902}]",NA,NA,NA,NA,NA,3,#D89F1C,#3386FF,0,10,0,38,1,721.5,39,0,281.09999999962747,10,1,experiment,NA,NA,0,0.1,0.9,1,0,113,3,NA
fcp-trial,148,616283,0.0-123.0-0.0,voc_e2,12198,"[{""event"":""fullscreenenter"",""trial"":1,""time"":1902}]",NA,NA,NA,NA,NA,0,#3386FF,#D89F1C,10,0,1,38,1,611,37,1,283.8999999994412,10,1,experiment,NA,NA,0,0.9,0.1,0,1,114,3,NA
fcp-trial,149,618709,0.0-124.0-0.0,voc_e2,12198,"[{""event"":""fullscreenenter"",""trial"":1,""time"":1902}]",NA,NA,NA,NA,NA,5,#D8271C,#741CD8,0,10,0,38,1,466,37,1,455,0,0,experiment,NA,NA,1,0.3,0.7,3,2,115,3,NA
fcp-trial,150,621441,0.0-125.0-0.0,voc_e2,12198,"[{""event"":""fullscreenenter"",""trial"":1,""time"":1902}]",NA,NA,NA,NA,NA,4,#741CD8,#D8271C,10,10,1,38,1,791.2000000001863,37,1,437,10,1,experiment,NA,NA,1,0.7,0.3,2,3,116,3,NA
fcp-trial,151,623875,0.0-126.0-0.0,voc_e2,12198,"[{""event"":""fullscreenenter"",""trial"":1,""time"":1902}]",NA,NA,NA,NA,NA,0,#FA92F8,#1CD855,0,0,1,38,1,625,39,0,304.6000000005588,0,0,experiment,NA,NA,2,0.5,0.5,4,5,117,3,NA
fcp-trial,152,626229,0.0-127.0-0.0,voc_e2,12198,"[{""event"":""fullscreenenter"",""trial"":1,""time"":1902}]",NA,NA,NA,NA,NA,4,#3386FF,#D89F1C,10,0,1,38,1,407,37,1,442.90000000037253,10,1,experiment,NA,NA,0,0.9,0.1,0,1,118,3,NA
fcp-trial,153,628672,0.0-128.0-0.0,voc_e2,12198,"[{""event"":""fullscreenenter"",""trial"":1,""time"":1902}]",NA,NA,NA,NA,NA,1,#3386FF,#D89F1C,10,0,1,38,1,418.20000000018626,37,1,520.2000000001863,10,1,experiment,NA,NA,0,0.9,0.1,0,1,119,3,NA
fcp-trial,154,631351,0.0-129.0-0.0,voc_e2,12198,"[{""event"":""fullscreenenter"",""trial"":1,""time"":1902}]",NA,NA,NA,NA,NA,3,#FA92F8,#1CD855,10,10,1,38,1,496.29999999981374,39,0,674.3999999994412,10,0,experiment,NA,NA,2,0.5,0.5,4,5,120,3,NA
fcp-trial,155,633763,0.0-130.0-0.0,voc_e2,12198,"[{""event"":""fullscreenenter"",""trial"":1,""time"":1902}]",NA,NA,NA,NA,NA,0,#741CD8,#D8271C,10,10,1,38,1,555.1000000005588,37,1,352.8999999994412,10,1,experiment,NA,NA,1,0.7,0.3,2,3,121,3,NA
fcp-trial,156,636642,0.0-131.0-0.0,voc_e2,12198,"[{""event"":""fullscreenenter"",""trial"":1,""time"":1902}]",NA,NA,NA,NA,NA,6,#1CD855,#FA92F8,0,10,0,38,1,865.0999999996275,39,0,509.59999999962747,10,1,experiment,NA,NA,2,0.5,0.5,5,4,122,3,NA
fcp-trial,157,639049,0.0-132.0-0.0,voc_e2,12198,"[{""event"":""fullscreenenter"",""trial"":1,""time"":1902}]",NA,NA,NA,NA,NA,5,#1CD855,#FA92F8,10,0,0,38,1,530.2000000001863,37,1,373.3999999994412,10,0,experiment,NA,NA,2,0.5,0.5,5,4,123,3,NA
fcp-trial,158,641465,0.0-133.0-0.0,voc_e2,12198,"[{""event"":""fullscreenenter"",""trial"":1,""time"":1902}]",NA,NA,NA,NA,NA,6,#3386FF,#D89F1C,10,0,1,38,1,636.5,37,1,275.30000000074506,10,1,experiment,NA,NA,0,0.9,0.1,0,1,124,3,NA
fcp-trial,159,644147,0.0-134.0-0.0,voc_e2,12198,"[{""event"":""fullscreenenter"",""trial"":1,""time"":1902}]",NA,NA,NA,NA,NA,1,#741CD8,#D8271C,0,0,1,38,1,799.8000000007451,37,1,378.79999999981374,0,1,experiment,NA,NA,1,0.7,0.3,2,3,125,3,NA
fcp-trial,160,646694,0.0-135.0-0.0,voc_e2,12198,"[{""event"":""fullscreenenter"",""trial"":1,""time"":1902}]",NA,NA,NA,NA,NA,2,#D8271C,#741CD8,0,10,0,38,1,721.3000000007451,39,0,322,10,1,experiment,NA,NA,1,0.3,0.7,3,2,126,3,NA
fcp-trial,161,649692,0.0-136.0-0.0,voc_e2,12198,"[{""event"":""fullscreenenter"",""trial"":1,""time"":1902}]",NA,NA,NA,NA,NA,2,#1CD855,#FA92F8,0,0,0,38,1,829,39,0,663.5999999996275,0,1,experiment,NA,NA,2,0.5,0.5,5,4,127,3,NA
fcp-trial,162,652201,0.0-137.0-0.0,voc_e2,12198,"[{""event"":""fullscreenenter"",""trial"":1,""time"":1902}]",NA,NA,NA,NA,NA,6,#D8271C,#741CD8,10,10,0,38,1,645.5999999996275,39,0,358.70000000018626,10,1,experiment,NA,NA,1,0.3,0.7,3,2,128,3,NA
fcp-trial,163,654837,0.0-138.0-0.0,voc_e2,12198,"[{""event"":""fullscreenenter"",""trial"":1,""time"":1902}]",NA,NA,NA,NA,NA,3,#741CD8,#D8271C,10,0,1,38,1,793,37,1,339.09999999962747,10,1,experiment,NA,NA,1,0.7,0.3,2,3,129,3,NA
fcp-trial,164,657871,0.0-139.0-0.0,voc_e2,12198,"[{""event"":""fullscreenenter"",""trial"":1,""time"":1902}]",NA,NA,NA,NA,NA,4,#D89F1C,#3386FF,0,10,0,38,1,1203.2000000001863,39,0,321.1000000005588,10,1,experiment,NA,NA,0,0.1,0.9,1,0,130,3,NA
fcp-trial,165,660643,0.0-140.0-0.0,voc_e2,12198,"[{""event"":""fullscreenenter"",""trial"":1,""time"":1902}]",NA,NA,NA,NA,NA,1,#1CD855,#FA92F8,0,10,0,38,1,892.2000000001863,39,0,376.70000000018626,10,1,experiment,NA,NA,2,0.5,0.5,5,4,131,3,NA
fcp-trial,166,663959,0.0-141.0-0.0,voc_e2,12198,"[{""event"":""fullscreenenter"",""trial"":1,""time"":1902}]",NA,NA,NA,NA,NA,5,#D89F1C,#3386FF,0,10,0,40,0,1209,37,1,604,0,0,experiment,NA,NA,0,0.1,0.9,1,0,132,3,NA
fcp-trial,167,666814,0.0-142.0-0.0,voc_e2,12198,"[{""event"":""fullscreenenter"",""trial"":1,""time"":1902}]",NA,NA,NA,NA,NA,2,#D8271C,#741CD8,0,10,0,38,1,957.2000000001863,39,0,393.40000000037253,10,1,experiment,NA,NA,1,0.3,0.7,3,2,133,3,NA
fcp-trial,168,669355,0.0-143.0-0.0,voc_e2,12198,"[{""event"":""fullscreenenter"",""trial"":1,""time"":1902}]",NA,NA,NA,NA,NA,0,#3386FF,#D89F1C,10,0,1,38,1,733.2999999998137,37,1,304.20000000018626,10,1,experiment,NA,NA,0,0.9,0.1,0,1,134,3,NA
fcp-trial,169,671828,0.0-144.0-0.0,voc_e2,12198,"[{""event"":""fullscreenenter"",""trial"":1,""time"":1902}]",NA,NA,NA,NA,NA,4,#741CD8,#D8271C,10,0,1,38,1,440,39,0,523.0999999996275,0,0,experiment,NA,NA,1,0.7,0.3,2,3,135,3,NA
fcp-trial,170,674377,0.0-145.0-0.0,voc_e2,12198,"[{""event"":""fullscreenenter"",""trial"":1,""time"":1902}]",NA,NA,NA,NA,NA,3,#FA92F8,#1CD855,10,0,1,38,1,665.5999999996275,37,1,379.90000000037253,10,1,experiment,NA,NA,2,0.5,0.5,4,5,136,4,NA
fcp-trial,171,677519,0.0-146.0-0.0,voc_e2,12198,"[{""event"":""fullscreenenter"",""trial"":1,""time"":1902}]",NA,NA,NA,NA,NA,0,#FA92F8,#1CD855,10,10,1,38,1,1297.7999999998137,39,0,340.40000000037253,10,0,experiment,NA,NA,2,0.5,0.5,4,5,137,4,NA
fcp-trial,172,680575,0.0-147.0-0.0,voc_e2,12198,"[{""event"":""fullscreenenter"",""trial"":1,""time"":1902}]",NA,NA,NA,NA,NA,2,#3386FF,#D89F1C,10,0,1,38,1,1130.3999999994412,37,1,420.20000000018626,10,1,experiment,NA,NA,0,0.9,0.1,0,1,138,4,NA
fcp-trial,173,683141,0.0-148.0-0.0,voc_e2,12198,"[{""event"":""fullscreenenter"",""trial"":1,""time"":1902}]",NA,NA,NA,NA,NA,1,#741CD8,#D8271C,10,0,1,38,1,678.3999999994412,37,1,384.6000000005588,10,1,experiment,NA,NA,1,0.7,0.3,2,3,139,4,NA
fcp-trial,174,685420,0.0-149.0-0.0,voc_e2,12198,"[{""event"":""fullscreenenter"",""trial"":1,""time"":1902}]",NA,NA,NA,NA,NA,6,#3386FF,#D89F1C,10,0,1,38,1,456.79999999981374,37,1,317.59999999962747,10,1,experiment,NA,NA,0,0.9,0.1,0,1,140,4,NA
fcp-trial,175,688302,0.0-150.0-0.0,voc_e2,12198,"[{""event"":""fullscreenenter"",""trial"":1,""time"":1902}]",NA,NA,NA,NA,NA,5,#1CD855,#FA92F8,0,0,0,38,1,706.2000000001863,37,1,666,0,0,experiment,NA,NA,2,0.5,0.5,5,4,141,4,NA
fcp-trial,176,691175,0.0-151.0-0.0,voc_e2,12198,"[{""event"":""fullscreenenter"",""trial"":1,""time"":1902}]",NA,NA,NA,NA,NA,3,#3386FF,#D89F1C,10,0,1,38,1,877.4000000003725,37,1,491.40000000037253,10,1,experiment,NA,NA,0,0.9,0.1,0,1,142,4,NA
fcp-trial,177,694577,0.0-152.0-0.0,voc_e2,12198,"[{""event"":""fullscreenenter"",""trial"":1,""time"":1902}]",NA,NA,NA,NA,NA,5,#741CD8,#D8271C,10,0,1,40,0,1472.5999999996275,37,1,425.79999999981374,10,1,experiment,NA,NA,1,0.7,0.3,2,3,143,4,NA
fcp-trial,178,697442,0.0-153.0-0.0,voc_e2,12198,"[{""event"":""fullscreenenter"",""trial"":1,""time"":1902}]",NA,NA,NA,NA,NA,0,#D8271C,#741CD8,0,0,0,38,1,1045,39,0,315.70000000018626,0,1,experiment,NA,NA,1,0.3,0.7,3,2,144,4,NA
fcp-trial,179,700288,0.0-154.0-0.0,voc_e2,12198,"[{""event"":""fullscreenenter"",""trial"":1,""time"":1902}]",NA,NA,NA,NA,NA,4,#FA92F8,#1CD855,10,10,1,38,1,621.5,37,1,720.7999999998137,10,1,experiment,NA,NA,2,0.5,0.5,4,5,145,4,NA
fcp-trial,180,702534,0.0-155.0-0.0,voc_e2,12198,"[{""event"":""fullscreenenter"",""trial"":1,""time"":1902}]",NA,NA,NA,NA,NA,1,#D89F1C,#3386FF,0,0,0,38,1,421.29999999981374,39,0,315,0,1,experiment,NA,NA,0,0.1,0.9,1,0,146,4,NA
fcp-trial,181,704810,0.0-156.0-0.0,voc_e2,12198,"[{""event"":""fullscreenenter"",""trial"":1,""time"":1902}]",NA,NA,NA,NA,NA,6,#FA92F8,#1CD855,10,10,1,38,1,429.70000000018626,37,1,343.5,10,1,experiment,NA,NA,2,0.5,0.5,4,5,147,4,NA
fcp-trial,182,707125,0.0-157.0-0.0,voc_e2,12198,"[{""event"":""fullscreenenter"",""trial"":1,""time"":1902}]",NA,NA,NA,NA,NA,6,#741CD8,#D8271C,0,0,1,38,1,485.90000000037253,37,1,324.79999999981374,0,1,experiment,NA,NA,1,0.7,0.3,2,3,148,4,NA
fcp-trial,183,709936,0.0-158.0-0.0,voc_e2,12198,"[{""event"":""fullscreenenter"",""trial"":1,""time"":1902}]",NA,NA,NA,NA,NA,2,#FA92F8,#1CD855,10,0,1,38,1,643.7999999998137,39,0,660.5,0,0,experiment,NA,NA,2,0.5,0.5,4,5,149,4,NA
fcp-trial,184,712342,0.0-159.0-0.0,voc_e2,12198,"[{""event"":""fullscreenenter"",""trial"":1,""time"":1902}]",NA,NA,NA,NA,NA,5,#3386FF,#D89F1C,10,0,1,38,1,503.59999999962747,37,1,399,10,1,experiment,NA,NA,0,0.9,0.1,0,1,150,4,NA
fcp-trial,185,714641,0.0-160.0-0.0,voc_e2,12198,"[{""event"":""fullscreenenter"",""trial"":1,""time"":1902}]",NA,NA,NA,NA,NA,3,#3386FF,#D89F1C,10,0,1,38,1,530,37,1,265.3999999994412,10,1,experiment,NA,NA,0,0.9,0.1,0,1,151,4,NA
fcp-trial,186,717170,0.0-161.0-0.0,voc_e2,12198,"[{""event"":""fullscreenenter"",""trial"":1,""time"":1902}]",NA,NA,NA,NA,NA,0,#D8271C,#741CD8,10,10,0,38,1,404.70000000018626,39,0,620.5,10,1,experiment,NA,NA,1,0.3,0.7,3,2,152,4,NA
fcp-trial,187,719471,0.0-162.0-0.0,voc_e2,12198,"[{""event"":""fullscreenenter"",""trial"":1,""time"":1902}]",NA,NA,NA,NA,NA,2,#741CD8,#D8271C,10,0,1,38,1,396.79999999981374,37,1,394.19999999925494,10,1,experiment,NA,NA,1,0.7,0.3,2,3,153,4,NA
fcp-trial,188,721909,0.0-163.0-0.0,voc_e2,12198,"[{""event"":""fullscreenenter"",""trial"":1,""time"":1902}]",NA,NA,NA,NA,NA,0,#FA92F8,#1CD855,0,0,1,38,1,595.5,37,1,333.6000000005588,0,1,experiment,NA,NA,2,0.5,0.5,4,5,154,4,NA
fcp-trial,189,724319,0.0-164.0-0.0,voc_e2,12198,"[{""event"":""fullscreenenter"",""trial"":1,""time"":1902}]",NA,NA,NA,NA,NA,0,#D89F1C,#3386FF,0,10,0,38,1,511.6000000005588,39,0,393.79999999981374,10,1,experiment,NA,NA,0,0.1,0.9,1,0,155,4,NA
fcp-trial,190,727175,0.0-165.0-0.0,voc_e2,12198,"[{""event"":""fullscreenenter"",""trial"":1,""time"":1902}]",NA,NA,NA,NA,NA,5,#FA92F8,#1CD855,0,0,1,40,0,664.5,39,0,687.4000000003725,0,0,experiment,NA,NA,2,0.5,0.5,4,5,156,4,NA
fcp-trial,191,729783,0.0-166.0-0.0,voc_e2,12198,"[{""event"":""fullscreenenter"",""trial"":1,""time"":1902}]",NA,NA,NA,NA,NA,6,#FA92F8,#1CD855,10,10,1,40,0,737.5,37,1,367.29999999981374,10,1,experiment,NA,NA,2,0.5,0.5,4,5,157,4,NA
fcp-trial,192,732517,0.0-167.0-0.0,voc_e2,12198,"[{""event"":""fullscreenenter"",""trial"":1,""time"":1902}]",NA,NA,NA,NA,NA,1,#D8271C,#741CD8,10,10,0,38,1,684.1000000005588,37,1,546.1000000005588,10,0,experiment,NA,NA,1,0.3,0.7,3,2,158,4,NA
fcp-trial,193,734846,0.0-168.0-0.0,voc_e2,12198,"[{""event"":""fullscreenenter"",""trial"":1,""time"":1902}]",NA,NA,NA,NA,NA,4,#D8271C,#741CD8,0,10,0,38,1,511.30000000074506,39,0,313.70000000018626,10,1,experiment,NA,NA,1,0.3,0.7,3,2,159,4,NA
fcp-trial,194,737529,0.0-169.0-0.0,voc_e2,12198,"[{""event"":""fullscreenenter"",""trial"":1,""time"":1902}]",NA,NA,NA,NA,NA,4,#3386FF,#D89F1C,0,0,1,38,1,892.5999999996275,37,1,287,0,1,experiment,NA,NA,0,0.9,0.1,0,1,160,4,NA
fcp-trial,195,739841,0.0-170.0-0.0,voc_e2,12198,"[{""event"":""fullscreenenter"",""trial"":1,""time"":1902}]",NA,NA,NA,NA,NA,5,#D8271C,#741CD8,10,10,0,38,1,431.29999999981374,39,0,376.79999999981374,10,1,experiment,NA,NA,1,0.3,0.7,3,2,161,4,NA
fcp-trial,196,742543,0.0-171.0-0.0,voc_e2,12198,"[{""event"":""fullscreenenter"",""trial"":1,""time"":1902}]",NA,NA,NA,NA,NA,3,#FA92F8,#1CD855,0,0,1,38,1,719.7999999998137,37,1,478.29999999981374,0,1,experiment,NA,NA,2,0.5,0.5,4,5,162,4,NA
fcp-trial,197,745047,0.0-172.0-0.0,voc_e2,12198,"[{""event"":""fullscreenenter"",""trial"":1,""time"":1902}]",NA,NA,NA,NA,NA,1,#3386FF,#D89F1C,10,0,1,38,1,562.2999999998137,37,1,438.29999999981374,10,1,experiment,NA,NA,0,0.9,0.1,0,1,163,4,NA
fcp-trial,198,749117,0.0-173.0-0.0,voc_e2,12198,"[{""event"":""fullscreenenter"",""trial"":1,""time"":1902}]",NA,NA,NA,NA,NA,3,#741CD8,#D8271C,10,10,1,40,0,680.9000000003725,39,0,1884.7999999998137,10,0,experiment,NA,NA,1,0.7,0.3,2,3,164,4,NA
fcp-trial,199,752109,0.0-174.0-0.0,voc_e2,12198,"[{""event"":""fullscreenenter"",""trial"":1,""time"":1902}]",NA,NA,NA,NA,NA,4,#1CD855,#FA92F8,10,0,0,38,1,888.4000000003725,37,1,600.7999999998137,10,0,experiment,NA,NA,2,0.5,0.5,5,4,165,4,NA
fcp-trial,200,754933,0.0-175.0-0.0,voc_e2,12198,"[{""event"":""fullscreenenter"",""trial"":1,""time"":1902}]",NA,NA,NA,NA,NA,1,#FA92F8,#1CD855,10,10,1,38,1,694.0999999996275,39,0,625.9000000003725,10,0,experiment,NA,NA,2,0.5,0.5,4,5,166,4,NA
fcp-trial,201,757413,0.0-176.0-0.0,voc_e2,12198,"[{""event"":""fullscreenenter"",""trial"":1,""time"":1902}]",NA,NA,NA,NA,NA,2,#3386FF,#D89F1C,10,0,1,38,1,616,37,1,360,10,1,experiment,NA,NA,0,0.9,0.1,0,1,167,4,NA
fcp-trial,202,759879,0.0-177.0-0.0,voc_e2,12198,"[{""event"":""fullscreenenter"",""trial"":1,""time"":1902}]",NA,NA,NA,NA,NA,6,#D89F1C,#3386FF,0,10,0,38,1,555.2999999998137,39,0,405.29999999981374,10,1,experiment,NA,NA,0,0.1,0.9,1,0,168,4,NA
fcp-trial,203,762200,0.0-178.0-0.0,voc_e2,12198,"[{""event"":""fullscreenenter"",""trial"":1,""time"":1902}]",NA,NA,NA,NA,NA,4,#741CD8,#D8271C,10,0,1,38,1,468.59999999962747,37,1,348.20000000018626,10,1,experiment,NA,NA,1,0.7,0.3,2,3,169,4,NA
fcp-trial,204,764423,0.0-179.0-0.0,voc_e2,12198,"[{""event"":""fullscreenenter"",""trial"":1,""time"":1902}]",NA,NA,NA,NA,NA,5,#741CD8,#D8271C,10,0,1,38,1,310,37,1,408.90000000037253,10,1,experiment,NA,NA,1,0.7,0.3,2,3,170,4,NA
fcp-trial,205,766607,0.0-180.0-0.0,voc_e2,12198,"[{""event"":""fullscreenenter"",""trial"":1,""time"":1902}]",NA,NA,NA,NA,NA,2,#D89F1C,#3386FF,0,0,0,38,1,370.8999999994412,39,0,309,0,1,experiment,NA,NA,0,0.1,0.9,1,0,171,4,NA
fcp-trial,206,768982,0.0-181.0-0.0,voc_e2,12198,"[{""event"":""fullscreenenter"",""trial"":1,""time"":1902}]",NA,NA,NA,NA,NA,5,#3386FF,#D89F1C,10,0,1,38,1,511.79999999981374,37,1,358.09999999962747,10,1,experiment,NA,NA,0,0.9,0.1,0,1,172,4,NA
fcp-trial,207,771217,0.0-182.0-0.0,voc_e2,12198,"[{""event"":""fullscreenenter"",""trial"":1,""time"":1902}]",NA,NA,NA,NA,NA,4,#D89F1C,#3386FF,0,10,0,38,1,399.59999999962747,39,0,331.5,10,1,experiment,NA,NA,0,0.1,0.9,1,0,173,4,NA
fcp-trial,208,773376,0.0-183.0-0.0,voc_e2,12198,"[{""event"":""fullscreenenter"",""trial"":1,""time"":1902}]",NA,NA,NA,NA,NA,2,#741CD8,#D8271C,10,10,1,38,1,332.79999999981374,37,1,322.29999999981374,10,1,experiment,NA,NA,1,0.7,0.3,2,3,174,4,NA
fcp-trial,209,775709,0.0-184.0-0.0,voc_e2,12198,"[{""event"":""fullscreenenter"",""trial"":1,""time"":1902}]",NA,NA,NA,NA,NA,0,#3386FF,#D89F1C,10,0,1,38,1,295.5,37,1,533.5999999996275,10,1,experiment,NA,NA,0,0.9,0.1,0,1,175,4,NA
fcp-trial,210,777936,0.0-185.0-0.0,voc_e2,12198,"[{""event"":""fullscreenenter"",""trial"":1,""time"":1902}]",NA,NA,NA,NA,NA,3,#D8271C,#741CD8,0,0,0,38,1,329.1000000005588,39,0,393.5,0,1,experiment,NA,NA,1,0.3,0.7,3,2,176,4,NA
fcp-trial,211,780281,0.0-186.0-0.0,voc_e2,12198,"[{""event"":""fullscreenenter"",""trial"":1,""time"":1902}]",NA,NA,NA,NA,NA,6,#1CD855,#FA92F8,0,10,0,38,1,361.09999999962747,37,1,473.20000000018626,0,0,experiment,NA,NA,2,0.5,0.5,5,4,177,4,NA
fcp-trial,212,782474,0.0-187.0-0.0,voc_e2,12198,"[{""event"":""fullscreenenter"",""trial"":1,""time"":1902}]",NA,NA,NA,NA,NA,0,#FA92F8,#1CD855,0,0,1,38,1,246,39,0,443.20000000018626,0,0,experiment,NA,NA,2,0.5,0.5,4,5,178,4,NA
fcp-trial,213,784759,0.0-188.0-0.0,voc_e2,12198,"[{""event"":""fullscreenenter"",""trial"":1,""time"":1902}]",NA,NA,NA,NA,NA,6,#3386FF,#D89F1C,10,10,1,38,1,364,37,1,417.70000000018626,10,1,experiment,NA,NA,0,0.9,0.1,0,1,179,4,NA
fcp-trial,214,787046,0.0-189.0-0.0,voc_e2,12198,"[{""event"":""fullscreenenter"",""trial"":1,""time"":1902}]",NA,NA,NA,NA,NA,0,#741CD8,#D8271C,10,10,1,38,1,427.1000000005588,39,0,355.1000000005588,10,0,experiment,NA,NA,1,0.7,0.3,2,3,180,4,NA
fcp-trial,215,789734,0.0-190.0-0.0,voc_e2,12198,"[{""event"":""fullscreenenter"",""trial"":1,""time"":1902}]",NA,NA,NA,NA,NA,3,#D89F1C,#3386FF,0,0,0,38,1,809.2000000001863,39,0,375.19999999925494,0,1,experiment,NA,NA,0,0.1,0.9,1,0,181,5,NA
fcp-trial,216,792089,0.0-191.0-0.0,voc_e2,12198,"[{""event"":""fullscreenenter"",""trial"":1,""time"":1902}]",NA,NA,NA,NA,NA,2,#FA92F8,#1CD855,10,10,1,38,1,479.8999999994412,39,0,370.40000000037253,10,0,experiment,NA,NA,2,0.5,0.5,4,5,182,5,NA
fcp-trial,217,794711,0.0-192.0-0.0,voc_e2,12198,"[{""event"":""fullscreenenter"",""trial"":1,""time"":1902}]",NA,NA,NA,NA,NA,3,#1CD855,#FA92F8,0,10,0,38,1,704.5999999996275,37,1,413.5,0,0,experiment,NA,NA,2,0.5,0.5,5,4,183,5,NA
fcp-trial,218,797289,0.0-193.0-0.0,voc_e2,12198,"[{""event"":""fullscreenenter"",""trial"":1,""time"":1902}]",NA,NA,NA,NA,NA,1,#741CD8,#D8271C,10,0,1,38,1,749.0999999996275,39,0,325.20000000018626,0,0,experiment,NA,NA,1,0.7,0.3,2,3,184,5,NA
fcp-trial,219,799741,0.0-194.0-0.0,voc_e2,12198,"[{""event"":""fullscreenenter"",""trial"":1,""time"":1902}]",NA,NA,NA,NA,NA,1,#D89F1C,#3386FF,0,10,0,38,1,590.7999999998137,39,0,357,10,1,experiment,NA,NA,0,0.1,0.9,1,0,185,5,NA
fcp-trial,220,802519,0.0-195.0-0.0,voc_e2,12198,"[{""event"":""fullscreenenter"",""trial"":1,""time"":1902}]",NA,NA,NA,NA,NA,4,#FA92F8,#1CD855,0,0,1,38,1,871.7999999998137,39,0,402.70000000018626,0,0,experiment,NA,NA,2,0.5,0.5,4,5,186,5,NA
fcp-trial,221,805341,0.0-196.0-0.0,voc_e2,12198,"[{""event"":""fullscreenenter"",""trial"":1,""time"":1902}]",NA,NA,NA,NA,NA,6,#D8271C,#741CD8,0,0,0,38,1,859.5,39,0,452.90000000037253,0,1,experiment,NA,NA,1,0.3,0.7,3,2,187,5,NA
fcp-trial,222,807876,0.0-197.0-0.0,voc_e2,12198,"[{""event"":""fullscreenenter"",""trial"":1,""time"":1902}]",NA,NA,NA,NA,NA,1,#FA92F8,#1CD855,10,10,1,38,1,584.5,37,1,447,10,1,experiment,NA,NA,2,0.5,0.5,4,5,188,5,NA
fcp-trial,223,810306,0.0-198.0-0.0,voc_e2,12198,"[{""event"":""fullscreenenter"",""trial"":1,""time"":1902}]",NA,NA,NA,NA,NA,5,#1CD855,#FA92F8,10,10,0,38,1,540.6000000005588,39,0,385.79999999981374,10,1,experiment,NA,NA,2,0.5,0.5,5,4,189,5,NA
fcp-trial,224,812764,0.0-199.0-0.0,voc_e2,12198,"[{""event"":""fullscreenenter"",""trial"":1,""time"":1902}]",NA,NA,NA,NA,NA,4,#D8271C,#741CD8,0,0,0,38,1,611.5,39,0,342.6000000005588,0,1,experiment,NA,NA,1,0.3,0.7,3,2,190,5,NA
fcp-trial,225,815235,0.0-200.0-0.0,voc_e2,12198,"[{""event"":""fullscreenenter"",""trial"":1,""time"":1902}]",NA,NA,NA,NA,NA,1,#D89F1C,#3386FF,0,10,0,38,1,615.0999999996275,39,0,352.90000000037253,10,1,experiment,NA,NA,0,0.1,0.9,1,0,191,5,NA
fcp-trial,226,817791,0.0-201.0-0.0,voc_e2,12198,"[{""event"":""fullscreenenter"",""trial"":1,""time"":1902}]",NA,NA,NA,NA,NA,5,#1CD855,#FA92F8,0,10,0,38,1,517.2000000001863,39,0,530.2999999998137,10,1,experiment,NA,NA,2,0.5,0.5,5,4,192,5,NA
fcp-trial,227,820475,0.0-202.0-0.0,voc_e2,12198,"[{""event"":""fullscreenenter"",""trial"":1,""time"":1902}]",NA,NA,NA,NA,NA,0,#741CD8,#D8271C,10,10,1,38,1,496.70000000018626,37,1,683.1000000005588,10,1,experiment,NA,NA,1,0.7,0.3,2,3,193,5,NA
fcp-trial,228,822922,0.0-203.0-0.0,voc_e2,12198,"[{""event"":""fullscreenenter"",""trial"":1,""time"":1902}]",NA,NA,NA,NA,NA,5,#3386FF,#D89F1C,10,0,1,38,1,621.5,37,1,320.3999999994412,10,1,experiment,NA,NA,0,0.9,0.1,0,1,194,5,NA
fcp-trial,229,825384,0.0-204.0-0.0,voc_e2,12198,"[{""event"":""fullscreenenter"",""trial"":1,""time"":1902}]",NA,NA,NA,NA,NA,3,#D8271C,#741CD8,0,10,0,38,1,514.9000000003725,39,0,443.40000000037253,10,1,experiment,NA,NA,1,0.3,0.7,3,2,195,5,NA
fcp-trial,230,827594,0.0-205.0-0.0,voc_e2,12198,"[{""event"":""fullscreenenter"",""trial"":1,""time"":1902}]",NA,NA,NA,NA,NA,3,#D89F1C,#3386FF,0,10,0,38,1,302.79999999981374,39,0,403.5,10,1,experiment,NA,NA,0,0.1,0.9,1,0,196,5,NA
fcp-trial,231,829704,0.0-206.0-0.0,voc_e2,12198,"[{""event"":""fullscreenenter"",""trial"":1,""time"":1902}]",NA,NA,NA,NA,NA,4,#FA92F8,#1CD855,10,0,1,38,1,252.5,37,1,352.79999999981374,10,1,experiment,NA,NA,2,0.5,0.5,4,5,197,5,NA
fcp-trial,232,832299,0.0-207.0-0.0,voc_e2,12198,"[{""event"":""fullscreenenter"",""trial"":1,""time"":1902}]",NA,NA,NA,NA,NA,0,#3386FF,#D89F1C,10,0,1,38,1,432.5,39,0,652.0999999996275,0,0,experiment,NA,NA,0,0.9,0.1,0,1,198,5,NA
fcp-trial,233,834598,0.0-208.0-0.0,voc_e2,12198,"[{""event"":""fullscreenenter"",""trial"":1,""time"":1902}]",NA,NA,NA,NA,NA,1,#D8271C,#741CD8,0,0,0,38,1,426.09999999962747,39,0,368.6000000005588,0,1,experiment,NA,NA,1,0.3,0.7,3,2,199,5,NA
fcp-trial,234,836910,0.0-209.0-0.0,voc_e2,12198,"[{""event"":""fullscreenenter"",""trial"":1,""time"":1902}]",NA,NA,NA,NA,NA,2,#D8271C,#741CD8,0,0,0,38,1,418.5,39,0,390.1000000005588,0,1,experiment,NA,NA,1,0.3,0.7,3,2,200,5,NA
fcp-trial,235,839724,0.0-210.0-0.0,voc_e2,12198,"[{""event"":""fullscreenenter"",""trial"":1,""time"":1902}]",NA,NA,NA,NA,NA,1,#FA92F8,#1CD855,0,10,1,38,1,777.7000000001863,37,1,532.6999999992549,0,1,experiment,NA,NA,2,0.5,0.5,4,5,201,5,NA
fcp-trial,236,842398,0.0-211.0-0.0,voc_e2,12198,"[{""event"":""fullscreenenter"",""trial"":1,""time"":1902}]",NA,NA,NA,NA,NA,6,#3386FF,#D89F1C,10,0,1,38,1,815.4000000003725,37,1,354.40000000037253,10,1,experiment,NA,NA,0,0.9,0.1,0,1,202,5,NA
fcp-trial,237,844525,0.0-212.0-0.0,voc_e2,12198,"[{""event"":""fullscreenenter"",""trial"":1,""time"":1902}]",NA,NA,NA,NA,NA,4,#3386FF,#D89F1C,10,0,1,38,1,338.90000000037253,37,1,285,10,1,experiment,NA,NA,0,0.9,0.1,0,1,203,5,NA
fcp-trial,238,847074,0.0-213.0-0.0,voc_e2,12198,"[{""event"":""fullscreenenter"",""trial"":1,""time"":1902}]",NA,NA,NA,NA,NA,6,#D8271C,#741CD8,10,10,0,38,1,761.7000000001863,39,0,284.09999999962747,10,1,experiment,NA,NA,1,0.3,0.7,3,2,204,5,NA
fcp-trial,239,849610,0.0-214.0-0.0,voc_e2,12198,"[{""event"":""fullscreenenter"",""trial"":1,""time"":1902}]",NA,NA,NA,NA,NA,2,#FA92F8,#1CD855,10,10,1,38,1,601.2000000001863,37,1,431.29999999981374,10,1,experiment,NA,NA,2,0.5,0.5,4,5,205,5,NA
fcp-trial,240,851955,0.0-215.0-0.0,voc_e2,12198,"[{""event"":""fullscreenenter"",""trial"":1,""time"":1902}]",NA,NA,NA,NA,NA,2,#D89F1C,#3386FF,0,10,0,38,1,526,39,0,315.20000000018626,10,1,experiment,NA,NA,0,0.1,0.9,1,0,206,5,NA
fcp-trial,241,854276,0.0-216.0-0.0,voc_e2,12198,"[{""event"":""fullscreenenter"",""trial"":1,""time"":1902}]",NA,NA,NA,NA,NA,0,#1CD855,#FA92F8,0,10,0,38,1,487,39,0,330.70000000018626,10,1,experiment,NA,NA,2,0.5,0.5,5,4,207,5,NA
fcp-trial,242,856816,0.0-217.0-0.0,voc_e2,12198,"[{""event"":""fullscreenenter"",""trial"":1,""time"":1902}]",NA,NA,NA,NA,NA,5,#D8271C,#741CD8,10,0,0,38,1,424.1000000005588,39,0,609.5999999996275,0,1,experiment,NA,NA,1,0.3,0.7,3,2,208,5,NA
fcp-trial,243,859157,0.0-218.0-0.0,voc_e2,12198,"[{""event"":""fullscreenenter"",""trial"":1,""time"":1902}]",NA,NA,NA,NA,NA,3,#1CD855,#FA92F8,10,0,0,38,1,434.79999999981374,39,0,400.90000000037253,0,1,experiment,NA,NA,2,0.5,0.5,5,4,209,5,NA
fcp-trial,244,861550,0.0-219.0-0.0,voc_e2,12198,"[{""event"":""fullscreenenter"",""trial"":1,""time"":1902}]",NA,NA,NA,NA,NA,6,#1CD855,#FA92F8,10,10,0,38,1,591.1000000005588,39,0,298.29999999981374,10,1,experiment,NA,NA,2,0.5,0.5,5,4,210,5,NA
audio-instructions,245,974598,0.0-220.0,voc_e2,12198,"[{""event"":""fullscreenenter"",""trial"":1,""time"":1902}]",NA,108282.2000000002,static/audio/pause.wav,NA,0,NA,NA,NA,NA,NA,NA,NA,NA,NA,NA,NA,NA,NA,NA,NA,NA,NA,NA,NA,NA,NA,NA,NA,NA,NA
fcp-trial,246,978114,0.0-221.0-0.0,voc_e2,12198,"[{""event"":""fullscreenenter"",""trial"":1,""time"":1902}]",NA,NA,NA,NA,NA,1,#741CD8,#D8271C,10,0,1,38,1,1733.7999999998137,37,1,274.40000000037253,10,1,experiment,NA,NA,1,0.7,0.3,2,3,211,5,NA
fcp-trial,247,980347,0.0-222.0-0.0,voc_e2,12198,"[{""event"":""fullscreenenter"",""trial"":1,""time"":1902}]",NA,NA,NA,NA,NA,6,#FA92F8,#1CD855,10,0,1,38,1,418.79999999981374,39,0,310.79999999981374,0,0,experiment,NA,NA,2,0.5,0.5,4,5,212,5,NA
fcp-trial,248,982883,0.0-223.0-0.0,voc_e2,12198,"[{""event"":""fullscreenenter"",""trial"":1,""time"":1902}]",NA,NA,NA,NA,NA,0,#741CD8,#D8271C,10,0,1,38,1,472.70000000018626,37,1,559.2000000001863,10,1,experiment,NA,NA,1,0.7,0.3,2,3,213,5,NA
fcp-trial,249,985643,0.0-224.0-0.0,voc_e2,12198,"[{""event"":""fullscreenenter"",""trial"":1,""time"":1902}]",NA,NA,NA,NA,NA,5,#D89F1C,#3386FF,0,10,0,40,0,786.9000000003725,39,0,464.20000000018626,10,1,experiment,NA,NA,0,0.1,0.9,1,0,214,5,NA
fcp-trial,250,988548,0.0-225.0-0.0,voc_e2,12198,"[{""event"":""fullscreenenter"",""trial"":1,""time"":1902}]",NA,NA,NA,NA,NA,6,#3386FF,#D89F1C,0,0,1,40,0,988.1000000005588,37,1,411.5,0,1,experiment,NA,NA,0,0.9,0.1,0,1,215,5,NA
fcp-trial,251,991740,0.0-226.0-0.0,voc_e2,12198,"[{""event"":""fullscreenenter"",""trial"":1,""time"":1902}]",NA,NA,NA,NA,NA,4,#D8271C,#741CD8,0,10,0,40,0,1151,39,0,537,10,1,experiment,NA,NA,1,0.3,0.7,3,2,216,5,NA
fcp-trial,252,994510,0.0-227.0-0.0,voc_e2,12198,"[{""event"":""fullscreenenter"",""trial"":1,""time"":1902}]",NA,NA,NA,NA,NA,1,#FA92F8,#1CD855,10,0,1,38,1,934.7000000001863,37,1,332,10,1,experiment,NA,NA,2,0.5,0.5,4,5,217,5,NA
fcp-trial,253,997249,0.0-228.0-0.0,voc_e2,12198,"[{""event"":""fullscreenenter"",""trial"":1,""time"":1902}]",NA,NA,NA,NA,NA,6,#D8271C,#741CD8,0,10,0,38,1,405.6000000005588,39,0,828.0999999996275,10,1,experiment,NA,NA,1,0.3,0.7,3,2,218,5,NA
fcp-trial,254,999570,0.0-229.0-0.0,voc_e2,12198,"[{""event"":""fullscreenenter"",""trial"":1,""time"":1902}]",NA,NA,NA,NA,NA,4,#3386FF,#D89F1C,10,0,1,38,1,490.40000000037253,37,1,321.79999999981374,10,1,experiment,NA,NA,0,0.9,0.1,0,1,219,5,NA
fcp-trial,255,1001762,0.0-230.0-0.0,voc_e2,12198,"[{""event"":""fullscreenenter"",""trial"":1,""time"":1902}]",NA,NA,NA,NA,NA,2,#D89F1C,#3386FF,0,10,0,38,1,431.29999999981374,39,0,256.20000000018626,10,1,experiment,NA,NA,0,0.1,0.9,1,0,220,5,NA
fcp-trial,256,1004393,0.0-231.0-0.0,voc_e2,12198,"[{""event"":""fullscreenenter"",""trial"":1,""time"":1902}]",NA,NA,NA,NA,NA,4,#FA92F8,#1CD855,10,10,1,38,1,535,37,1,592.6000000005588,10,1,experiment,NA,NA,2,0.5,0.5,4,5,221,5,NA
fcp-trial,257,1007037,0.0-232.0-0.0,voc_e2,12198,"[{""event"":""fullscreenenter"",""trial"":1,""time"":1902}]",NA,NA,NA,NA,NA,3,#D8271C,#741CD8,10,10,0,38,1,493.79999999981374,39,0,646.7000000001863,10,1,experiment,NA,NA,1,0.3,0.7,3,2,222,5,NA
fcp-trial,258,1022654,0.0-233.0-0.0,voc_e2,12198,"[{""event"":""fullscreenenter"",""trial"":1,""time"":1902}]",NA,NA,NA,NA,NA,3,#D89F1C,#3386FF,0,10,0,38,1,361.70000000018626,null,null,null,NA,0,experiment,NA,NA,0,0.1,0.9,1,0,223,5,NA
fcp-trial,259,1027183,0.0-234.0-0.0,voc_e2,12198,"[{""event"":""fullscreenenter"",""trial"":1,""time"":1902}]",NA,NA,NA,NA,NA,2,#741CD8,#D8271C,10,10,1,38,1,2673.7000000001863,37,1,346.5,10,1,experiment,NA,NA,1,0.7,0.3,2,3,224,5,NA
fcp-trial,260,1030190,0.0-235.0-0.0,voc_e2,12198,"[{""event"":""fullscreenenter"",""trial"":1,""time"":1902}]",NA,NA,NA,NA,NA,5,#FA92F8,#1CD855,0,0,1,38,1,666.6000000005588,37,1,831.7999999998137,0,1,experiment,NA,NA,2,0.5,0.5,4,5,225,5,NA
fcp-trial,261,1039278,0.0-236.0-0.0,voc_e2,12198,"[{""event"":""fullscreenenter"",""trial"":1,""time"":1902}]",NA,NA,NA,NA,NA,3,#1CD855,#FA92F8,10,10,0,38,1,7321.200000000186,39,0,262.70000000018626,10,1,experiment,NA,NA,2,0.5,0.5,5,4,226,6,NA
fcp-trial,262,1042845,0.0-237.0-0.0,voc_e2,12198,"[{""event"":""fullscreenenter"",""trial"":1,""time"":1902}]",NA,NA,NA,NA,NA,5,#741CD8,#D8271C,10,0,1,38,1,506.6000000005588,37,1,1556.7999999998137,10,1,experiment,NA,NA,1,0.7,0.3,2,3,227,6,NA
fcp-trial,263,1045648,0.0-238.0-0.0,voc_e2,12198,"[{""event"":""fullscreenenter"",""trial"":1,""time"":1902}]",NA,NA,NA,NA,NA,0,#3386FF,#D89F1C,10,0,1,38,1,1002.2000000001863,37,1,295.5,10,1,experiment,NA,NA,0,0.9,0.1,0,1,228,6,NA
fcp-trial,264,1048384,0.0-239.0-0.0,voc_e2,12198,"[{""event"":""fullscreenenter"",""trial"":1,""time"":1902}]",NA,NA,NA,NA,NA,1,#3386FF,#D89F1C,10,0,1,38,1,914.1999999992549,37,1,313.69999999925494,10,1,experiment,NA,NA,0,0.9,0.1,0,1,229,6,NA
fcp-trial,265,1051377,0.0-240.0-0.0,voc_e2,12198,"[{""event"":""fullscreenenter"",""trial"":1,""time"":1902}]",NA,NA,NA,NA,NA,0,#FA92F8,#1CD855,0,0,1,38,1,1230.1000000005588,37,1,258,0,1,experiment,NA,NA,2,0.5,0.5,4,5,230,6,NA
fcp-trial,266,1053992,0.0-241.0-0.0,voc_e2,12198,"[{""event"":""fullscreenenter"",""trial"":1,""time"":1902}]",NA,NA,NA,NA,NA,2,#1CD855,#FA92F8,10,0,0,38,1,784.9000000003725,39,0,326.19999999925494,0,1,experiment,NA,NA,2,0.5,0.5,5,4,231,6,NA
fcp-trial,267,1056678,0.0-242.0-0.0,voc_e2,12198,"[{""event"":""fullscreenenter"",""trial"":1,""time"":1902}]",NA,NA,NA,NA,NA,2,#3386FF,#D89F1C,10,0,1,38,1,874.9000000003725,37,1,306.80000000074506,10,1,experiment,NA,NA,0,0.9,0.1,0,1,232,6,NA
fcp-trial,268,1059249,0.0-243.0-0.0,voc_e2,12198,"[{""event"":""fullscreenenter"",""trial"":1,""time"":1902}]",NA,NA,NA,NA,NA,0,#741CD8,#D8271C,10,0,1,38,1,616.9000000003725,37,1,450.19999999925494,10,1,experiment,NA,NA,1,0.7,0.3,2,3,233,6,NA
fcp-trial,269,1062174,0.0-244.0-0.0,voc_e2,12198,"[{""event"":""fullscreenenter"",""trial"":1,""time"":1902}]",NA,NA,NA,NA,NA,5,#741CD8,#D8271C,0,0,1,40,0,991.9000000003725,37,1,424.1000000005588,0,1,experiment,NA,NA,1,0.7,0.3,2,3,234,6,NA
fcp-trial,270,1064832,0.0-245.0-0.0,voc_e2,12198,"[{""event"":""fullscreenenter"",""trial"":1,""time"":1902}]",NA,NA,NA,NA,NA,5,#D89F1C,#3386FF,0,10,0,40,0,686.3000000007451,39,0,467.20000000018626,10,1,experiment,NA,NA,0,0.1,0.9,1,0,235,6,NA
fcp-trial,271,1067986,0.0-246.0-0.0,voc_e2,12198,"[{""event"":""fullscreenenter"",""trial"":1,""time"":1902}]",NA,NA,NA,NA,NA,2,#1CD855,#FA92F8,10,0,0,38,1,1113.6000000005588,39,0,531.7999999998137,0,1,experiment,NA,NA,2,0.5,0.5,5,4,236,6,NA
fcp-trial,272,1071170,0.0-247.0-0.0,voc_e2,12198,"[{""event"":""fullscreenenter"",""trial"":1,""time"":1902}]",NA,NA,NA,NA,NA,1,#D89F1C,#3386FF,0,10,0,38,1,1054.7000000001863,39,0,625.2999999998137,10,1,experiment,NA,NA,0,0.1,0.9,1,0,237,6,NA
fcp-trial,273,1073551,0.0-248.0-0.0,voc_e2,12198,"[{""event"":""fullscreenenter"",""trial"":1,""time"":1902}]",NA,NA,NA,NA,NA,6,#D8271C,#741CD8,10,10,0,38,1,532.2000000001863,39,0,345,10,1,experiment,NA,NA,1,0.3,0.7,3,2,238,6,NA
fcp-trial,274,1076687,0.0-249.0-0.0,voc_e2,12198,"[{""event"":""fullscreenenter"",""trial"":1,""time"":1902}]",NA,NA,NA,NA,NA,1,#FA92F8,#1CD855,10,10,1,38,1,1216.199999999255,37,1,415.6000000005588,10,1,experiment,NA,NA,2,0.5,0.5,4,5,239,6,NA
fcp-trial,275,1079770,0.0-250.0-0.0,voc_e2,12198,"[{""event"":""fullscreenenter"",""trial"":1,""time"":1902}]",NA,NA,NA,NA,NA,4,#FA92F8,#1CD855,0,0,1,40,0,698.6000000005588,39,0,880.1000000005588,0,0,experiment,NA,NA,2,0.5,0.5,4,5,240,6,NA
fcp-trial,276,1082405,0.0-251.0-0.0,voc_e2,12198,"[{""event"":""fullscreenenter"",""trial"":1,""time"":1902}]",NA,NA,NA,NA,NA,1,#741CD8,#D8271C,10,0,1,38,1,749.3999999994412,37,1,382.20000000018626,10,1,experiment,NA,NA,1,0.7,0.3,2,3,241,6,NA
fcp-trial,277,1085091,0.0-252.0-0.0,voc_e2,12198,"[{""event"":""fullscreenenter"",""trial"":1,""time"":1902}]",NA,NA,NA,NA,NA,0,#3386FF,#D89F1C,10,0,1,38,1,743.4000000003725,37,1,439.09999999962747,10,1,experiment,NA,NA,0,0.9,0.1,0,1,242,6,NA
fcp-trial,278,1087613,0.0-253.0-0.0,voc_e2,12198,"[{""event"":""fullscreenenter"",""trial"":1,""time"":1902}]",NA,NA,NA,NA,NA,4,#D8271C,#741CD8,10,0,0,40,0,629.2000000001863,39,0,389.09999999962747,0,1,experiment,NA,NA,1,0.3,0.7,3,2,243,6,NA
fcp-trial,279,1090461,0.0-254.0-0.0,voc_e2,12198,"[{""event"":""fullscreenenter"",""trial"":1,""time"":1902}]",NA,NA,NA,NA,NA,3,#FA92F8,#1CD855,0,0,1,38,1,937.4000000003725,37,1,401,0,1,experiment,NA,NA,2,0.5,0.5,4,5,244,6,NA
fcp-trial,280,1093468,0.0-255.0-0.0,voc_e2,12198,"[{""event"":""fullscreenenter"",""trial"":1,""time"":1902}]",NA,NA,NA,NA,NA,6,#3386FF,#D89F1C,10,0,1,40,0,881.5,39,0,622.7000000001863,0,0,experiment,NA,NA,0,0.9,0.1,0,1,245,6,NA
fcp-trial,281,1096135,0.0-256.0-0.0,voc_e2,12198,"[{""event"":""fullscreenenter"",""trial"":1,""time"":1902}]",NA,NA,NA,NA,NA,0,#FA92F8,#1CD855,10,10,1,38,1,771.1999999992549,37,1,390.8999999994412,10,1,experiment,NA,NA,2,0.5,0.5,4,5,246,6,NA
fcp-trial,282,1098926,0.0-257.0-0.0,voc_e2,12198,"[{""event"":""fullscreenenter"",""trial"":1,""time"":1902}]",NA,NA,NA,NA,NA,3,#741CD8,#D8271C,0,0,1,38,1,955,37,1,331.70000000018626,0,1,experiment,NA,NA,1,0.7,0.3,2,3,247,6,NA
fcp-trial,283,1101329,0.0-258.0-0.0,voc_e2,12198,"[{""event"":""fullscreenenter"",""trial"":1,""time"":1902}]",NA,NA,NA,NA,NA,6,#1CD855,#FA92F8,0,0,0,38,1,469.40000000037253,39,0,429.69999999925494,0,1,experiment,NA,NA,2,0.5,0.5,5,4,248,6,NA
fcp-trial,284,1103587,0.0-259.0-0.0,voc_e2,12198,"[{""event"":""fullscreenenter"",""trial"":1,""time"":1902}]",NA,NA,NA,NA,NA,4,#3386FF,#D89F1C,10,0,1,38,1,317.59999999962747,37,1,435.30000000074506,10,1,experiment,NA,NA,0,0.9,0.1,0,1,249,6,NA
fcp-trial,285,1105903,0.0-260.0-0.0,voc_e2,12198,"[{""event"":""fullscreenenter"",""trial"":1,""time"":1902}]",NA,NA,NA,NA,NA,5,#1CD855,#FA92F8,10,10,0,38,1,544.7000000001863,37,1,267.29999999981374,10,0,experiment,NA,NA,2,0.5,0.5,5,4,250,6,NA
fcp-trial,286,1108312,0.0-261.0-0.0,voc_e2,12198,"[{""event"":""fullscreenenter"",""trial"":1,""time"":1902}]",NA,NA,NA,NA,NA,2,#D8271C,#741CD8,0,0,0,38,1,553.8999999994412,37,1,350.59999999962747,0,0,experiment,NA,NA,1,0.3,0.7,3,2,251,6,NA
fcp-trial,287,1110546,0.0-262.0-0.0,voc_e2,12198,"[{""event"":""fullscreenenter"",""trial"":1,""time"":1902}]",NA,NA,NA,NA,NA,3,#D89F1C,#3386FF,0,10,0,38,1,339,39,0,391.40000000037253,10,1,experiment,NA,NA,0,0.1,0.9,1,0,252,6,NA
fcp-trial,288,1112744,0.0-263.0-0.0,voc_e2,12198,"[{""event"":""fullscreenenter"",""trial"":1,""time"":1902}]",NA,NA,NA,NA,NA,6,#D89F1C,#3386FF,10,10,0,38,1,312.40000000037253,39,0,381.70000000018626,10,1,experiment,NA,NA,0,0.1,0.9,1,0,253,6,NA
fcp-trial,289,1115384,0.0-264.0-0.0,voc_e2,12198,"[{""event"":""fullscreenenter"",""trial"":1,""time"":1902}]",NA,NA,NA,NA,NA,3,#1CD855,#FA92F8,10,10,0,38,1,744.7999999998137,39,0,390.09999999962747,10,1,experiment,NA,NA,2,0.5,0.5,5,4,254,6,NA
fcp-trial,290,1118030,0.0-265.0-0.0,voc_e2,12198,"[{""event"":""fullscreenenter"",""trial"":1,""time"":1902}]",NA,NA,NA,NA,NA,6,#1CD855,#FA92F8,10,10,0,40,0,751.1999999992549,39,0,390.6000000005588,10,1,experiment,NA,NA,2,0.5,0.5,5,4,255,6,NA
fcp-trial,291,1120767,0.0-266.0-0.0,voc_e2,12198,"[{""event"":""fullscreenenter"",""trial"":1,""time"":1902}]",NA,NA,NA,NA,NA,5,#741CD8,#D8271C,10,0,1,40,0,773.8999999994412,39,0,454.29999999981374,0,0,experiment,NA,NA,1,0.7,0.3,2,3,256,6,NA
fcp-trial,292,1123334,0.0-267.0-0.0,voc_e2,12198,"[{""event"":""fullscreenenter"",""trial"":1,""time"":1902}]",NA,NA,NA,NA,NA,1,#D89F1C,#3386FF,0,10,0,38,1,684.7999999998137,39,0,375.90000000037253,10,1,experiment,NA,NA,0,0.1,0.9,1,0,257,6,NA
fcp-trial,293,1126138,0.0-268.0-0.0,voc_e2,12198,"[{""event"":""fullscreenenter"",""trial"":1,""time"":1902}]",NA,NA,NA,NA,NA,1,#D8271C,#741CD8,0,10,0,38,1,696.2000000001863,39,0,603.9000000003725,10,1,experiment,NA,NA,1,0.3,0.7,3,2,258,6,NA
fcp-trial,294,1128945,0.0-269.0-0.0,voc_e2,12198,"[{""event"":""fullscreenenter"",""trial"":1,""time"":1902}]",NA,NA,NA,NA,NA,2,#D8271C,#741CD8,0,10,0,38,1,693.9000000003725,39,0,608.7000000001863,10,1,experiment,NA,NA,1,0.3,0.7,3,2,259,6,NA
fcp-trial,295,1131394,0.0-270.0-0.0,voc_e2,12198,"[{""event"":""fullscreenenter"",""trial"":1,""time"":1902}]",NA,NA,NA,NA,NA,4,#FA92F8,#1CD855,10,0,1,38,1,530.3000000007451,37,1,414.90000000037253,10,1,experiment,NA,NA,2,0.5,0.5,4,5,260,6,NA
fcp-trial,296,1133936,0.0-271.0-0.0,voc_e2,12198,"[{""event"":""fullscreenenter"",""trial"":1,""time"":1902}]",NA,NA,NA,NA,NA,2,#D89F1C,#3386FF,0,10,0,38,1,617.2999999998137,39,0,420.3999999994412,10,1,experiment,NA,NA,0,0.1,0.9,1,0,261,6,NA
fcp-trial,297,1136385,0.0-272.0-0.0,voc_e2,12198,"[{""event"":""fullscreenenter"",""trial"":1,""time"":1902}]",NA,NA,NA,NA,NA,5,#1CD855,#FA92F8,10,0,0,38,1,492.90000000037253,39,0,452.8999999994412,0,1,experiment,NA,NA,2,0.5,0.5,5,4,262,6,NA
fcp-trial,298,1138642,0.0-273.0-0.0,voc_e2,12198,"[{""event"":""fullscreenenter"",""trial"":1,""time"":1902}]",NA,NA,NA,NA,NA,4,#D89F1C,#3386FF,0,10,0,38,1,372.79999999981374,39,0,380.40000000037253,10,1,experiment,NA,NA,0,0.1,0.9,1,0,263,6,NA
fcp-trial,299,1141893,0.0-274.0-0.0,voc_e2,12198,"[{""event"":""fullscreenenter"",""trial"":1,""time"":1902}]",NA,NA,NA,NA,NA,6,#D8271C,#741CD8,0,10,0,40,0,1389.3999999994412,39,0,357.09999999962747,10,1,experiment,NA,NA,1,0.3,0.7,3,2,264,6,NA
fcp-trial,300,1145318,0.0-275.0-0.0,voc_e2,12198,"[{""event"":""fullscreenenter"",""trial"":1,""time"":1902}]",NA,NA,NA,NA,NA,0,#D8271C,#741CD8,10,10,0,40,0,748.9000000003725,37,1,1171.2000000001863,10,0,experiment,NA,NA,1,0.3,0.7,3,2,265,6,NA
fcp-trial,301,1148209,0.0-276.0-0.0,voc_e2,12198,"[{""event"":""fullscreenenter"",""trial"":1,""time"":1902}]",NA,NA,NA,NA,NA,2,#1CD855,#FA92F8,0,0,0,38,1,1071,39,0,315.80000000074506,0,1,experiment,NA,NA,2,0.5,0.5,5,4,266,6,NA
fcp-trial,302,1150976,0.0-277.0-0.0,voc_e2,12198,"[{""event"":""fullscreenenter"",""trial"":1,""time"":1902}]",NA,NA,NA,NA,NA,5,#D89F1C,#3386FF,10,10,0,40,0,605.9000000003725,37,1,658.2000000001863,10,0,experiment,NA,NA,0,0.1,0.9,1,0,267,6,NA
fcp-trial,303,1154700,0.0-278.0-0.0,voc_e2,12198,"[{""event"":""fullscreenenter"",""trial"":1,""time"":1902}]",NA,NA,NA,NA,NA,3,#D89F1C,#3386FF,0,0,0,38,1,1849.8999999994412,39,0,369.5,0,1,experiment,NA,NA,0,0.1,0.9,1,0,268,6,NA
fcp-trial,304,1157059,0.0-279.0-0.0,voc_e2,12198,"[{""event"":""fullscreenenter"",""trial"":1,""time"":1902}]",NA,NA,NA,NA,NA,4,#D8271C,#741CD8,0,10,0,38,1,510.1000000005588,39,0,345,10,1,experiment,NA,NA,1,0.3,0.7,3,2,269,6,NA
fcp-trial,305,1159685,0.0-280.0-0.0,voc_e2,12198,"[{""event"":""fullscreenenter"",""trial"":1,""time"":1902}]",NA,NA,NA,NA,NA,3,#D8271C,#741CD8,0,10,0,38,1,560.5999999996275,39,0,561.2000000001863,10,1,experiment,NA,NA,1,0.3,0.7,3,2,270,6,NA
fcp-trial,306,1163056,0.0-281.0-0.0,voc_e2,12198,"[{""event"":""fullscreenenter"",""trial"":1,""time"":1902}]",NA,NA,NA,NA,NA,0,#1CD855,#FA92F8,0,10,0,38,1,732.7999999998137,39,0,1134.1000000005588,10,1,experiment,NA,NA,2,0.5,0.5,5,4,271,7,NA
fcp-trial,307,1165968,0.0-282.0-0.0,voc_e2,12198,"[{""event"":""fullscreenenter"",""trial"":1,""time"":1902}]",NA,NA,NA,NA,NA,0,#3386FF,#D89F1C,10,0,1,38,1,821.2999999998137,37,1,586.8000000007451,10,1,experiment,NA,NA,0,0.9,0.1,0,1,272,7,NA
fcp-trial,308,1168868,0.0-283.0-0.0,voc_e2,12198,"[{""event"":""fullscreenenter"",""trial"":1,""time"":1902}]",NA,NA,NA,NA,NA,1,#FA92F8,#1CD855,0,10,1,38,1,936.2999999998137,39,0,460.09999999962747,10,0,experiment,NA,NA,2,0.5,0.5,4,5,273,7,NA
fcp-trial,309,1171462,0.0-284.0-0.0,voc_e2,12198,"[{""event"":""fullscreenenter"",""trial"":1,""time"":1902}]",NA,NA,NA,NA,NA,0,#D89F1C,#3386FF,0,10,0,38,1,717.6000000005588,39,0,372.29999999981374,10,1,experiment,NA,NA,0,0.1,0.9,1,0,274,7,NA
fcp-trial,310,1173964,0.0-285.0-0.0,voc_e2,12198,"[{""event"":""fullscreenenter"",""trial"":1,""time"":1902}]",NA,NA,NA,NA,NA,5,#D8271C,#741CD8,0,0,0,38,1,581.8999999994412,39,0,411.30000000074506,0,1,experiment,NA,NA,1,0.3,0.7,3,2,275,7,NA
fcp-trial,311,1176869,0.0-286.0-0.0,voc_e2,12198,"[{""event"":""fullscreenenter"",""trial"":1,""time"":1902}]",NA,NA,NA,NA,NA,2,#D8271C,#741CD8,0,10,0,38,1,906.3999999994412,39,0,491,10,1,experiment,NA,NA,1,0.3,0.7,3,2,276,7,NA
fcp-trial,312,1180184,0.0-287.0-0.0,voc_e2,12198,"[{""event"":""fullscreenenter"",""trial"":1,""time"":1902}]",NA,NA,NA,NA,NA,3,#1CD855,#FA92F8,10,10,0,40,0,1435.2000000001863,39,0,374.09999999962747,10,1,experiment,NA,NA,2,0.5,0.5,5,4,277,7,NA
fcp-trial,313,1182718,0.0-288.0-0.0,voc_e2,12198,"[{""event"":""fullscreenenter"",""trial"":1,""time"":1902}]",NA,NA,NA,NA,NA,6,#3386FF,#D89F1C,0,0,1,38,1,654.4000000003725,37,1,376.1000000005588,0,1,experiment,NA,NA,0,0.9,0.1,0,1,278,7,NA
fcp-trial,314,1185451,0.0-289.0-0.0,voc_e2,12198,"[{""event"":""fullscreenenter"",""trial"":1,""time"":1902}]",NA,NA,NA,NA,NA,6,#FA92F8,#1CD855,10,0,1,40,0,723.7000000001863,39,0,504.70000000018626,0,0,experiment,NA,NA,2,0.5,0.5,4,5,279,7,NA
fcp-trial,315,1188707,0.0-290.0-0.0,voc_e2,12198,"[{""event"":""fullscreenenter"",""trial"":1,""time"":1902}]",NA,NA,NA,NA,NA,1,#D89F1C,#3386FF,10,10,0,38,1,1394.6000000005588,37,1,356.90000000037253,10,0,experiment,NA,NA,0,0.1,0.9,1,0,280,7,NA
fcp-trial,316,1191022,0.0-291.0-0.0,voc_e2,12198,"[{""event"":""fullscreenenter"",""trial"":1,""time"":1902}]",NA,NA,NA,NA,NA,3,#741CD8,#D8271C,10,10,1,38,1,472.90000000037253,37,1,338.40000000037253,10,1,experiment,NA,NA,1,0.7,0.3,2,3,281,7,NA
fcp-trial,317,1193562,0.0-292.0-0.0,voc_e2,12198,"[{""event"":""fullscreenenter"",""trial"":1,""time"":1902}]",NA,NA,NA,NA,NA,1,#741CD8,#D8271C,10,0,1,38,1,727.6000000005588,37,1,308.59999999962747,10,1,experiment,NA,NA,1,0.7,0.3,2,3,282,7,NA
fcp-trial,318,1196309,0.0-293.0-0.0,voc_e2,12198,"[{""event"":""fullscreenenter"",""trial"":1,""time"":1902}]",NA,NA,NA,NA,NA,5,#3386FF,#D89F1C,10,0,1,38,1,826,37,1,410.29999999981374,10,1,experiment,NA,NA,0,0.9,0.1,0,1,283,7,NA
fcp-trial,319,1199455,0.0-294.0-0.0,voc_e2,12198,"[{""event"":""fullscreenenter"",""trial"":1,""time"":1902}]",NA,NA,NA,NA,NA,0,#FA92F8,#1CD855,10,10,1,38,1,807.5999999996275,37,1,833.6000000005588,10,1,experiment,NA,NA,2,0.5,0.5,4,5,284,7,NA
fcp-trial,320,1201975,0.0-295.0-0.0,voc_e2,12198,"[{""event"":""fullscreenenter"",""trial"":1,""time"":1902}]",NA,NA,NA,NA,NA,3,#D89F1C,#3386FF,0,0,0,38,1,614.2000000001863,39,0,402.70000000018626,0,1,experiment,NA,NA,0,0.1,0.9,1,0,285,7,NA
fcp-trial,321,1204633,0.0-296.0-0.0,voc_e2,12198,"[{""event"":""fullscreenenter"",""trial"":1,""time"":1902}]",NA,NA,NA,NA,NA,2,#1CD855,#FA92F8,10,0,0,38,1,649.2999999998137,39,0,503.79999999981374,0,1,experiment,NA,NA,2,0.5,0.5,5,4,286,7,NA
fcp-trial,322,1207009,0.0-297.0-0.0,voc_e2,12198,"[{""event"":""fullscreenenter"",""trial"":1,""time"":1902}]",NA,NA,NA,NA,NA,4,#741CD8,#D8271C,10,10,1,38,1,513.8999999994412,37,1,358.1000000005588,10,1,experiment,NA,NA,1,0.7,0.3,2,3,287,7,NA
fcp-trial,323,1209406,0.0-298.0-0.0,voc_e2,12198,"[{""event"":""fullscreenenter"",""trial"":1,""time"":1902}]",NA,NA,NA,NA,NA,4,#D89F1C,#3386FF,0,10,0,38,1,504.79999999981374,39,0,388.1000000005588,10,1,experiment,NA,NA,0,0.1,0.9,1,0,288,7,NA
fcp-trial,324,1211638,0.0-299.0-0.0,voc_e2,12198,"[{""event"":""fullscreenenter"",""trial"":1,""time"":1902}]",NA,NA,NA,NA,NA,0,#741CD8,#D8271C,10,0,1,38,1,388.19999999925494,37,1,340.09999999962747,10,1,experiment,NA,NA,1,0.7,0.3,2,3,289,7,NA
fcp-trial,325,1214117,0.0-300.0-0.0,voc_e2,12198,"[{""event"":""fullscreenenter"",""trial"":1,""time"":1902}]",NA,NA,NA,NA,NA,5,#1CD855,#FA92F8,0,0,0,38,1,638.2999999998137,39,0,337,0,1,experiment,NA,NA,2,0.5,0.5,5,4,290,7,NA
fcp-trial,326,1217217,0.0-301.0-0.0,voc_e2,12198,"[{""event"":""fullscreenenter"",""trial"":1,""time"":1902}]",NA,NA,NA,NA,NA,2,#3386FF,#D89F1C,10,0,1,38,1,1313,37,1,283.40000000037253,10,1,experiment,NA,NA,0,0.9,0.1,0,1,291,7,NA
fcp-trial,327,1219877,0.0-302.0-0.0,voc_e2,12198,"[{""event"":""fullscreenenter"",""trial"":1,""time"":1902}]",NA,NA,NA,NA,NA,6,#741CD8,#D8271C,10,0,1,40,0,733.5999999996275,39,0,422,0,0,experiment,NA,NA,1,0.7,0.3,2,3,292,7,NA
fcp-trial,328,1223112,0.0-303.0-0.0,voc_e2,12198,"[{""event"":""fullscreenenter"",""trial"":1,""time"":1902}]",NA,NA,NA,NA,NA,1,#FA92F8,#1CD855,10,10,1,38,1,1451.7000000001863,37,1,278.09999999962747,10,1,experiment,NA,NA,2,0.5,0.5,4,5,293,7,NA
fcp-trial,329,1226482,0.0-304.0-0.0,voc_e2,12198,"[{""event"":""fullscreenenter"",""trial"":1,""time"":1902}]",NA,NA,NA,NA,NA,4,#FA92F8,#1CD855,0,0,1,40,0,1264.8999999994412,37,1,595.0999999996275,0,1,experiment,NA,NA,2,0.5,0.5,4,5,294,7,NA
fcp-trial,330,1229528,0.0-305.0-0.0,voc_e2,12198,"[{""event"":""fullscreenenter"",""trial"":1,""time"":1902}]",NA,NA,NA,NA,NA,4,#3386FF,#D89F1C,10,0,1,38,1,856.4000000003725,37,1,685.2000000001863,10,1,experiment,NA,NA,0,0.9,0.1,0,1,295,7,NA
fcp-trial,331,1232566,0.0-306.0-0.0,voc_e2,12198,"[{""event"":""fullscreenenter"",""trial"":1,""time"":1902}]",NA,NA,NA,NA,NA,0,#741CD8,#D8271C,10,10,1,38,1,1040.3999999994412,37,1,488.80000000074506,10,1,experiment,NA,NA,1,0.7,0.3,2,3,296,7,NA
fcp-trial,332,1235028,0.0-307.0-0.0,voc_e2,12198,"[{""event"":""fullscreenenter"",""trial"":1,""time"":1902}]",NA,NA,NA,NA,NA,1,#741CD8,#D8271C,10,10,1,38,1,507.20000000018626,37,1,451.09999999962747,10,1,experiment,NA,NA,1,0.7,0.3,2,3,297,7,NA
fcp-trial,333,1237742,0.0-308.0-0.0,voc_e2,12198,"[{""event"":""fullscreenenter"",""trial"":1,""time"":1902}]",NA,NA,NA,NA,NA,4,#741CD8,#D8271C,10,0,1,38,1,883.5999999996275,37,1,321.5,10,1,experiment,NA,NA,1,0.7,0.3,2,3,298,7,NA
fcp-trial,334,1240201,0.0-309.0-0.0,voc_e2,12198,"[{""event"":""fullscreenenter"",""trial"":1,""time"":1902}]",NA,NA,NA,NA,NA,5,#D89F1C,#3386FF,0,10,0,38,1,546.2999999998137,39,0,408.20000000018626,10,1,experiment,NA,NA,0,0.1,0.9,1,0,299,7,NA
fcp-trial,335,1242682,0.0-310.0-0.0,voc_e2,12198,"[{""event"":""fullscreenenter"",""trial"":1,""time"":1902}]",NA,NA,NA,NA,NA,0,#D89F1C,#3386FF,0,10,0,38,1,640.2000000001863,39,0,335.59999999962747,10,1,experiment,NA,NA,0,0.1,0.9,1,0,300,7,NA
fcp-trial,336,1245151,0.0-311.0-0.0,voc_e2,12198,"[{""event"":""fullscreenenter"",""trial"":1,""time"":1902}]",NA,NA,NA,NA,NA,5,#FA92F8,#1CD855,10,10,1,38,1,581.8999999994412,37,1,384,10,1,experiment,NA,NA,2,0.5,0.5,4,5,301,7,NA
fcp-trial,337,1247469,0.0-312.0-0.0,voc_e2,12198,"[{""event"":""fullscreenenter"",""trial"":1,""time"":1902}]",NA,NA,NA,NA,NA,1,#3386FF,#D89F1C,10,0,1,38,1,471.09999999962747,37,1,342.90000000037253,10,1,experiment,NA,NA,0,0.9,0.1,0,1,302,7,NA
fcp-trial,338,1249836,0.0-313.0-0.0,voc_e2,12198,"[{""event"":""fullscreenenter"",""trial"":1,""time"":1902}]",NA,NA,NA,NA,NA,5,#D8271C,#741CD8,0,10,0,38,1,385,39,0,477.90000000037253,10,1,experiment,NA,NA,1,0.3,0.7,3,2,303,7,NA
fcp-trial,339,1252075,0.0-314.0-0.0,voc_e2,12198,"[{""event"":""fullscreenenter"",""trial"":1,""time"":1902}]",NA,NA,NA,NA,NA,6,#D89F1C,#3386FF,0,10,0,38,1,409.09999999962747,39,0,325.40000000037253,10,1,experiment,NA,NA,0,0.1,0.9,1,0,304,7,NA
fcp-trial,340,1254657,0.0-315.0-0.0,voc_e2,12198,"[{""event"":""fullscreenenter"",""trial"":1,""time"":1902}]",NA,NA,NA,NA,NA,0,#1CD855,#FA92F8,0,0,0,38,1,801,39,0,277.3999999994412,0,1,experiment,NA,NA,2,0.5,0.5,5,4,305,7,NA
fcp-trial,341,1257817,0.0-316.0-0.0,voc_e2,12198,"[{""event"":""fullscreenenter"",""trial"":1,""time"":1902}]",NA,NA,NA,NA,NA,6,#1CD855,#FA92F8,0,0,0,38,1,1151.1000000005588,39,0,504.40000000037253,0,1,experiment,NA,NA,2,0.5,0.5,5,4,306,7,NA
fcp-trial,342,1260383,0.0-317.0-0.0,voc_e2,12198,"[{""event"":""fullscreenenter"",""trial"":1,""time"":1902}]",NA,NA,NA,NA,NA,1,#1CD855,#FA92F8,0,10,0,38,1,696.2999999998137,39,0,366.20000000018626,10,1,experiment,NA,NA,2,0.5,0.5,5,4,307,7,NA
fcp-trial,343,1262692,0.0-318.0-0.0,voc_e2,12198,"[{""event"":""fullscreenenter"",""trial"":1,""time"":1902}]",NA,NA,NA,NA,NA,2,#D8271C,#741CD8,0,10,0,38,1,508.1000000005588,39,0,296.80000000074506,10,1,experiment,NA,NA,1,0.3,0.7,3,2,308,7,NA
fcp-trial,344,1265204,0.0-319.0-0.0,voc_e2,12198,"[{""event"":""fullscreenenter"",""trial"":1,""time"":1902}]",NA,NA,NA,NA,NA,2,#3386FF,#D89F1C,0,0,1,38,1,628.2000000001863,37,1,381,0,1,experiment,NA,NA,0,0.9,0.1,0,1,309,7,NA
fcp-trial,345,1267590,0.0-320.0-0.0,voc_e2,12198,"[{""event"":""fullscreenenter"",""trial"":1,""time"":1902}]",NA,NA,NA,NA,NA,4,#FA92F8,#1CD855,0,0,1,38,1,528.6999999992549,37,1,352.70000000018626,0,1,experiment,NA,NA,2,0.5,0.5,4,5,310,7,NA
fcp-trial,346,1270029,0.0-321.0-0.0,voc_e2,12198,"[{""event"":""fullscreenenter"",""trial"":1,""time"":1902}]",NA,NA,NA,NA,NA,3,#FA92F8,#1CD855,0,10,1,38,1,576,37,1,359.1000000005588,0,1,experiment,NA,NA,2,0.5,0.5,4,5,311,7,NA
fcp-trial,347,1272434,0.0-322.0-0.0,voc_e2,12198,"[{""event"":""fullscreenenter"",""trial"":1,""time"":1902}]",NA,NA,NA,NA,NA,2,#1CD855,#FA92F8,0,0,0,38,1,487.1000000005588,39,0,409.3999999994412,0,1,experiment,NA,NA,2,0.5,0.5,5,4,312,7,NA
fcp-trial,348,1275146,0.0-323.0-0.0,voc_e2,12198,"[{""event"":""fullscreenenter"",""trial"":1,""time"":1902}]",NA,NA,NA,NA,NA,3,#D8271C,#741CD8,0,10,0,38,1,773.3999999994412,39,0,434.1000000005588,10,1,experiment,NA,NA,1,0.3,0.7,3,2,313,7,NA
fcp-trial,349,1277537,0.0-324.0-0.0,voc_e2,12198,"[{""event"":""fullscreenenter"",""trial"":1,""time"":1902}]",NA,NA,NA,NA,NA,3,#3386FF,#D89F1C,10,0,1,38,1,538.7999999998137,37,1,343.40000000037253,10,1,experiment,NA,NA,0,0.9,0.1,0,1,314,7,NA
fcp-trial,350,1279986,0.0-325.0-0.0,voc_e2,12198,"[{""event"":""fullscreenenter"",""trial"":1,""time"":1902}]",NA,NA,NA,NA,NA,6,#741CD8,#D8271C,10,0,1,38,1,533.1000000005588,37,1,411.8999999994412,10,1,experiment,NA,NA,1,0.7,0.3,2,3,315,7,NA
audio-instructions,351,1310123,0.0-326.0,voc_e2,12198,"[{""event"":""fullscreenenter"",""trial"":1,""time"":1902}]",NA,24181.099999999627,static/audio/finished.wav,NA,0,NA,NA,NA,NA,NA,NA,NA,NA,NA,NA,NA,NA,NA,NA,NA,NA,NA,NA,NA,NA,NA,NA,NA,NA,NA
audio-instructions,352,1323691,0.0-327.0-0.0,voc_e2,12198,"[{""event"":""fullscreenenter"",""trial"":1,""time"":1902}]",NA,2730,static/audio/explicit1.wav,NA,0,NA,NA,NA,NA,NA,NA,NA,NA,NA,NA,NA,NA,NA,NA,NA,NA,NA,NA,NA,NA,NA,NA,NA,NA,NA
audio-instructions,353,1332037,0.0-327.0-1.0,voc_e2,12198,"[{""event"":""fullscreenenter"",""trial"":1,""time"":1902}]",NA,751.1999999992549,static/audio/explicit2.wav,NA,0,NA,NA,NA,NA,NA,NA,NA,NA,NA,NA,NA,NA,NA,NA,NA,NA,NA,NA,NA,NA,NA,NA,NA,NA,NA
image-slider-response,354,1342977,0.0-328.0,voc_e2,12198,"[{""event"":""fullscreenenter"",""trial"":1,""time"":1902}]",NA,10936.599999999627,static/img/machines/machine2.png,NA,NA,NA,NA,NA,NA,NA,NA,NA,NA,NA,NA,NA,NA,NA,NA,explicit,NA,NA,NA,NA,NA,NA,NA,NA,NA,7
image-slider-response,355,1351381,0.0-329.0,voc_e2,12198,"[{""event"":""fullscreenenter"",""trial"":1,""time"":1902}]",NA,8401.5,static/img/machines/machine3.png,NA,NA,NA,NA,NA,NA,NA,NA,NA,NA,NA,NA,NA,NA,NA,NA,explicit,NA,NA,NA,NA,NA,NA,NA,NA,NA,6
image-slider-response,356,1358344,0.0-330.0,voc_e2,12198,"[{""event"":""fullscreenenter"",""trial"":1,""time"":1902}]",NA,6960.5,static/img/machines/machine1.png,NA,NA,NA,NA,NA,NA,NA,NA,NA,NA,NA,NA,NA,NA,NA,NA,explicit,NA,NA,NA,NA,NA,NA,NA,NA,NA,4
image-slider-response,357,1365062,0.0-331.0,voc_e2,12198,"[{""event"":""fullscreenenter"",""trial"":1,""time"":1902}]",NA,6715.200000000186,static/img/machines/machine4.png,NA,NA,NA,NA,NA,NA,NA,NA,NA,NA,NA,NA,NA,NA,NA,NA,explicit,NA,NA,NA,NA,NA,NA,NA,NA,NA,3
image-slider-response,358,1371362,0.0-332.0,voc_e2,12198,"[{""event"":""fullscreenenter"",""trial"":1,""time"":1902}]",NA,6297.4000000003725,static/img/machines/machine6.png,NA,NA,NA,NA,NA,NA,NA,NA,NA,NA,NA,NA,NA,NA,NA,NA,explicit,NA,NA,NA,NA,NA,NA,NA,NA,NA,4
image-slider-response,359,1377523,0.0-333.0,voc_e2,12198,"[{""event"":""fullscreenenter"",""trial"":1,""time"":1902}]",NA,6158,static/img/machines/machine5.png,NA,NA,NA,NA,NA,NA,NA,NA,NA,NA,NA,NA,NA,NA,NA,NA,explicit,NA,NA,NA,NA,NA,NA,NA,NA,NA,6
