trial_type,trial_index,time_elapsed,internal_node_id,task_version,subject_id,interactions,success,rt,stimulus,key_press,button_pressed,offer,arcade_color_L,arcade_color_R,arcade_outcome_L,arcade_outcome_R,correct,stage_1_key,stage_1_choice,stage_1_rt,stage_2_key,stage_2_choice,stage_2_rt,stage_3_outcome,accuracy,phase,responses,num_errors,context,reward_prob_L,reward_prob_R,arcade_id_L,arcade_id_R,trial,block,response
pavlovia,0,5,0.0-0.0,voc_e2,11802,[],NA,NA,NA,NA,NA,NA,NA,NA,NA,NA,NA,NA,NA,NA,NA,NA,NA,NA,NA,NA,NA,NA,NA,NA,NA,NA,NA,NA,NA,NA
fullscreen,1,6416,0.0-1.0,voc_e2,11802,"[{""event"":""fullscreenenter"",""trial"":1,""time"":5420}]",TRUE,NA,NA,NA,NA,NA,NA,NA,NA,NA,NA,NA,NA,NA,NA,NA,NA,NA,NA,NA,NA,NA,NA,NA,NA,NA,NA,NA,NA,NA
audio-keyboard-response,2,9120,0.0-2.0,voc_e2,11802,"[{""event"":""fullscreenenter"",""trial"":1,""time"":5420}]",NA,2651,static/audio/beep_loop.wav,32,NA,NA,NA,NA,NA,NA,NA,NA,NA,NA,NA,NA,NA,NA,NA,NA,NA,NA,NA,NA,NA,NA,NA,NA,NA,NA
audio-test,3,10972,0.0-3.0,voc_e2,11802,"[{""event"":""fullscreenenter"",""trial"":1,""time"":5420}]",NA,NA,static/audio/turtle.wav,NA,3,NA,NA,NA,NA,NA,NA,NA,NA,NA,NA,NA,NA,NA,NA,NA,NA,NA,NA,NA,NA,NA,NA,NA,NA,NA
audio-test,4,12917,0.0-4.0,voc_e2,11802,"[{""event"":""fullscreenenter"",""trial"":1,""time"":5420}]",NA,NA,static/audio/shark.wav,NA,2,NA,NA,NA,NA,NA,NA,NA,NA,NA,NA,NA,NA,NA,NA,NA,NA,NA,NA,NA,NA,NA,NA,NA,NA,NA
audio-instructions,5,19966,0.0-5.0-0.0,voc_e2,11802,"[{""event"":""fullscreenenter"",""trial"":1,""time"":5420}]",NA,1260.7000000476835,static/audio/instructions1.wav,NA,0,NA,NA,NA,NA,NA,NA,NA,NA,NA,NA,NA,NA,NA,NA,NA,NA,NA,NA,NA,NA,NA,NA,NA,NA,NA
audio-instructions,6,28130,0.0-5.0-1.0,voc_e2,11802,"[{""event"":""fullscreenenter"",""trial"":1,""time"":5420}]",NA,1414.7999999523165,static/audio/instructions2.wav,NA,0,NA,NA,NA,NA,NA,NA,NA,NA,NA,NA,NA,NA,NA,NA,NA,NA,NA,NA,NA,NA,NA,NA,NA,NA,NA
audio-instructions,7,35315,0.0-5.0-2.0,voc_e2,11802,"[{""event"":""fullscreenenter"",""trial"":1,""time"":5420}]",NA,1379.7999999523165,static/audio/instructions3.wav,NA,0,NA,NA,NA,NA,NA,NA,NA,NA,NA,NA,NA,NA,NA,NA,NA,NA,NA,NA,NA,NA,NA,NA,NA,NA,NA
audio-instructions,8,50456,0.0-5.0-3.0,voc_e2,11802,"[{""event"":""fullscreenenter"",""trial"":1,""time"":5420}]",NA,1911.5,static/audio/instructions4.wav,NA,0,NA,NA,NA,NA,NA,NA,NA,NA,NA,NA,NA,NA,NA,NA,NA,NA,NA,NA,NA,NA,NA,NA,NA,NA,NA
audio-instructions,9,61035,0.0-5.0-4.0,voc_e2,11802,"[{""event"":""fullscreenenter"",""trial"":1,""time"":5420}]",NA,1190.3000000715256,static/audio/instructions5.wav,NA,0,NA,NA,NA,NA,NA,NA,NA,NA,NA,NA,NA,NA,NA,NA,NA,NA,NA,NA,NA,NA,NA,NA,NA,NA,NA
fcp-practice,10,73041,0.0-5.0-5.0-0.0,voc_e2,11802,"[{""event"":""fullscreenenter"",""trial"":1,""time"":5420}]",NA,NA,NA,NA,NA,NA,#EDC948,#46d3c8,10,0,1,null,null,null,37,1,10495.099999904633,10,1,practice,NA,NA,NA,NA,NA,NA,NA,NA,NA,NA
fcp-practice,11,74988,0.0-5.0-5.0-1.0,voc_e2,11802,"[{""event"":""fullscreenenter"",""trial"":1,""time"":5420}]",NA,NA,NA,NA,NA,NA,#EDC948,#46d3c8,10,0,1,null,null,null,37,1,444.7999999523163,10,1,practice,NA,NA,NA,NA,NA,NA,NA,NA,NA,NA
fcp-practice,12,76832,0.0-5.0-5.0-2.0,voc_e2,11802,"[{""event"":""fullscreenenter"",""trial"":1,""time"":5420}]",NA,NA,NA,NA,NA,NA,#EDC948,#46d3c8,0,10,1,null,null,null,37,1,337.10000002384186,0,1,practice,NA,NA,NA,NA,NA,NA,NA,NA,NA,NA
fcp-practice,13,78589,0.0-5.0-5.0-3.0,voc_e2,11802,"[{""event"":""fullscreenenter"",""trial"":1,""time"":5420}]",NA,NA,NA,NA,NA,NA,#EDC948,#46d3c8,10,0,1,null,null,null,37,1,252.70000004768372,10,1,practice,NA,NA,NA,NA,NA,NA,NA,NA,NA,NA
fcp-practice,14,80420,0.0-5.0-5.0-4.0,voc_e2,11802,"[{""event"":""fullscreenenter"",""trial"":1,""time"":5420}]",NA,NA,NA,NA,NA,NA,#EDC948,#46d3c8,10,0,1,null,null,null,37,1,320.10000002384186,10,1,practice,NA,NA,NA,NA,NA,NA,NA,NA,NA,NA
audio-instructions,15,98975,0.0-5.0-6.0,voc_e2,11802,"[{""event"":""fullscreenenter"",""trial"":1,""time"":5420}]",NA,550.2000000476837,static/audio/instructions6.wav,NA,0,NA,NA,NA,NA,NA,NA,NA,NA,NA,NA,NA,NA,NA,NA,NA,NA,NA,NA,NA,NA,NA,NA,NA,NA,NA
audio-instructions,16,119482,0.0-5.0-7.0,voc_e2,11802,"[{""event"":""fullscreenenter"",""trial"":1,""time"":5420}]",NA,1307.0999999046326,static/audio/instructions7.wav,NA,0,NA,NA,NA,NA,NA,NA,NA,NA,NA,NA,NA,NA,NA,NA,NA,NA,NA,NA,NA,NA,NA,NA,NA,NA,NA
audio-instructions,17,129834,0.0-5.0-8.0,voc_e2,11802,"[{""event"":""fullscreenenter"",""trial"":1,""time"":5420}]",NA,879.5,static/audio/instructions8.wav,NA,0,NA,NA,NA,NA,NA,NA,NA,NA,NA,NA,NA,NA,NA,NA,NA,NA,NA,NA,NA,NA,NA,NA,NA,NA,NA
fcp-comprehension,18,138817,0.0-5.0-9.0,voc_e2,11802,"[{""event"":""fullscreenenter"",""trial"":1,""time"":5420}]",NA,8981.699999928474,NA,NA,NA,NA,NA,NA,NA,NA,NA,NA,NA,NA,NA,NA,NA,NA,NA,NA,"true,true",0,NA,NA,NA,NA,NA,NA,NA,NA
audio-instructions,19,145896,0.0-6.0-0.0,voc_e2,11802,"[{""event"":""fullscreenenter"",""trial"":1,""time"":5420}]",NA,1530.7999999523165,static/audio/instructions9.wav,NA,0,NA,NA,NA,NA,NA,NA,NA,NA,NA,NA,NA,NA,NA,NA,NA,NA,NA,NA,NA,NA,NA,NA,NA,NA,NA
audio-instructions,20,158687,0.0-6.0-1.0,voc_e2,11802,"[{""event"":""fullscreenenter"",""trial"":1,""time"":5420}]",NA,672.7000000476837,static/audio/instructions10.wav,NA,0,NA,NA,NA,NA,NA,NA,NA,NA,NA,NA,NA,NA,NA,NA,NA,NA,NA,NA,NA,NA,NA,NA,NA,NA,NA
fcp-trial,21,163102,0.0-6.0-2.0,voc_e2,11802,"[{""event"":""fullscreenenter"",""trial"":1,""time"":5420}]",NA,NA,NA,NA,NA,0,#EDC948,#46d3c8,10,10,1,38,1,1965.6999999284744,37,1,920.6999999284744,10,1,practice,NA,NA,NA,NA,NA,NA,NA,NA,NA,NA
audio-instructions,22,174889,0.0-6.0-3.0,voc_e2,11802,"[{""event"":""fullscreenenter"",""trial"":1,""time"":5420}]",NA,784.6000000238419,static/audio/instructions11.wav,NA,0,NA,NA,NA,NA,NA,NA,NA,NA,NA,NA,NA,NA,NA,NA,NA,NA,NA,NA,NA,NA,NA,NA,NA,NA,NA
fcp-trial,23,178687,0.0-6.0-4.0,voc_e2,11802,"[{""event"":""fullscreenenter"",""trial"":1,""time"":5420}]",NA,NA,NA,NA,NA,6,#EDC948,#46d3c8,10,10,1,40,0,1522.8999999761581,37,1,765.5,10,1,practice,NA,NA,NA,NA,NA,NA,NA,NA,NA,NA
audio-instructions,24,198157,0.0-6.0-5.0,voc_e2,11802,"[{""event"":""fullscreenenter"",""trial"":1,""time"":5420}]",NA,782.5,static/audio/instructions12.wav,NA,0,NA,NA,NA,NA,NA,NA,NA,NA,NA,NA,NA,NA,NA,NA,NA,NA,NA,NA,NA,NA,NA,NA,NA,NA,NA
audio-instructions,25,206396,0.0-6.0-6.0,voc_e2,11802,"[{""event"":""fullscreenenter"",""trial"":1,""time"":5420}]",NA,642.2999999523163,static/audio/instructions13.wav,NA,0,NA,NA,NA,NA,NA,NA,NA,NA,NA,NA,NA,NA,NA,NA,NA,NA,NA,NA,NA,NA,NA,NA,NA,NA,NA
audio-instructions,26,215501,0.0-6.0-7.0,voc_e2,11802,"[{""event"":""fullscreenenter"",""trial"":1,""time"":5420}]",NA,657.2000000476837,static/audio/instructions14.wav,NA,0,NA,NA,NA,NA,NA,NA,NA,NA,NA,NA,NA,NA,NA,NA,NA,NA,NA,NA,NA,NA,NA,NA,NA,NA,NA
audio-instructions,27,223550,0.0-7.0-0.0,voc_e2,11802,"[{""event"":""fullscreenenter"",""trial"":1,""time"":5420}]",NA,1146.5,static/audio/instructions15.wav,NA,0,NA,NA,NA,NA,NA,NA,NA,NA,NA,NA,NA,NA,NA,NA,NA,NA,NA,NA,NA,NA,NA,NA,NA,NA,NA
audio-instructions,28,230825,0.0-7.0-1.0,voc_e2,11802,"[{""event"":""fullscreenenter"",""trial"":1,""time"":5420}]",NA,451.3000000715256,static/audio/instructions16.wav,NA,0,NA,NA,NA,NA,NA,NA,NA,NA,NA,NA,NA,NA,NA,NA,NA,NA,NA,NA,NA,NA,NA,NA,NA,NA,NA
audio-instructions,29,238849,0.0-7.0-2.0,voc_e2,11802,"[{""event"":""fullscreenenter"",""trial"":1,""time"":5420}]",NA,346,static/audio/instructions17.wav,NA,0,NA,NA,NA,NA,NA,NA,NA,NA,NA,NA,NA,NA,NA,NA,NA,NA,NA,NA,NA,NA,NA,NA,NA,NA,NA
audio-instructions,30,247170,0.0-7.0-3.0,voc_e2,11802,"[{""event"":""fullscreenenter"",""trial"":1,""time"":5420}]",NA,557.1000000238419,static/audio/instructions18.wav,NA,0,NA,NA,NA,NA,NA,NA,NA,NA,NA,NA,NA,NA,NA,NA,NA,NA,NA,NA,NA,NA,NA,NA,NA,NA,NA
audio-instructions,31,255029,0.0-7.0-4.0,voc_e2,11802,"[{""event"":""fullscreenenter"",""trial"":1,""time"":5420}]",NA,1116.100000023842,static/audio/instructions19.wav,NA,0,NA,NA,NA,NA,NA,NA,NA,NA,NA,NA,NA,NA,NA,NA,NA,NA,NA,NA,NA,NA,NA,NA,NA,NA,NA
fcp-comprehension,32,269216,0.0-7.0-5.0,voc_e2,11802,"[{""event"":""fullscreenenter"",""trial"":1,""time"":5420}]",NA,14186.100000023842,NA,NA,NA,NA,NA,NA,NA,NA,NA,NA,NA,NA,NA,NA,NA,NA,NA,NA,"false,false,false,true",0,NA,NA,NA,NA,NA,NA,NA,NA
audio-instructions,33,280228,0.0-8.0,voc_e2,11802,"[{""event"":""fullscreenenter"",""trial"":1,""time"":5420}]",NA,1794.7000000476835,static/audio/ready.wav,NA,0,NA,NA,NA,NA,NA,NA,NA,NA,NA,NA,NA,NA,NA,NA,NA,NA,NA,NA,NA,NA,NA,NA,NA,NA,NA
fcp-trial,34,284683,0.0-9.0-0.0,voc_e2,11802,"[{""event"":""fullscreenenter"",""trial"":1,""time"":5420}]",NA,NA,NA,NA,NA,0,#1CD855,#FA92F8,0,0,0,38,1,2357.899999976158,37,1,587.8000000715256,0,0,experiment,NA,NA,1,0.3,0.7,3,2,1,1,NA
fcp-trial,35,287865,0.0-10.0-0.0,voc_e2,11802,"[{""event"":""fullscreenenter"",""trial"":1,""time"":5420}]",NA,NA,NA,NA,NA,3,#D89F1C,#3386FF,0,10,0,38,1,1358.6000000238419,37,1,313.39999997615814,0,0,experiment,NA,NA,2,0.5,0.5,5,4,2,1,NA
fcp-trial,36,291516,0.0-11.0-0.0,voc_e2,11802,"[{""event"":""fullscreenenter"",""trial"":1,""time"":5420}]",NA,NA,NA,NA,NA,2,#D8271C,#741CD8,10,0,1,38,1,1409.1000000238419,37,1,730.7000000476837,10,1,experiment,NA,NA,0,0.9,0.1,0,1,3,1,NA
fcp-trial,37,294827,0.0-12.0-0.0,voc_e2,11802,"[{""event"":""fullscreenenter"",""trial"":1,""time"":5420}]",NA,NA,NA,NA,NA,0,#3386FF,#D89F1C,10,0,1,38,1,1423.1000000238419,39,0,374.7999999523163,0,0,experiment,NA,NA,2,0.5,0.5,4,5,4,1,NA
fcp-trial,38,297532,0.0-13.0-0.0,voc_e2,11802,"[{""event"":""fullscreenenter"",""trial"":1,""time"":5420}]",NA,NA,NA,NA,NA,5,#FA92F8,#1CD855,10,0,1,38,1,654.6000000238419,37,1,544.2000000476837,10,1,experiment,NA,NA,1,0.7,0.3,2,3,5,1,NA
fcp-trial,39,300322,0.0-14.0-0.0,voc_e2,11802,"[{""event"":""fullscreenenter"",""trial"":1,""time"":5420}]",NA,NA,NA,NA,NA,3,#741CD8,#D8271C,0,10,0,38,1,430.1999999284744,37,1,847.3999999761581,0,0,experiment,NA,NA,0,0.1,0.9,1,0,6,1,NA
fcp-trial,40,302722,0.0-15.0-0.0,voc_e2,11802,"[{""event"":""fullscreenenter"",""trial"":1,""time"":5420}]",NA,NA,NA,NA,NA,3,#1CD855,#FA92F8,0,10,0,38,1,407.2999999523163,39,0,473.60000002384186,10,1,experiment,NA,NA,1,0.3,0.7,3,2,7,1,NA
fcp-trial,41,305391,0.0-16.0-0.0,voc_e2,11802,"[{""event"":""fullscreenenter"",""trial"":1,""time"":5420}]",NA,NA,NA,NA,NA,5,#D89F1C,#3386FF,0,10,0,38,1,664.6999999284744,39,0,490.89999997615814,10,1,experiment,NA,NA,2,0.5,0.5,5,4,8,1,NA
fcp-trial,42,308045,0.0-17.0-0.0,voc_e2,11802,"[{""event"":""fullscreenenter"",""trial"":1,""time"":5420}]",NA,NA,NA,NA,NA,2,#FA92F8,#1CD855,10,0,1,38,1,474.5,37,1,665.6000000238419,10,1,experiment,NA,NA,1,0.7,0.3,2,3,9,1,NA
fcp-trial,43,310473,0.0-18.0-0.0,voc_e2,11802,"[{""event"":""fullscreenenter"",""trial"":1,""time"":5420}]",NA,NA,NA,NA,NA,4,#D8271C,#741CD8,10,0,1,38,1,444.09999990463257,37,1,479.10000002384186,10,1,experiment,NA,NA,0,0.9,0.1,0,1,10,1,NA
fcp-trial,44,312792,0.0-19.0-0.0,voc_e2,11802,"[{""event"":""fullscreenenter"",""trial"":1,""time"":5420}]",NA,NA,NA,NA,NA,4,#3386FF,#D89F1C,0,10,1,38,1,256.8000000715256,39,0,559.2000000476837,10,0,experiment,NA,NA,2,0.5,0.5,4,5,11,1,NA
fcp-trial,45,315097,0.0-20.0-0.0,voc_e2,11802,"[{""event"":""fullscreenenter"",""trial"":1,""time"":5420}]",NA,NA,NA,NA,NA,1,#FA92F8,#1CD855,10,0,1,38,1,401.2999999523163,37,1,400,10,1,experiment,NA,NA,1,0.7,0.3,2,3,12,1,NA
fcp-trial,46,317320,0.0-21.0-0.0,voc_e2,11802,"[{""event"":""fullscreenenter"",""trial"":1,""time"":5420}]",NA,NA,NA,NA,NA,0,#D8271C,#741CD8,10,0,1,38,1,256.40000009536743,39,0,463.5,0,0,experiment,NA,NA,0,0.9,0.1,0,1,13,1,NA
fcp-trial,47,319897,0.0-22.0-0.0,voc_e2,11802,"[{""event"":""fullscreenenter"",""trial"":1,""time"":5420}]",NA,NA,NA,NA,NA,6,#FA92F8,#1CD855,10,0,1,38,1,609.7999999523163,37,1,463.6999999284744,10,1,experiment,NA,NA,1,0.7,0.3,2,3,14,1,NA
fcp-trial,48,322185,0.0-23.0-0.0,voc_e2,11802,"[{""event"":""fullscreenenter"",""trial"":1,""time"":5420}]",NA,NA,NA,NA,NA,1,#D89F1C,#3386FF,10,0,0,38,1,497.10000002384186,39,0,286.59999990463257,0,1,experiment,NA,NA,2,0.5,0.5,5,4,15,1,NA
fcp-trial,49,325163,0.0-24.0-0.0,voc_e2,11802,"[{""event"":""fullscreenenter"",""trial"":1,""time"":5420}]",NA,NA,NA,NA,NA,5,#D8271C,#741CD8,0,0,1,38,1,705,37,1,767.6000000238419,0,1,experiment,NA,NA,0,0.9,0.1,0,1,16,1,NA
fcp-trial,50,327402,0.0-25.0-0.0,voc_e2,11802,"[{""event"":""fullscreenenter"",""trial"":1,""time"":5420}]",NA,NA,NA,NA,NA,4,#FA92F8,#1CD855,10,0,1,38,1,430.7999999523163,37,1,302.6999999284744,10,1,experiment,NA,NA,1,0.7,0.3,2,3,17,1,NA
fcp-trial,51,329833,0.0-26.0-0.0,voc_e2,11802,"[{""event"":""fullscreenenter"",""trial"":1,""time"":5420}]",NA,NA,NA,NA,NA,2,#D89F1C,#3386FF,0,10,0,38,1,431.7999999523163,39,0,494.89999997615814,10,1,experiment,NA,NA,2,0.5,0.5,5,4,18,1,NA
fcp-trial,52,332104,0.0-27.0-0.0,voc_e2,11802,"[{""event"":""fullscreenenter"",""trial"":1,""time"":5420}]",NA,NA,NA,NA,NA,1,#741CD8,#D8271C,0,10,0,38,1,336.6999999284744,39,0,430.5,10,1,experiment,NA,NA,0,0.1,0.9,1,0,19,1,NA
fcp-trial,53,335369,0.0-28.0-0.0,voc_e2,11802,"[{""event"":""fullscreenenter"",""trial"":1,""time"":5420}]",NA,NA,NA,NA,NA,6,#D8271C,#741CD8,10,10,1,40,0,1074.0999999046326,37,1,688.7000000476837,10,1,experiment,NA,NA,0,0.9,0.1,0,1,20,1,NA
fcp-trial,54,338488,0.0-29.0-0.0,voc_e2,11802,"[{""event"":""fullscreenenter"",""trial"":1,""time"":5420}]",NA,NA,NA,NA,NA,6,#D89F1C,#3386FF,0,10,0,40,0,1120.1000000238419,39,0,495,10,1,experiment,NA,NA,2,0.5,0.5,5,4,21,1,NA
fcp-trial,55,341705,0.0-30.0-0.0,voc_e2,11802,"[{""event"":""fullscreenenter"",""trial"":1,""time"":5420}]",NA,NA,NA,NA,NA,3,#D8271C,#741CD8,10,0,1,38,1,1297.8000000715256,39,0,416.2999999523163,0,0,experiment,NA,NA,0,0.9,0.1,0,1,22,1,NA
fcp-trial,56,344857,0.0-31.0-0.0,voc_e2,11802,"[{""event"":""fullscreenenter"",""trial"":1,""time"":5420}]",NA,NA,NA,NA,NA,2,#1CD855,#FA92F8,0,10,0,40,0,1152,39,0,494.7000000476837,10,1,experiment,NA,NA,1,0.3,0.7,3,2,23,1,NA
fcp-trial,57,347752,0.0-32.0-0.0,voc_e2,11802,"[{""event"":""fullscreenenter"",""trial"":1,""time"":5420}]",NA,NA,NA,NA,NA,5,#D8271C,#741CD8,10,0,1,40,0,816.6000000238419,39,0,572.7000000476837,0,0,experiment,NA,NA,0,0.9,0.1,0,1,24,1,NA
fcp-trial,58,350376,0.0-33.0-0.0,voc_e2,11802,"[{""event"":""fullscreenenter"",""trial"":1,""time"":5420}]",NA,NA,NA,NA,NA,4,#1CD855,#FA92F8,0,10,0,40,0,705.5,39,0,413.60000002384186,10,1,experiment,NA,NA,1,0.3,0.7,3,2,25,1,NA
fcp-trial,59,353273,0.0-34.0-0.0,voc_e2,11802,"[{""event"":""fullscreenenter"",""trial"":1,""time"":5420}]",NA,NA,NA,NA,NA,4,#3386FF,#D89F1C,0,0,1,40,0,897.0999999046326,39,0,495.89999997615814,0,0,experiment,NA,NA,2,0.5,0.5,4,5,26,1,NA
fcp-trial,60,356040,0.0-35.0-0.0,voc_e2,11802,"[{""event"":""fullscreenenter"",""trial"":1,""time"":5420}]",NA,NA,NA,NA,NA,0,#D8271C,#741CD8,10,0,1,40,0,671.8999999761581,39,0,591.0999999046326,0,0,experiment,NA,NA,0,0.9,0.1,0,1,27,1,NA
fcp-trial,61,358967,0.0-36.0-0.0,voc_e2,11802,"[{""event"":""fullscreenenter"",""trial"":1,""time"":5420}]",NA,NA,NA,NA,NA,5,#FA92F8,#1CD855,10,10,1,40,0,1058.1000000238419,37,1,365.59999990463257,10,1,experiment,NA,NA,1,0.7,0.3,2,3,28,1,NA
fcp-trial,62,362248,0.0-37.0-0.0,voc_e2,11802,"[{""event"":""fullscreenenter"",""trial"":1,""time"":5420}]",NA,NA,NA,NA,NA,1,#D89F1C,#3386FF,10,0,0,40,0,1202.2000000476837,39,0,575.5,0,1,experiment,NA,NA,2,0.5,0.5,5,4,29,1,NA
fcp-trial,63,364839,0.0-38.0-0.0,voc_e2,11802,"[{""event"":""fullscreenenter"",""trial"":1,""time"":5420}]",NA,NA,NA,NA,NA,1,#1CD855,#FA92F8,0,10,0,40,0,673.5999999046326,39,0,414,10,1,experiment,NA,NA,1,0.3,0.7,3,2,30,1,NA
fcp-trial,64,367799,0.0-39.0-0.0,voc_e2,11802,"[{""event"":""fullscreenenter"",""trial"":1,""time"":5420}]",NA,NA,NA,NA,NA,3,#FA92F8,#1CD855,0,0,1,40,0,801.9000000953674,39,0,655,0,0,experiment,NA,NA,1,0.7,0.3,2,3,31,1,NA
fcp-trial,65,371673,0.0-40.0-0.0,voc_e2,11802,"[{""event"":""fullscreenenter"",""trial"":1,""time"":5420}]",NA,NA,NA,NA,NA,2,#D8271C,#741CD8,10,0,1,38,1,2049.8000000715256,37,1,318.8000000715256,10,1,experiment,NA,NA,0,0.9,0.1,0,1,32,1,NA
fcp-trial,66,376024,0.0-41.0-0.0,voc_e2,11802,"[{""event"":""fullscreenenter"",""trial"":1,""time"":5420}]",NA,NA,NA,NA,NA,1,#741CD8,#D8271C,0,10,0,38,1,2064.399999976158,37,1,784.3000000715256,0,0,experiment,NA,NA,0,0.1,0.9,1,0,33,1,NA
fcp-trial,67,379464,0.0-42.0-0.0,voc_e2,11802,"[{""event"":""fullscreenenter"",""trial"":1,""time"":5420}]",NA,NA,NA,NA,NA,0,#3386FF,#D89F1C,10,0,1,38,1,688.5,37,1,1246.899999976158,10,1,experiment,NA,NA,2,0.5,0.5,4,5,34,1,NA
fcp-trial,68,382471,0.0-43.0-0.0,voc_e2,11802,"[{""event"":""fullscreenenter"",""trial"":1,""time"":5420}]",NA,NA,NA,NA,NA,3,#D89F1C,#3386FF,0,10,0,38,1,770.5,39,0,733.3999999761581,10,1,experiment,NA,NA,2,0.5,0.5,5,4,35,1,NA
fcp-trial,69,384888,0.0-44.0-0.0,voc_e2,11802,"[{""event"":""fullscreenenter"",""trial"":1,""time"":5420}]",NA,NA,NA,NA,NA,0,#FA92F8,#1CD855,0,0,1,38,1,498,37,1,415.5,0,1,experiment,NA,NA,1,0.7,0.3,2,3,36,1,NA
fcp-trial,70,387464,0.0-45.0-0.0,voc_e2,11802,"[{""event"":""fullscreenenter"",""trial"":1,""time"":5420}]",NA,NA,NA,NA,NA,6,#D8271C,#741CD8,10,0,1,38,1,576.7999999523163,37,1,494.2000000476837,10,1,experiment,NA,NA,0,0.9,0.1,0,1,37,1,NA
fcp-trial,71,390151,0.0-46.0-0.0,voc_e2,11802,"[{""event"":""fullscreenenter"",""trial"":1,""time"":5420}]",NA,NA,NA,NA,NA,4,#D8271C,#741CD8,10,0,1,38,1,721.0999999046326,37,1,462.89999997615814,10,1,experiment,NA,NA,0,0.9,0.1,0,1,38,1,NA
fcp-trial,72,392616,0.0-47.0-0.0,voc_e2,11802,"[{""event"":""fullscreenenter"",""trial"":1,""time"":5420}]",NA,NA,NA,NA,NA,6,#1CD855,#FA92F8,0,10,0,38,1,610.5,39,0,350.2999999523163,10,1,experiment,NA,NA,1,0.3,0.7,3,2,39,1,NA
fcp-trial,73,395064,0.0-48.0-0.0,voc_e2,11802,"[{""event"":""fullscreenenter"",""trial"":1,""time"":5420}]",NA,NA,NA,NA,NA,2,#D89F1C,#3386FF,10,0,0,38,1,352.7000000476837,37,1,592,10,0,experiment,NA,NA,2,0.5,0.5,5,4,40,1,NA
fcp-trial,74,398055,0.0-49.0-0.0,voc_e2,11802,"[{""event"":""fullscreenenter"",""trial"":1,""time"":5420}]",NA,NA,NA,NA,NA,5,#3386FF,#D89F1C,10,10,1,38,1,481.2000000476837,37,1,1006.2000000476836,10,1,experiment,NA,NA,2,0.5,0.5,4,5,41,1,NA
fcp-trial,75,400456,0.0-50.0-0.0,voc_e2,11802,"[{""event"":""fullscreenenter"",""trial"":1,""time"":5420}]",NA,NA,NA,NA,NA,6,#D89F1C,#3386FF,10,0,0,38,1,481.89999997615814,39,0,415,0,1,experiment,NA,NA,2,0.5,0.5,5,4,42,1,NA
fcp-trial,76,402807,0.0-51.0-0.0,voc_e2,11802,"[{""event"":""fullscreenenter"",""trial"":1,""time"":5420}]",NA,NA,NA,NA,NA,2,#FA92F8,#1CD855,10,0,1,38,1,561.5,37,1,285.39999997615814,10,1,experiment,NA,NA,1,0.7,0.3,2,3,43,1,NA
fcp-trial,77,405303,0.0-52.0-0.0,voc_e2,11802,"[{""event"":""fullscreenenter"",""trial"":1,""time"":5420}]",NA,NA,NA,NA,NA,3,#D8271C,#741CD8,10,0,1,38,1,545.6000000238419,37,1,445.89999997615814,10,1,experiment,NA,NA,0,0.9,0.1,0,1,44,1,NA
fcp-trial,78,407575,0.0-53.0-0.0,voc_e2,11802,"[{""event"":""fullscreenenter"",""trial"":1,""time"":5420}]",NA,NA,NA,NA,NA,2,#D89F1C,#3386FF,0,0,0,38,1,337.89999997615814,37,1,431.89999997615814,0,0,experiment,NA,NA,2,0.5,0.5,5,4,45,1,NA
fcp-trial,79,409783,0.0-54.0-0.0,voc_e2,11802,"[{""event"":""fullscreenenter"",""trial"":1,""time"":5420}]",NA,NA,NA,NA,NA,1,#FA92F8,#1CD855,0,0,1,38,1,369.60000002384186,37,1,334.59999990463257,0,1,experiment,NA,NA,1,0.7,0.3,2,3,46,2,NA
fcp-trial,80,412408,0.0-55.0-0.0,voc_e2,11802,"[{""event"":""fullscreenenter"",""trial"":1,""time"":5420}]",NA,NA,NA,NA,NA,1,#D8271C,#741CD8,0,0,1,38,1,321,37,1,799.1999999284744,0,1,experiment,NA,NA,0,0.9,0.1,0,1,47,2,NA
fcp-trial,81,414823,0.0-56.0-0.0,voc_e2,11802,"[{""event"":""fullscreenenter"",""trial"":1,""time"":5420}]",NA,NA,NA,NA,NA,6,#3386FF,#D89F1C,0,10,1,38,1,465.2999999523163,39,0,446.3000000715256,10,0,experiment,NA,NA,2,0.5,0.5,4,5,48,2,NA
fcp-trial,82,417207,0.0-57.0-0.0,voc_e2,11802,"[{""event"":""fullscreenenter"",""trial"":1,""time"":5420}]",NA,NA,NA,NA,NA,5,#D89F1C,#3386FF,0,10,0,38,1,385.2999999523163,39,0,494.6999999284744,10,1,experiment,NA,NA,2,0.5,0.5,5,4,49,2,NA
fcp-trial,83,419495,0.0-58.0-0.0,voc_e2,11802,"[{""event"":""fullscreenenter"",""trial"":1,""time"":5420}]",NA,NA,NA,NA,NA,2,#D8271C,#741CD8,10,0,1,38,1,401.2999999523163,37,1,383.2999999523163,10,1,experiment,NA,NA,0,0.9,0.1,0,1,50,2,NA
fcp-trial,84,421671,0.0-59.0-0.0,voc_e2,11802,"[{""event"":""fullscreenenter"",""trial"":1,""time"":5420}]",NA,NA,NA,NA,NA,3,#1CD855,#FA92F8,10,10,0,38,1,353.6999999284744,39,0,318.89999997615814,10,1,experiment,NA,NA,1,0.3,0.7,3,2,51,2,NA
fcp-trial,85,424054,0.0-60.0-0.0,voc_e2,11802,"[{""event"":""fullscreenenter"",""trial"":1,""time"":5420}]",NA,NA,NA,NA,NA,0,#D89F1C,#3386FF,0,10,0,38,1,385.3000000715256,39,0,495.09999990463257,10,1,experiment,NA,NA,2,0.5,0.5,5,4,52,2,NA
fcp-trial,86,426839,0.0-61.0-0.0,voc_e2,11802,"[{""event"":""fullscreenenter"",""trial"":1,""time"":5420}]",NA,NA,NA,NA,NA,3,#3386FF,#D89F1C,10,0,1,38,1,514.7999999523163,37,1,766.7000000476837,10,1,experiment,NA,NA,2,0.5,0.5,4,5,53,2,NA
fcp-trial,87,430647,0.0-62.0-0.0,voc_e2,11802,"[{""event"":""fullscreenenter"",""trial"":1,""time"":5420}]",NA,NA,NA,NA,NA,6,#741CD8,#D8271C,0,10,0,40,0,1665.3000000715256,39,0,639.8000000715256,10,1,experiment,NA,NA,0,0.1,0.9,1,0,54,2,NA
fcp-trial,88,433822,0.0-63.0-0.0,voc_e2,11802,"[{""event"":""fullscreenenter"",""trial"":1,""time"":5420}]",NA,NA,NA,NA,NA,4,#1CD855,#FA92F8,0,10,0,40,0,1104.7000000476837,37,1,556.2000000476837,0,0,experiment,NA,NA,1,0.3,0.7,3,2,55,2,NA
fcp-trial,89,436854,0.0-64.0-0.0,voc_e2,11802,"[{""event"":""fullscreenenter"",""trial"":1,""time"":5420}]",NA,NA,NA,NA,NA,4,#741CD8,#D8271C,0,10,0,40,0,986.9000000953674,37,1,542,0,0,experiment,NA,NA,0,0.1,0.9,1,0,56,2,NA
fcp-trial,90,439606,0.0-65.0-0.0,voc_e2,11802,"[{""event"":""fullscreenenter"",""trial"":1,""time"":5420}]",NA,NA,NA,NA,NA,4,#D89F1C,#3386FF,0,0,0,40,0,737.3999999761581,37,1,511.5,0,0,experiment,NA,NA,2,0.5,0.5,5,4,57,2,NA
fcp-trial,91,442104,0.0-66.0-0.0,voc_e2,11802,"[{""event"":""fullscreenenter"",""trial"":1,""time"":5420}]",NA,NA,NA,NA,NA,5,#D8271C,#741CD8,10,0,1,40,0,465.89999997615814,39,0,527.6000000238419,0,0,experiment,NA,NA,0,0.9,0.1,0,1,58,2,NA
fcp-trial,92,444711,0.0-67.0-0.0,voc_e2,11802,"[{""event"":""fullscreenenter"",""trial"":1,""time"":5420}]",NA,NA,NA,NA,NA,5,#FA92F8,#1CD855,10,10,1,40,0,527.3999999761581,39,0,568.3999999761581,10,0,experiment,NA,NA,1,0.7,0.3,2,3,59,2,NA
fcp-trial,93,448198,0.0-68.0-0.0,voc_e2,11802,"[{""event"":""fullscreenenter"",""trial"":1,""time"":5420}]",NA,NA,NA,NA,NA,1,#3386FF,#D89F1C,10,10,1,38,1,1538.1000000238419,37,1,446,10,1,experiment,NA,NA,2,0.5,0.5,4,5,60,2,NA
fcp-trial,94,450951,0.0-69.0-0.0,voc_e2,11802,"[{""event"":""fullscreenenter"",""trial"":1,""time"":5420}]",NA,NA,NA,NA,NA,0,#FA92F8,#1CD855,10,0,1,38,1,897.8999999761581,39,0,350,0,0,experiment,NA,NA,1,0.7,0.3,2,3,61,2,NA
fcp-trial,95,453334,0.0-70.0-0.0,voc_e2,11802,"[{""event"":""fullscreenenter"",""trial"":1,""time"":5420}]",NA,NA,NA,NA,NA,6,#FA92F8,#1CD855,0,0,1,38,1,449.10000002384186,37,1,431.2000000476837,0,1,experiment,NA,NA,1,0.7,0.3,2,3,62,2,NA
fcp-trial,96,456007,0.0-71.0-0.0,voc_e2,11802,"[{""event"":""fullscreenenter"",""trial"":1,""time"":5420}]",NA,NA,NA,NA,NA,0,#D8271C,#741CD8,10,0,1,38,1,801.9000000953674,37,1,367.39999997615814,10,1,experiment,NA,NA,0,0.9,0.1,0,1,63,2,NA
fcp-trial,97,458726,0.0-72.0-0.0,voc_e2,11802,"[{""event"":""fullscreenenter"",""trial"":1,""time"":5420}]",NA,NA,NA,NA,NA,0,#1CD855,#FA92F8,0,10,0,38,1,721.2000000476837,39,0,493.89999997615814,10,1,experiment,NA,NA,1,0.3,0.7,3,2,64,2,NA
fcp-trial,98,461302,0.0-73.0-0.0,voc_e2,11802,"[{""event"":""fullscreenenter"",""trial"":1,""time"":5420}]",NA,NA,NA,NA,NA,1,#1CD855,#FA92F8,10,10,0,38,1,673.2000000476837,39,0,399.5,10,1,experiment,NA,NA,1,0.3,0.7,3,2,65,2,NA
fcp-trial,99,463910,0.0-74.0-0.0,voc_e2,11802,"[{""event"":""fullscreenenter"",""trial"":1,""time"":5420}]",NA,NA,NA,NA,NA,3,#1CD855,#FA92F8,0,10,0,38,1,737.8000000715256,39,0,367.60000002384186,10,1,experiment,NA,NA,1,0.3,0.7,3,2,66,2,NA
fcp-trial,100,466726,0.0-75.0-0.0,voc_e2,11802,"[{""event"":""fullscreenenter"",""trial"":1,""time"":5420}]",NA,NA,NA,NA,NA,2,#D89F1C,#3386FF,0,10,0,38,1,752.7000000476837,39,0,558,10,1,experiment,NA,NA,2,0.5,0.5,5,4,67,2,NA
fcp-trial,101,469398,0.0-76.0-0.0,voc_e2,11802,"[{""event"":""fullscreenenter"",""trial"":1,""time"":5420}]",NA,NA,NA,NA,NA,4,#741CD8,#D8271C,0,10,0,38,1,514.3000000715256,37,1,653,0,0,experiment,NA,NA,0,0.1,0.9,1,0,68,2,NA
fcp-trial,102,471894,0.0-77.0-0.0,voc_e2,11802,"[{""event"":""fullscreenenter"",""trial"":1,""time"":5420}]",NA,NA,NA,NA,NA,4,#3386FF,#D89F1C,10,10,1,38,1,528.7999999523163,37,1,464,10,1,experiment,NA,NA,2,0.5,0.5,4,5,69,2,NA
fcp-trial,103,475062,0.0-78.0-0.0,voc_e2,11802,"[{""event"":""fullscreenenter"",""trial"":1,""time"":5420}]",NA,NA,NA,NA,NA,6,#D89F1C,#3386FF,10,10,0,40,0,1136.6999999284744,39,0,527.5,10,1,experiment,NA,NA,2,0.5,0.5,5,4,70,2,NA
fcp-trial,104,477895,0.0-79.0-0.0,voc_e2,11802,"[{""event"":""fullscreenenter"",""trial"":1,""time"":5420}]",NA,NA,NA,NA,NA,5,#FA92F8,#1CD855,0,0,1,38,1,576.8999999761581,37,1,751.6999999284744,0,1,experiment,NA,NA,1,0.7,0.3,2,3,71,2,NA
fcp-trial,105,481941,0.0-80.0-0.0,voc_e2,11802,"[{""event"":""fullscreenenter"",""trial"":1,""time"":5420}]",NA,NA,NA,NA,NA,0,#D8271C,#741CD8,10,0,1,38,1,1136.8999999761581,37,1,1406,10,1,experiment,NA,NA,0,0.9,0.1,0,1,72,2,NA
fcp-trial,106,484725,0.0-81.0-0.0,voc_e2,11802,"[{""event"":""fullscreenenter"",""trial"":1,""time"":5420}]",NA,NA,NA,NA,NA,1,#741CD8,#D8271C,10,10,0,38,1,833.7999999523163,37,1,446.60000002384186,10,0,experiment,NA,NA,0,0.1,0.9,1,0,73,2,NA
fcp-trial,107,487366,0.0-82.0-0.0,voc_e2,11802,"[{""event"":""fullscreenenter"",""trial"":1,""time"":5420}]",NA,NA,NA,NA,NA,0,#D89F1C,#3386FF,0,10,0,38,1,690,39,0,446.1999999284744,10,1,experiment,NA,NA,2,0.5,0.5,5,4,74,2,NA
fcp-trial,108,490039,0.0-83.0-0.0,voc_e2,11802,"[{""event"":""fullscreenenter"",""trial"":1,""time"":5420}]",NA,NA,NA,NA,NA,2,#FA92F8,#1CD855,0,0,1,38,1,704.8000000715256,37,1,463.7999999523163,0,1,experiment,NA,NA,1,0.7,0.3,2,3,75,2,NA
fcp-trial,109,492358,0.0-84.0-0.0,voc_e2,11802,"[{""event"":""fullscreenenter"",""trial"":1,""time"":5420}]",NA,NA,NA,NA,NA,1,#D89F1C,#3386FF,0,0,0,38,1,481.39999997615814,39,0,334,0,1,experiment,NA,NA,2,0.5,0.5,5,4,76,2,NA
fcp-trial,110,495446,0.0-85.0-0.0,voc_e2,11802,"[{""event"":""fullscreenenter"",""trial"":1,""time"":5420}]",NA,NA,NA,NA,NA,3,#741CD8,#D8271C,0,10,0,38,1,497.10000002384186,39,0,1087.7000000476835,10,1,experiment,NA,NA,0,0.1,0.9,1,0,77,2,NA
fcp-trial,111,498470,0.0-86.0-0.0,voc_e2,11802,"[{""event"":""fullscreenenter"",""trial"":1,""time"":5420}]",NA,NA,NA,NA,NA,4,#FA92F8,#1CD855,10,10,1,40,0,1041,39,0,478.39999997615814,10,0,experiment,NA,NA,1,0.7,0.3,2,3,78,2,NA
fcp-trial,112,501333,0.0-87.0-0.0,voc_e2,11802,"[{""event"":""fullscreenenter"",""trial"":1,""time"":5420}]",NA,NA,NA,NA,NA,5,#3386FF,#D89F1C,10,0,1,40,0,928.1000000238419,39,0,431.7000000476837,0,0,experiment,NA,NA,2,0.5,0.5,4,5,79,2,NA
fcp-trial,113,504341,0.0-88.0-0.0,voc_e2,11802,"[{""event"":""fullscreenenter"",""trial"":1,""time"":5420}]",NA,NA,NA,NA,NA,2,#741CD8,#D8271C,10,10,0,38,1,562.7999999523163,39,0,942.399999976158,10,1,experiment,NA,NA,0,0.1,0.9,1,0,80,2,NA
fcp-trial,114,507781,0.0-89.0-0.0,voc_e2,11802,"[{""event"":""fullscreenenter"",""trial"":1,""time"":5420}]",NA,NA,NA,NA,NA,3,#3386FF,#D89F1C,0,10,1,38,1,1553.6999999284744,37,1,383.60000002384186,0,1,experiment,NA,NA,2,0.5,0.5,4,5,81,2,NA
fcp-trial,115,510918,0.0-90.0-0.0,voc_e2,11802,"[{""event"":""fullscreenenter"",""trial"":1,""time"":5420}]",NA,NA,NA,NA,NA,6,#FA92F8,#1CD855,10,10,1,40,0,1138.2000000476837,37,1,495.5,10,1,experiment,NA,NA,1,0.7,0.3,2,3,82,2,NA
fcp-trial,116,513910,0.0-91.0-0.0,voc_e2,11802,"[{""event"":""fullscreenenter"",""trial"":1,""time"":5420}]",NA,NA,NA,NA,NA,5,#D8271C,#741CD8,10,0,1,40,0,1041.6000000238419,39,0,447.2000000476837,0,0,experiment,NA,NA,0,0.9,0.1,0,1,83,2,NA
fcp-trial,117,517205,0.0-92.0-0.0,voc_e2,11802,"[{""event"":""fullscreenenter"",""trial"":1,""time"":5420}]",NA,NA,NA,NA,NA,6,#741CD8,#D8271C,10,10,0,40,0,1408.5999999046326,37,1,383.1999999284744,10,0,experiment,NA,NA,0,0.1,0.9,1,0,84,2,NA
fcp-trial,118,520037,0.0-93.0-0.0,voc_e2,11802,"[{""event"":""fullscreenenter"",""trial"":1,""time"":5420}]",NA,NA,NA,NA,NA,2,#1CD855,#FA92F8,0,10,0,38,1,944.6000000238419,39,0,383.5,10,1,experiment,NA,NA,1,0.3,0.7,3,2,85,2,NA
fcp-trial,119,522901,0.0-94.0-0.0,voc_e2,11802,"[{""event"":""fullscreenenter"",""trial"":1,""time"":5420}]",NA,NA,NA,NA,NA,6,#741CD8,#D8271C,0,10,0,40,0,799.6000000238419,39,0,558.8999999761581,10,1,experiment,NA,NA,0,0.1,0.9,1,0,86,2,NA
fcp-trial,120,525845,0.0-95.0-0.0,voc_e2,11802,"[{""event"":""fullscreenenter"",""trial"":1,""time"":5420}]",NA,NA,NA,NA,NA,5,#D8271C,#741CD8,10,10,1,40,0,898.6999999284744,37,1,541.7000000476837,10,1,experiment,NA,NA,0,0.9,0.1,0,1,87,2,NA
fcp-trial,121,528693,0.0-96.0-0.0,voc_e2,11802,"[{""event"":""fullscreenenter"",""trial"":1,""time"":5420}]",NA,NA,NA,NA,NA,5,#3386FF,#D89F1C,0,10,1,40,0,817.3999999761581,39,0,525.8999999761581,10,0,experiment,NA,NA,2,0.5,0.5,4,5,88,2,NA
fcp-trial,122,531428,0.0-97.0-0.0,voc_e2,11802,"[{""event"":""fullscreenenter"",""trial"":1,""time"":5420}]",NA,NA,NA,NA,NA,6,#FA92F8,#1CD855,10,0,1,40,0,640.3999999761581,39,0,591.5,0,0,experiment,NA,NA,1,0.7,0.3,2,3,89,2,NA
fcp-trial,123,534133,0.0-98.0-0.0,voc_e2,11802,"[{""event"":""fullscreenenter"",""trial"":1,""time"":5420}]",NA,NA,NA,NA,NA,3,#D8271C,#741CD8,10,0,1,40,0,641.1000000238419,39,0,559.7000000476837,0,0,experiment,NA,NA,0,0.9,0.1,0,1,90,2,NA
fcp-trial,124,537078,0.0-99.0-0.0,voc_e2,11802,"[{""event"":""fullscreenenter"",""trial"":1,""time"":5420}]",NA,NA,NA,NA,NA,3,#D89F1C,#3386FF,0,10,0,40,0,1027,39,0,414.10000002384186,10,1,experiment,NA,NA,2,0.5,0.5,5,4,91,3,NA
fcp-trial,125,539956,0.0-100.0-0.0,voc_e2,11802,"[{""event"":""fullscreenenter"",""trial"":1,""time"":5420}]",NA,NA,NA,NA,NA,0,#741CD8,#D8271C,0,10,0,38,1,864.3000000715256,37,1,510.2000000476837,0,0,experiment,NA,NA,0,0.1,0.9,1,0,92,3,NA
fcp-trial,126,542293,0.0-101.0-0.0,voc_e2,11802,"[{""event"":""fullscreenenter"",""trial"":1,""time"":5420}]",NA,NA,NA,NA,NA,0,#1CD855,#FA92F8,10,10,0,38,1,482.3000000715256,39,0,351.60000002384186,10,1,experiment,NA,NA,1,0.3,0.7,3,2,93,3,NA
fcp-trial,127,544838,0.0-102.0-0.0,voc_e2,11802,"[{""event"":""fullscreenenter"",""trial"":1,""time"":5420}]",NA,NA,NA,NA,NA,1,#3386FF,#D89F1C,0,10,1,38,1,625.3999999761581,37,1,414.90000009536743,0,1,experiment,NA,NA,2,0.5,0.5,4,5,94,3,NA
fcp-trial,128,547365,0.0-103.0-0.0,voc_e2,11802,"[{""event"":""fullscreenenter"",""trial"":1,""time"":5420}]",NA,NA,NA,NA,NA,4,#3386FF,#D89F1C,10,10,1,38,1,577.3999999761581,37,1,445.10000002384186,10,1,experiment,NA,NA,2,0.5,0.5,4,5,95,3,NA
fcp-trial,129,550326,0.0-104.0-0.0,voc_e2,11802,"[{""event"":""fullscreenenter"",""trial"":1,""time"":5420}]",NA,NA,NA,NA,NA,4,#741CD8,#D8271C,0,10,0,40,0,801.6000000238419,37,1,654.1000000238419,0,0,experiment,NA,NA,0,0.1,0.9,1,0,96,3,NA
fcp-trial,130,553349,0.0-105.0-0.0,voc_e2,11802,"[{""event"":""fullscreenenter"",""trial"":1,""time"":5420}]",NA,NA,NA,NA,NA,4,#1CD855,#FA92F8,10,10,0,40,0,992.2000000476837,37,1,527.1000000238419,10,0,experiment,NA,NA,1,0.3,0.7,3,2,97,3,NA
fcp-trial,131,556374,0.0-106.0-0.0,voc_e2,11802,"[{""event"":""fullscreenenter"",""trial"":1,""time"":5420}]",NA,NA,NA,NA,NA,1,#1CD855,#FA92F8,0,10,0,38,1,1184.7999999523163,39,0,334.7000000476837,10,1,experiment,NA,NA,1,0.3,0.7,3,2,98,3,NA
fcp-trial,132,559014,0.0-107.0-0.0,voc_e2,11802,"[{""event"":""fullscreenenter"",""trial"":1,""time"":5420}]",NA,NA,NA,NA,NA,0,#3386FF,#D89F1C,10,0,1,38,1,737.3000000715256,37,1,398.5,10,1,experiment,NA,NA,2,0.5,0.5,4,5,99,3,NA
fcp-trial,133,561909,0.0-108.0-0.0,voc_e2,11802,"[{""event"":""fullscreenenter"",""trial"":1,""time"":5420}]",NA,NA,NA,NA,NA,2,#D8271C,#741CD8,10,0,1,38,1,975.8999999761581,37,1,415.2999999523163,10,1,experiment,NA,NA,0,0.9,0.1,0,1,100,3,NA
fcp-trial,134,564645,0.0-109.0-0.0,voc_e2,11802,"[{""event"":""fullscreenenter"",""trial"":1,""time"":5420}]",NA,NA,NA,NA,NA,5,#FA92F8,#1CD855,10,0,1,40,0,768.7999999523163,39,0,462.1999999284744,0,0,experiment,NA,NA,1,0.7,0.3,2,3,101,3,NA
fcp-trial,135,567701,0.0-110.0-0.0,voc_e2,11802,"[{""event"":""fullscreenenter"",""trial"":1,""time"":5420}]",NA,NA,NA,NA,NA,1,#741CD8,#D8271C,0,10,0,38,1,753,39,0,798.6999999284744,10,1,experiment,NA,NA,0,0.1,0.9,1,0,102,3,NA
fcp-trial,136,571332,0.0-111.0-0.0,voc_e2,11802,"[{""event"":""fullscreenenter"",""trial"":1,""time"":5420}]",NA,NA,NA,NA,NA,6,#D89F1C,#3386FF,0,0,0,40,0,1554.3999999761581,37,1,573.9000000953674,0,0,experiment,NA,NA,2,0.5,0.5,5,4,103,3,NA
fcp-trial,137,574373,0.0-112.0-0.0,voc_e2,11802,"[{""event"":""fullscreenenter"",""trial"":1,""time"":5420}]",NA,NA,NA,NA,NA,3,#FA92F8,#1CD855,10,0,1,38,1,1217.7000000476837,37,1,319.60000002384186,10,1,experiment,NA,NA,1,0.7,0.3,2,3,104,3,NA
fcp-trial,138,577301,0.0-113.0-0.0,voc_e2,11802,"[{""event"":""fullscreenenter"",""trial"":1,""time"":5420}]",NA,NA,NA,NA,NA,2,#3386FF,#D89F1C,0,0,1,38,1,1120.2000000476837,37,1,303.10000002384186,0,1,experiment,NA,NA,2,0.5,0.5,4,5,105,3,NA
audio-instructions,139,582505,0.0-114.0,voc_e2,11802,"[{""event"":""fullscreenenter"",""trial"":1,""time"":5420}]",NA,744.2999999523163,static/audio/pause.wav,NA,0,NA,NA,NA,NA,NA,NA,NA,NA,NA,NA,NA,NA,NA,NA,NA,NA,NA,NA,NA,NA,NA,NA,NA,NA,NA
fcp-trial,140,585914,0.0-115.0-0.0,voc_e2,11802,"[{""event"":""fullscreenenter"",""trial"":1,""time"":5420}]",NA,NA,NA,NA,NA,0,#D8271C,#741CD8,0,0,1,38,1,1099.8999999761581,39,0,797.7999999523163,0,0,experiment,NA,NA,0,0.9,0.1,0,1,106,3,NA
fcp-trial,141,589446,0.0-116.0-0.0,voc_e2,11802,"[{""event"":""fullscreenenter"",""trial"":1,""time"":5420}]",NA,NA,NA,NA,NA,2,#D89F1C,#3386FF,0,10,0,38,1,1674.7999999523163,39,0,345.1999999284744,10,1,experiment,NA,NA,2,0.5,0.5,5,4,107,3,NA
fcp-trial,142,591689,0.0-117.0-0.0,voc_e2,11802,"[{""event"":""fullscreenenter"",""trial"":1,""time"":5420}]",NA,NA,NA,NA,NA,6,#D8271C,#741CD8,10,0,1,38,1,430.7999999523163,37,1,303.7999999523163,10,1,experiment,NA,NA,0,0.9,0.1,0,1,108,3,NA
fcp-trial,143,594086,0.0-118.0-0.0,voc_e2,11802,"[{""event"":""fullscreenenter"",""trial"":1,""time"":5420}]",NA,NA,NA,NA,NA,3,#1CD855,#FA92F8,10,10,0,38,1,523.7999999523163,39,0,366.10000002384186,10,1,experiment,NA,NA,1,0.3,0.7,3,2,109,3,NA
fcp-trial,144,597798,0.0-119.0-0.0,voc_e2,11802,"[{""event"":""fullscreenenter"",""trial"":1,""time"":5420}]",NA,NA,NA,NA,NA,4,#D8271C,#741CD8,10,10,1,38,1,590.1000000238419,37,1,1614.7999999523165,10,1,experiment,NA,NA,0,0.9,0.1,0,1,110,3,NA
fcp-trial,145,600586,0.0-120.0-0.0,voc_e2,11802,"[{""event"":""fullscreenenter"",""trial"":1,""time"":5420}]",NA,NA,NA,NA,NA,5,#1CD855,#FA92F8,0,10,0,40,0,863,39,0,410.7999999523163,10,1,experiment,NA,NA,1,0.3,0.7,3,2,111,3,NA
fcp-trial,146,603274,0.0-121.0-0.0,voc_e2,11802,"[{""event"":""fullscreenenter"",""trial"":1,""time"":5420}]",NA,NA,NA,NA,NA,3,#D89F1C,#3386FF,10,0,0,38,1,730.3000000715256,39,0,447.7000000476837,0,1,experiment,NA,NA,2,0.5,0.5,5,4,112,3,NA
fcp-trial,147,606147,0.0-122.0-0.0,voc_e2,11802,"[{""event"":""fullscreenenter"",""trial"":1,""time"":5420}]",NA,NA,NA,NA,NA,6,#FA92F8,#1CD855,10,0,1,40,0,955.7000000476837,37,1,404,10,1,experiment,NA,NA,1,0.7,0.3,2,3,113,3,NA
fcp-trial,148,608788,0.0-123.0-0.0,voc_e2,11802,"[{""event"":""fullscreenenter"",""trial"":1,""time"":5420}]",NA,NA,NA,NA,NA,4,#1CD855,#FA92F8,0,10,0,40,0,721.2000000476837,39,0,415.8000000715256,10,1,experiment,NA,NA,1,0.3,0.7,3,2,114,3,NA
fcp-trial,149,611416,0.0-124.0-0.0,voc_e2,11802,"[{""event"":""fullscreenenter"",""trial"":1,""time"":5420}]",NA,NA,NA,NA,NA,2,#741CD8,#D8271C,0,0,0,38,1,576.3000000715256,37,1,533.1000000238419,0,0,experiment,NA,NA,0,0.1,0.9,1,0,115,3,NA
fcp-trial,150,614195,0.0-125.0-0.0,voc_e2,11802,"[{""event"":""fullscreenenter"",""trial"":1,""time"":5420}]",NA,NA,NA,NA,NA,1,#D89F1C,#3386FF,10,10,0,38,1,892.8999999761581,39,0,383.5,10,1,experiment,NA,NA,2,0.5,0.5,5,4,116,3,NA
fcp-trial,151,616915,0.0-126.0-0.0,voc_e2,11802,"[{""event"":""fullscreenenter"",""trial"":1,""time"":5420}]",NA,NA,NA,NA,NA,2,#FA92F8,#1CD855,0,0,1,38,1,914.6999999284744,37,1,302.10000002384186,0,1,experiment,NA,NA,1,0.7,0.3,2,3,117,3,NA
fcp-trial,152,619747,0.0-127.0-0.0,voc_e2,11802,"[{""event"":""fullscreenenter"",""trial"":1,""time"":5420}]",NA,NA,NA,NA,NA,0,#3386FF,#D89F1C,0,0,1,38,1,897.6999999284744,37,1,431.10000002384186,0,1,experiment,NA,NA,2,0.5,0.5,4,5,118,3,NA
fcp-trial,153,622643,0.0-128.0-0.0,voc_e2,11802,"[{""event"":""fullscreenenter"",""trial"":1,""time"":5420}]",NA,NA,NA,NA,NA,4,#3386FF,#D89F1C,0,0,1,40,0,849.3999999761581,37,1,542.3999999761581,0,1,experiment,NA,NA,2,0.5,0.5,4,5,119,3,NA
fcp-trial,154,626259,0.0-129.0-0.0,voc_e2,11802,"[{""event"":""fullscreenenter"",""trial"":1,""time"":5420}]",NA,NA,NA,NA,NA,5,#D8271C,#741CD8,10,0,1,38,1,753.3999999761581,37,1,1358.6999999284744,10,1,experiment,NA,NA,0,0.9,0.1,0,1,120,3,NA
fcp-trial,155,629059,0.0-130.0-0.0,voc_e2,11802,"[{""event"":""fullscreenenter"",""trial"":1,""time"":5420}]",NA,NA,NA,NA,NA,1,#1CD855,#FA92F8,0,10,0,38,1,914.7999999523163,39,0,381.8000000715256,10,1,experiment,NA,NA,1,0.3,0.7,3,2,121,3,NA
fcp-trial,156,631859,0.0-131.0-0.0,voc_e2,11802,"[{""event"":""fullscreenenter"",""trial"":1,""time"":5420}]",NA,NA,NA,NA,NA,5,#3386FF,#D89F1C,10,0,1,40,0,705.6999999284744,39,0,591.3999999761581,0,0,experiment,NA,NA,2,0.5,0.5,4,5,122,3,NA
fcp-trial,157,634660,0.0-132.0-0.0,voc_e2,11802,"[{""event"":""fullscreenenter"",""trial"":1,""time"":5420}]",NA,NA,NA,NA,NA,1,#D8271C,#741CD8,10,0,1,38,1,897.4000000953674,39,0,399.8000000715256,0,0,experiment,NA,NA,0,0.9,0.1,0,1,123,3,NA
fcp-trial,158,637779,0.0-133.0-0.0,voc_e2,11802,"[{""event"":""fullscreenenter"",""trial"":1,""time"":5420}]",NA,NA,NA,NA,NA,0,#1CD855,#FA92F8,0,10,0,38,1,1312.7999999523163,39,0,303.5,10,1,experiment,NA,NA,1,0.3,0.7,3,2,124,3,NA
fcp-trial,159,640995,0.0-134.0-0.0,voc_e2,11802,"[{""event"":""fullscreenenter"",""trial"":1,""time"":5420}]",NA,NA,NA,NA,NA,6,#D89F1C,#3386FF,10,10,0,40,0,882.5,37,1,829.2999999523163,10,0,experiment,NA,NA,2,0.5,0.5,5,4,125,3,NA
fcp-trial,160,644547,0.0-135.0-0.0,voc_e2,11802,"[{""event"":""fullscreenenter"",""trial"":1,""time"":5420}]",NA,NA,NA,NA,NA,3,#741CD8,#D8271C,0,10,0,38,1,1793.2000000476837,37,1,255.60000002384183,0,0,experiment,NA,NA,0,0.1,0.9,1,0,126,3,NA
fcp-trial,161,647635,0.0-136.0-0.0,voc_e2,11802,"[{""event"":""fullscreenenter"",""trial"":1,""time"":5420}]",NA,NA,NA,NA,NA,2,#D8271C,#741CD8,10,10,1,40,0,1184.7999999523163,37,1,399.5,10,1,experiment,NA,NA,0,0.9,0.1,0,1,127,3,NA
fcp-trial,162,650597,0.0-137.0-0.0,voc_e2,11802,"[{""event"":""fullscreenenter"",""trial"":1,""time"":5420}]",NA,NA,NA,NA,NA,6,#FA92F8,#1CD855,10,0,1,40,0,897.1000000238419,39,0,559.2999999523163,0,0,experiment,NA,NA,1,0.7,0.3,2,3,128,3,NA
fcp-trial,163,653827,0.0-138.0-0.0,voc_e2,11802,"[{""event"":""fullscreenenter"",""trial"":1,""time"":5420}]",NA,NA,NA,NA,NA,1,#D89F1C,#3386FF,0,0,0,38,1,1231.7999999523163,39,0,495.1999999284744,0,1,experiment,NA,NA,2,0.5,0.5,5,4,129,3,NA
fcp-trial,164,656371,0.0-139.0-0.0,voc_e2,11802,"[{""event"":""fullscreenenter"",""trial"":1,""time"":5420}]",NA,NA,NA,NA,NA,5,#FA92F8,#1CD855,10,10,1,38,1,497.10000002384186,37,1,542.8000000715256,10,1,experiment,NA,NA,1,0.7,0.3,2,3,130,3,NA
fcp-trial,165,659347,0.0-140.0-0.0,voc_e2,11802,"[{""event"":""fullscreenenter"",""trial"":1,""time"":5420}]",NA,NA,NA,NA,NA,5,#3386FF,#D89F1C,0,10,1,40,0,673.2999999523163,39,0,798.5,10,0,experiment,NA,NA,2,0.5,0.5,4,5,131,3,NA
fcp-trial,166,662595,0.0-141.0-0.0,voc_e2,11802,"[{""event"":""fullscreenenter"",""trial"":1,""time"":5420}]",NA,NA,NA,NA,NA,3,#D8271C,#741CD8,10,0,1,38,1,1170.5,37,1,574.3000000715256,10,1,experiment,NA,NA,0,0.9,0.1,0,1,132,3,NA
fcp-trial,167,665523,0.0-142.0-0.0,voc_e2,11802,"[{""event"":""fullscreenenter"",""trial"":1,""time"":5420}]",NA,NA,NA,NA,NA,0,#3386FF,#D89F1C,10,10,1,38,1,928.5,37,1,495.8000000715256,10,1,experiment,NA,NA,2,0.5,0.5,4,5,133,3,NA
fcp-trial,168,668339,0.0-143.0-0.0,voc_e2,11802,"[{""event"":""fullscreenenter"",""trial"":1,""time"":5420}]",NA,NA,NA,NA,NA,3,#FA92F8,#1CD855,0,10,1,40,0,736.7999999523163,39,0,574.2999999523163,10,0,experiment,NA,NA,1,0.7,0.3,2,3,134,3,NA
fcp-trial,169,671154,0.0-144.0-0.0,voc_e2,11802,"[{""event"":""fullscreenenter"",""trial"":1,""time"":5420}]",NA,NA,NA,NA,NA,5,#D8271C,#741CD8,10,0,1,40,0,800.7000000476837,39,0,511.5,0,0,experiment,NA,NA,0,0.9,0.1,0,1,135,3,NA
fcp-trial,170,674387,0.0-145.0-0.0,voc_e2,11802,"[{""event"":""fullscreenenter"",""trial"":1,""time"":5420}]",NA,NA,NA,NA,NA,6,#3386FF,#D89F1C,0,10,1,40,0,1122.3999999761581,39,0,605.8999999761581,10,0,experiment,NA,NA,2,0.5,0.5,4,5,136,4,NA
fcp-trial,171,677106,0.0-146.0-0.0,voc_e2,11802,"[{""event"":""fullscreenenter"",""trial"":1,""time"":5420}]",NA,NA,NA,NA,NA,4,#D89F1C,#3386FF,10,0,0,40,0,816.8999999761581,39,0,399.2000000476837,0,1,experiment,NA,NA,2,0.5,0.5,5,4,137,4,NA
fcp-trial,172,680130,0.0-147.0-0.0,voc_e2,11802,"[{""event"":""fullscreenenter"",""trial"":1,""time"":5420}]",NA,NA,NA,NA,NA,4,#D8271C,#741CD8,10,0,1,40,0,1057.7999999523163,39,0,462.7000000476837,0,0,experiment,NA,NA,0,0.9,0.1,0,1,138,4,NA
fcp-trial,173,682819,0.0-148.0-0.0,voc_e2,11802,"[{""event"":""fullscreenenter"",""trial"":1,""time"":5420}]",NA,NA,NA,NA,NA,4,#1CD855,#FA92F8,0,0,0,40,0,657.1000000238419,37,1,527.6000000238419,0,0,experiment,NA,NA,1,0.3,0.7,3,2,139,4,NA
fcp-trial,174,685378,0.0-149.0-0.0,voc_e2,11802,"[{""event"":""fullscreenenter"",""trial"":1,""time"":5420}]",NA,NA,NA,NA,NA,6,#D8271C,#741CD8,10,0,1,40,0,641,39,0,414.5,0,0,experiment,NA,NA,0,0.9,0.1,0,1,140,4,NA
fcp-trial,175,688018,0.0-150.0-0.0,voc_e2,11802,"[{""event"":""fullscreenenter"",""trial"":1,""time"":5420}]",NA,NA,NA,NA,NA,2,#3386FF,#D89F1C,10,10,1,38,1,704.7999999523163,37,1,430.1999999284744,10,1,experiment,NA,NA,2,0.5,0.5,4,5,141,4,NA
fcp-trial,176,691843,0.0-151.0-0.0,voc_e2,11802,"[{""event"":""fullscreenenter"",""trial"":1,""time"":5420}]",NA,NA,NA,NA,NA,1,#741CD8,#D8271C,0,10,0,38,1,1137.3000000715256,39,0,1182.8000000715256,10,1,experiment,NA,NA,0,0.1,0.9,1,0,142,4,NA
fcp-trial,177,695364,0.0-152.0-0.0,voc_e2,11802,"[{""event"":""fullscreenenter"",""trial"":1,""time"":5420}]",NA,NA,NA,NA,NA,3,#3386FF,#D89F1C,0,0,1,38,1,655.6000000238419,37,1,1359.600000023842,0,1,experiment,NA,NA,2,0.5,0.5,4,5,143,4,NA
fcp-trial,178,697938,0.0-153.0-0.0,voc_e2,11802,"[{""event"":""fullscreenenter"",""trial"":1,""time"":5420}]",NA,NA,NA,NA,NA,0,#FA92F8,#1CD855,10,0,1,38,1,766.8000000715256,37,1,301.7999999523163,10,1,experiment,NA,NA,1,0.7,0.3,2,3,144,4,NA
fcp-trial,179,701073,0.0-154.0-0.0,voc_e2,11802,"[{""event"":""fullscreenenter"",""trial"":1,""time"":5420}]",NA,NA,NA,NA,NA,2,#1CD855,#FA92F8,0,0,0,38,1,1056.7000000476837,39,0,574.8999999761581,0,1,experiment,NA,NA,1,0.3,0.7,3,2,145,4,NA
fcp-trial,180,704083,0.0-155.0-0.0,voc_e2,11802,"[{""event"":""fullscreenenter"",""trial"":1,""time"":5420}]",NA,NA,NA,NA,NA,0,#D8271C,#741CD8,10,0,1,38,1,1057.5,37,1,447.09999990463257,10,1,experiment,NA,NA,0,0.9,0.1,0,1,146,4,NA
fcp-trial,181,706450,0.0-156.0-0.0,voc_e2,11802,"[{""event"":""fullscreenenter"",""trial"":1,""time"":5420}]",NA,NA,NA,NA,NA,1,#FA92F8,#1CD855,10,0,1,38,1,449.7000000476837,37,1,413.10000002384186,10,1,experiment,NA,NA,1,0.7,0.3,2,3,147,4,NA
fcp-trial,182,708866,0.0-157.0-0.0,voc_e2,11802,"[{""event"":""fullscreenenter"",""trial"":1,""time"":5420}]",NA,NA,NA,NA,NA,1,#D89F1C,#3386FF,10,10,0,38,1,545.6999999284744,39,0,366.7999999523163,10,1,experiment,NA,NA,2,0.5,0.5,5,4,148,4,NA
fcp-trial,183,711458,0.0-158.0-0.0,voc_e2,11802,"[{""event"":""fullscreenenter"",""trial"":1,""time"":5420}]",NA,NA,NA,NA,NA,3,#1CD855,#FA92F8,0,10,0,38,1,752.8999999761581,39,0,335.7999999523163,10,1,experiment,NA,NA,1,0.3,0.7,3,2,149,4,NA
fcp-trial,184,714081,0.0-159.0-0.0,voc_e2,11802,"[{""event"":""fullscreenenter"",""trial"":1,""time"":5420}]",NA,NA,NA,NA,NA,1,#741CD8,#D8271C,0,10,0,38,1,672.7999999523163,39,0,447.6999999284744,10,1,experiment,NA,NA,0,0.1,0.9,1,0,150,4,NA
fcp-trial,185,716642,0.0-160.0-0.0,voc_e2,11802,"[{""event"":""fullscreenenter"",""trial"":1,""time"":5420}]",NA,NA,NA,NA,NA,2,#741CD8,#D8271C,0,10,0,38,1,595,39,0,462,10,1,experiment,NA,NA,0,0.1,0.9,1,0,151,4,NA
fcp-trial,186,719394,0.0-161.0-0.0,voc_e2,11802,"[{""event"":""fullscreenenter"",""trial"":1,""time"":5420}]",NA,NA,NA,NA,NA,5,#3386FF,#D89F1C,10,10,1,40,0,800.8000000715256,39,0,446.2000000476837,10,0,experiment,NA,NA,2,0.5,0.5,4,5,152,4,NA
fcp-trial,187,722113,0.0-162.0-0.0,voc_e2,11802,"[{""event"":""fullscreenenter"",""trial"":1,""time"":5420}]",NA,NA,NA,NA,NA,1,#FA92F8,#1CD855,10,10,1,38,1,848.8000000715256,37,1,366.60000002384186,10,1,experiment,NA,NA,1,0.7,0.3,2,3,153,4,NA
fcp-trial,188,724610,0.0-163.0-0.0,voc_e2,11802,"[{""event"":""fullscreenenter"",""trial"":1,""time"":5420}]",NA,NA,NA,NA,NA,0,#FA92F8,#1CD855,10,0,1,38,1,657.5,37,1,335.60000002384186,10,1,experiment,NA,NA,1,0.7,0.3,2,3,154,4,NA
fcp-trial,189,727857,0.0-164.0-0.0,voc_e2,11802,"[{""event"":""fullscreenenter"",""trial"":1,""time"":5420}]",NA,NA,NA,NA,NA,6,#741CD8,#D8271C,0,10,0,40,0,722.1999999284744,37,1,1021.2000000476836,0,0,experiment,NA,NA,0,0.1,0.9,1,0,155,4,NA
fcp-trial,190,731057,0.0-165.0-0.0,voc_e2,11802,"[{""event"":""fullscreenenter"",""trial"":1,""time"":5420}]",NA,NA,NA,NA,NA,2,#3386FF,#D89F1C,10,0,1,38,1,978.1999999284744,37,1,718.7999999523163,10,1,experiment,NA,NA,2,0.5,0.5,4,5,156,4,NA
fcp-trial,191,733971,0.0-166.0-0.0,voc_e2,11802,"[{""event"":""fullscreenenter"",""trial"":1,""time"":5420}]",NA,NA,NA,NA,NA,2,#1CD855,#FA92F8,10,0,0,38,1,1057.5,39,0,351.10000002384186,0,1,experiment,NA,NA,1,0.3,0.7,3,2,157,4,NA
fcp-trial,192,736979,0.0-167.0-0.0,voc_e2,11802,"[{""event"":""fullscreenenter"",""trial"":1,""time"":5420}]",NA,NA,NA,NA,NA,5,#D8271C,#741CD8,10,0,1,40,0,1055.7000000476837,37,1,448.7999999523163,10,1,experiment,NA,NA,0,0.9,0.1,0,1,158,4,NA
fcp-trial,193,739681,0.0-168.0-0.0,voc_e2,11802,"[{""event"":""fullscreenenter"",""trial"":1,""time"":5420}]",NA,NA,NA,NA,NA,0,#3386FF,#D89F1C,0,0,1,38,1,847,37,1,351.7999999523163,0,1,experiment,NA,NA,2,0.5,0.5,4,5,159,4,NA
fcp-trial,194,742386,0.0-169.0-0.0,voc_e2,11802,"[{""event"":""fullscreenenter"",""trial"":1,""time"":5420}]",NA,NA,NA,NA,NA,4,#1CD855,#FA92F8,0,10,0,40,0,801,39,0,398.7999999523163,10,1,experiment,NA,NA,1,0.3,0.7,3,2,160,4,NA
fcp-trial,195,745601,0.0-170.0-0.0,voc_e2,11802,"[{""event"":""fullscreenenter"",""trial"":1,""time"":5420}]",NA,NA,NA,NA,NA,3,#3386FF,#D89F1C,0,0,1,38,1,848.5999999046326,37,1,863.6000000238419,0,1,experiment,NA,NA,2,0.5,0.5,4,5,161,4,NA
fcp-trial,196,748625,0.0-171.0-0.0,voc_e2,11802,"[{""event"":""fullscreenenter"",""trial"":1,""time"":5420}]",NA,NA,NA,NA,NA,4,#741CD8,#D8271C,0,10,0,40,0,1042.5,37,1,477.40000009536743,0,0,experiment,NA,NA,0,0.1,0.9,1,0,162,4,NA
fcp-trial,197,751889,0.0-172.0-0.0,voc_e2,11802,"[{""event"":""fullscreenenter"",""trial"":1,""time"":5420}]",NA,NA,NA,NA,NA,4,#D89F1C,#3386FF,0,10,0,40,0,1281.8000000715256,37,1,479.7000000476837,0,0,experiment,NA,NA,2,0.5,0.5,5,4,163,4,NA
fcp-trial,198,754578,0.0-173.0-0.0,voc_e2,11802,"[{""event"":""fullscreenenter"",""trial"":1,""time"":5420}]",NA,NA,NA,NA,NA,6,#3386FF,#D89F1C,10,0,1,40,0,737.7999999523163,39,0,445.89999997615814,0,0,experiment,NA,NA,2,0.5,0.5,4,5,164,4,NA
fcp-trial,199,757394,0.0-174.0-0.0,voc_e2,11802,"[{""event"":""fullscreenenter"",""trial"":1,""time"":5420}]",NA,NA,NA,NA,NA,6,#FA92F8,#1CD855,10,10,1,40,0,800.3000000715256,39,0,511.6999999284744,10,0,experiment,NA,NA,1,0.7,0.3,2,3,165,4,NA
fcp-trial,200,760289,0.0-175.0-0.0,voc_e2,11802,"[{""event"":""fullscreenenter"",""trial"":1,""time"":5420}]",NA,NA,NA,NA,NA,3,#741CD8,#D8271C,0,10,0,38,1,1025.3999999761581,37,1,366.5,0,0,experiment,NA,NA,0,0.1,0.9,1,0,166,4,NA
fcp-trial,201,764258,0.0-176.0-0.0,voc_e2,11802,"[{""event"":""fullscreenenter"",""trial"":1,""time"":5420}]",NA,NA,NA,NA,NA,5,#1CD855,#FA92F8,0,10,0,40,0,2048.899999976158,39,0,415.7999999523163,10,1,experiment,NA,NA,1,0.3,0.7,3,2,167,4,NA
fcp-trial,202,767009,0.0-177.0-0.0,voc_e2,11802,"[{""event"":""fullscreenenter"",""trial"":1,""time"":5420}]",NA,NA,NA,NA,NA,0,#D8271C,#741CD8,10,10,1,38,1,880.7999999523163,39,0,366.60000002384186,10,0,experiment,NA,NA,0,0.9,0.1,0,1,168,4,NA
fcp-trial,203,769722,0.0-178.0-0.0,voc_e2,11802,"[{""event"":""fullscreenenter"",""trial"":1,""time"":5420}]",NA,NA,NA,NA,NA,6,#1CD855,#FA92F8,0,10,0,40,0,737.8000000715256,37,1,462.6999999284744,0,0,experiment,NA,NA,1,0.3,0.7,3,2,169,4,NA
fcp-trial,204,772514,0.0-179.0-0.0,voc_e2,11802,"[{""event"":""fullscreenenter"",""trial"":1,""time"":5420}]",NA,NA,NA,NA,NA,1,#D8271C,#741CD8,0,0,1,38,1,937.1999999284744,37,1,350.89999997615814,0,1,experiment,NA,NA,0,0.9,0.1,0,1,170,4,NA
fcp-trial,205,775361,0.0-180.0-0.0,voc_e2,11802,"[{""event"":""fullscreenenter"",""trial"":1,""time"":5420}]",NA,NA,NA,NA,NA,3,#D8271C,#741CD8,10,0,1,40,0,928.3999999761581,39,0,415,0,0,experiment,NA,NA,0,0.9,0.1,0,1,171,4,NA
fcp-trial,206,778481,0.0-181.0-0.0,voc_e2,11802,"[{""event"":""fullscreenenter"",""trial"":1,""time"":5420}]",NA,NA,NA,NA,NA,5,#FA92F8,#1CD855,0,0,1,40,0,1201.5,39,0,414.7000000476837,0,0,experiment,NA,NA,1,0.7,0.3,2,3,172,4,NA
fcp-trial,207,781458,0.0-182.0-0.0,voc_e2,11802,"[{""event"":""fullscreenenter"",""trial"":1,""time"":5420}]",NA,NA,NA,NA,NA,2,#741CD8,#D8271C,10,10,0,38,1,1057.4000000953674,39,0,415.60000002384186,10,1,experiment,NA,NA,0,0.1,0.9,1,0,173,4,NA
fcp-trial,208,784097,0.0-183.0-0.0,voc_e2,11802,"[{""event"":""fullscreenenter"",""trial"":1,""time"":5420}]",NA,NA,NA,NA,NA,0,#1CD855,#FA92F8,0,0,0,38,1,769.2999999523163,39,0,366.59999990463257,0,1,experiment,NA,NA,1,0.3,0.7,3,2,174,4,NA
fcp-trial,209,786689,0.0-184.0-0.0,voc_e2,11802,"[{""event"":""fullscreenenter"",""trial"":1,""time"":5420}]",NA,NA,NA,NA,NA,4,#D8271C,#741CD8,0,0,1,38,1,624.3999999761581,37,1,463.3000000715256,0,1,experiment,NA,NA,0,0.9,0.1,0,1,175,4,NA
fcp-trial,210,789072,0.0-185.0-0.0,voc_e2,11802,"[{""event"":""fullscreenenter"",""trial"":1,""time"":5420}]",NA,NA,NA,NA,NA,2,#1CD855,#FA92F8,10,0,0,38,1,543.7999999523163,39,0,335.10000002384186,0,1,experiment,NA,NA,1,0.3,0.7,3,2,176,4,NA
fcp-trial,211,791537,0.0-186.0-0.0,voc_e2,11802,"[{""event"":""fullscreenenter"",""trial"":1,""time"":5420}]",NA,NA,NA,NA,NA,1,#1CD855,#FA92F8,10,0,0,38,1,641.7000000476837,39,0,319.8000000715256,0,1,experiment,NA,NA,1,0.3,0.7,3,2,177,4,NA
fcp-trial,212,795008,0.0-187.0-0.0,voc_e2,11802,"[{""event"":""fullscreenenter"",""trial"":1,""time"":5420}]",NA,NA,NA,NA,NA,6,#3386FF,#D89F1C,0,10,1,38,1,721.6000000238419,37,1,1246.2999999523165,0,1,experiment,NA,NA,2,0.5,0.5,4,5,178,4,NA
fcp-trial,213,797458,0.0-188.0-0.0,voc_e2,11802,"[{""event"":""fullscreenenter"",""trial"":1,""time"":5420}]",NA,NA,NA,NA,NA,1,#3386FF,#D89F1C,10,0,1,38,1,578,37,1,367,10,1,experiment,NA,NA,2,0.5,0.5,4,5,179,4,NA
fcp-trial,214,800080,0.0-189.0-0.0,voc_e2,11802,"[{""event"":""fullscreenenter"",""trial"":1,""time"":5420}]",NA,NA,NA,NA,NA,6,#D8271C,#741CD8,10,0,1,38,1,656,37,1,461.89999997615814,10,1,experiment,NA,NA,0,0.9,0.1,0,1,180,4,NA
fcp-trial,215,802736,0.0-190.0-0.0,voc_e2,11802,"[{""event"":""fullscreenenter"",""trial"":1,""time"":5420}]",NA,NA,NA,NA,NA,4,#FA92F8,#1CD855,10,10,1,38,1,561,37,1,591.1999999284744,10,1,experiment,NA,NA,1,0.7,0.3,2,3,181,5,NA
fcp-trial,216,805584,0.0-191.0-0.0,voc_e2,11802,"[{""event"":""fullscreenenter"",""trial"":1,""time"":5420}]",NA,NA,NA,NA,NA,5,#D8271C,#741CD8,10,0,1,40,0,787,39,0,558.0999999046326,0,0,experiment,NA,NA,0,0.9,0.1,0,1,182,5,NA
fcp-trial,217,808288,0.0-192.0-0.0,voc_e2,11802,"[{""event"":""fullscreenenter"",""trial"":1,""time"":5420}]",NA,NA,NA,NA,NA,5,#D89F1C,#3386FF,10,10,0,40,0,705.5999999046326,37,1,494.10000002384186,10,0,experiment,NA,NA,2,0.5,0.5,5,4,183,5,NA
fcp-trial,218,810976,0.0-193.0-0.0,voc_e2,11802,"[{""event"":""fullscreenenter"",""trial"":1,""time"":5420}]",NA,NA,NA,NA,NA,2,#D89F1C,#3386FF,0,0,0,38,1,721.2000000476837,39,0,461.89999997615814,0,1,experiment,NA,NA,2,0.5,0.5,5,4,184,5,NA
fcp-trial,219,813840,0.0-194.0-0.0,voc_e2,11802,"[{""event"":""fullscreenenter"",""trial"":1,""time"":5420}]",NA,NA,NA,NA,NA,3,#FA92F8,#1CD855,10,0,1,38,1,752.7999999523163,37,1,607,10,1,experiment,NA,NA,1,0.7,0.3,2,3,185,5,NA
fcp-trial,220,817008,0.0-195.0-0.0,voc_e2,11802,"[{""event"":""fullscreenenter"",""trial"":1,""time"":5420}]",NA,NA,NA,NA,NA,3,#D89F1C,#3386FF,10,10,0,40,0,1170.6000000238419,37,1,493.09999990463257,10,0,experiment,NA,NA,2,0.5,0.5,5,4,186,5,NA
fcp-trial,221,819968,0.0-196.0-0.0,voc_e2,11802,"[{""event"":""fullscreenenter"",""trial"":1,""time"":5420}]",NA,NA,NA,NA,NA,0,#D8271C,#741CD8,10,10,1,38,1,897.1999999284744,39,0,558.7000000476837,10,0,experiment,NA,NA,0,0.9,0.1,0,1,187,5,NA
fcp-trial,222,823745,0.0-197.0-0.0,voc_e2,11802,"[{""event"":""fullscreenenter"",""trial"":1,""time"":5420}]",NA,NA,NA,NA,NA,0,#D89F1C,#3386FF,0,10,0,38,1,1616.2999999523163,39,0,654.6999999284744,10,1,experiment,NA,NA,2,0.5,0.5,5,4,188,5,NA
fcp-trial,223,826256,0.0-198.0-0.0,voc_e2,11802,"[{""event"":""fullscreenenter"",""trial"":1,""time"":5420}]",NA,NA,NA,NA,NA,4,#D89F1C,#3386FF,10,10,0,38,1,639.8999999761581,39,0,367.89999997615814,10,1,experiment,NA,NA,2,0.5,0.5,5,4,189,5,NA
fcp-trial,224,829121,0.0-199.0-0.0,voc_e2,11802,"[{""event"":""fullscreenenter"",""trial"":1,""time"":5420}]",NA,NA,NA,NA,NA,4,#3386FF,#D89F1C,0,0,1,40,0,739.3000000715256,37,1,621.6999999284744,0,1,experiment,NA,NA,2,0.5,0.5,4,5,190,5,NA
fcp-trial,225,831904,0.0-200.0-0.0,voc_e2,11802,"[{""event"":""fullscreenenter"",""trial"":1,""time"":5420}]",NA,NA,NA,NA,NA,6,#741CD8,#D8271C,0,10,0,40,0,768.0999999046326,39,0,511.09999990463257,10,1,experiment,NA,NA,0,0.1,0.9,1,0,191,5,NA
fcp-trial,226,834959,0.0-201.0-0.0,voc_e2,11802,"[{""event"":""fullscreenenter"",""trial"":1,""time"":5420}]",NA,NA,NA,NA,NA,2,#1CD855,#FA92F8,10,10,0,38,1,1008.5,39,0,543.0999999046326,10,1,experiment,NA,NA,1,0.3,0.7,3,2,192,5,NA
fcp-trial,227,837424,0.0-202.0-0.0,voc_e2,11802,"[{""event"":""fullscreenenter"",""trial"":1,""time"":5420}]",NA,NA,NA,NA,NA,2,#741CD8,#D8271C,0,10,0,38,1,545,39,0,414.10000002384186,10,1,experiment,NA,NA,0,0.1,0.9,1,0,193,5,NA
fcp-trial,228,840223,0.0-203.0-0.0,voc_e2,11802,"[{""event"":""fullscreenenter"",""trial"":1,""time"":5420}]",NA,NA,NA,NA,NA,6,#1CD855,#FA92F8,0,0,0,40,0,850.1999999284744,37,1,445.8000000715256,0,0,experiment,NA,NA,1,0.3,0.7,3,2,194,5,NA
fcp-trial,229,843279,0.0-204.0-0.0,voc_e2,11802,"[{""event"":""fullscreenenter"",""trial"":1,""time"":5420}]",NA,NA,NA,NA,NA,2,#D89F1C,#3386FF,0,0,0,38,1,1250,39,0,302.5,0,1,experiment,NA,NA,2,0.5,0.5,5,4,195,5,NA
fcp-trial,230,846304,0.0-205.0-0.0,voc_e2,11802,"[{""event"":""fullscreenenter"",""trial"":1,""time"":5420}]",NA,NA,NA,NA,NA,3,#1CD855,#FA92F8,0,0,0,40,0,1073.3999999761581,37,1,446.89999997615814,0,0,experiment,NA,NA,1,0.3,0.7,3,2,196,5,NA
fcp-trial,231,849327,0.0-206.0-0.0,voc_e2,11802,"[{""event"":""fullscreenenter"",""trial"":1,""time"":5420}]",NA,NA,NA,NA,NA,1,#741CD8,#D8271C,0,10,0,38,1,609,39,0,910.7999999523164,10,1,experiment,NA,NA,0,0.1,0.9,1,0,197,5,NA
fcp-trial,232,851856,0.0-207.0-0.0,voc_e2,11802,"[{""event"":""fullscreenenter"",""trial"":1,""time"":5420}]",NA,NA,NA,NA,NA,1,#3386FF,#D89F1C,10,10,1,38,1,642.8000000715256,37,1,380.7999999523163,10,1,experiment,NA,NA,2,0.5,0.5,4,5,198,5,NA
fcp-trial,233,854479,0.0-208.0-0.0,voc_e2,11802,"[{""event"":""fullscreenenter"",""trial"":1,""time"":5420}]",NA,NA,NA,NA,NA,5,#FA92F8,#1CD855,10,0,1,40,0,689,39,0,431.39999997615814,0,0,experiment,NA,NA,1,0.7,0.3,2,3,199,5,NA
fcp-trial,234,857439,0.0-209.0-0.0,voc_e2,11802,"[{""event"":""fullscreenenter"",""trial"":1,""time"":5420}]",NA,NA,NA,NA,NA,6,#D89F1C,#3386FF,0,0,0,40,0,977.2999999523163,37,1,477.6999999284744,0,0,experiment,NA,NA,2,0.5,0.5,5,4,200,5,NA
fcp-trial,235,860112,0.0-210.0-0.0,voc_e2,11802,"[{""event"":""fullscreenenter"",""trial"":1,""time"":5420}]",NA,NA,NA,NA,NA,5,#D8271C,#741CD8,10,10,1,40,0,721.8999999761581,37,1,447.7000000476837,10,1,experiment,NA,NA,0,0.9,0.1,0,1,201,5,NA
fcp-trial,236,862639,0.0-211.0-0.0,voc_e2,11802,"[{""event"":""fullscreenenter"",""trial"":1,""time"":5420}]",NA,NA,NA,NA,NA,4,#D8271C,#741CD8,10,0,1,40,0,674.2000000476837,37,1,350.7000000476837,10,1,experiment,NA,NA,0,0.9,0.1,0,1,202,5,NA
fcp-trial,237,865279,0.0-212.0-0.0,voc_e2,11802,"[{""event"":""fullscreenenter"",""trial"":1,""time"":5420}]",NA,NA,NA,NA,NA,0,#D89F1C,#3386FF,10,0,0,38,1,737.7999999523163,39,0,399.39999997615814,0,1,experiment,NA,NA,2,0.5,0.5,5,4,203,5,NA
fcp-trial,238,867887,0.0-213.0-0.0,voc_e2,11802,"[{""event"":""fullscreenenter"",""trial"":1,""time"":5420}]",NA,NA,NA,NA,NA,0,#1CD855,#FA92F8,0,10,0,38,1,737.4000000953674,39,0,367.5,10,1,experiment,NA,NA,1,0.3,0.7,3,2,204,5,NA
fcp-trial,239,871056,0.0-214.0-0.0,voc_e2,11802,"[{""event"":""fullscreenenter"",""trial"":1,""time"":5420}]",NA,NA,NA,NA,NA,5,#3386FF,#D89F1C,0,10,1,40,0,1265.7000000476837,39,0,397.7000000476837,10,0,experiment,NA,NA,2,0.5,0.5,4,5,205,5,NA
fcp-trial,240,874175,0.0-215.0-0.0,voc_e2,11802,"[{""event"":""fullscreenenter"",""trial"":1,""time"":5420}]",NA,NA,NA,NA,NA,4,#FA92F8,#1CD855,10,10,1,40,0,961.8000000715256,39,0,653.8000000715256,10,0,experiment,NA,NA,1,0.7,0.3,2,3,206,5,NA
fcp-trial,241,877647,0.0-216.0-0.0,voc_e2,11802,"[{""event"":""fullscreenenter"",""trial"":1,""time"":5420}]",NA,NA,NA,NA,NA,3,#741CD8,#D8271C,0,10,0,40,0,1504.5,37,1,463.39999997615814,0,0,experiment,NA,NA,0,0.1,0.9,1,0,207,5,NA
fcp-trial,242,881232,0.0-217.0-0.0,voc_e2,11802,"[{""event"":""fullscreenenter"",""trial"":1,""time"":5420}]",NA,NA,NA,NA,NA,3,#3386FF,#D89F1C,10,10,1,38,1,1776.8999999761581,37,1,303.60000002384186,10,1,experiment,NA,NA,2,0.5,0.5,4,5,208,5,NA
fcp-trial,243,884142,0.0-218.0-0.0,voc_e2,11802,"[{""event"":""fullscreenenter"",""trial"":1,""time"":5420}]",NA,NA,NA,NA,NA,0,#D8271C,#741CD8,10,0,1,38,1,961.6000000238419,39,0,445.7000000476837,0,0,experiment,NA,NA,0,0.9,0.1,0,1,209,5,NA
fcp-trial,244,886767,0.0-219.0-0.0,voc_e2,11802,"[{""event"":""fullscreenenter"",""trial"":1,""time"":5420}]",NA,NA,NA,NA,NA,1,#1CD855,#FA92F8,0,10,0,38,1,817.3000000715256,39,0,303.39999997615814,10,1,experiment,NA,NA,1,0.3,0.7,3,2,210,5,NA
audio-instructions,245,891812,0.0-220.0,voc_e2,11802,"[{""event"":""fullscreenenter"",""trial"":1,""time"":5420}]",NA,584,static/audio/pause.wav,NA,0,NA,NA,NA,NA,NA,NA,NA,NA,NA,NA,NA,NA,NA,NA,NA,NA,NA,NA,NA,NA,NA,NA,NA,NA,NA
fcp-trial,246,894962,0.0-221.0-0.0,voc_e2,11802,"[{""event"":""fullscreenenter"",""trial"":1,""time"":5420}]",NA,NA,NA,NA,NA,2,#3386FF,#D89F1C,10,10,1,38,1,1308.1000000238419,37,1,328.5,10,1,experiment,NA,NA,2,0.5,0.5,4,5,211,5,NA
fcp-trial,247,897808,0.0-222.0-0.0,voc_e2,11802,"[{""event"":""fullscreenenter"",""trial"":1,""time"":5420}]",NA,NA,NA,NA,NA,1,#741CD8,#D8271C,0,10,0,38,1,733.4000000953674,39,0,602.3000000715256,10,1,experiment,NA,NA,0,0.1,0.9,1,0,212,5,NA
fcp-trial,248,900325,0.0-223.0-0.0,voc_e2,11802,"[{""event"":""fullscreenenter"",""trial"":1,""time"":5420}]",NA,NA,NA,NA,NA,3,#FA92F8,#1CD855,10,0,1,38,1,591.1000000238419,37,1,406.90000009536743,10,1,experiment,NA,NA,1,0.7,0.3,2,3,213,5,NA
fcp-trial,249,903022,0.0-224.0-0.0,voc_e2,11802,"[{""event"":""fullscreenenter"",""trial"":1,""time"":5420}]",NA,NA,NA,NA,NA,3,#3386FF,#D89F1C,0,10,1,38,1,683,37,1,509.7000000476837,0,1,experiment,NA,NA,2,0.5,0.5,4,5,214,5,NA
fcp-trial,250,905783,0.0-225.0-0.0,voc_e2,11802,"[{""event"":""fullscreenenter"",""trial"":1,""time"":5420}]",NA,NA,NA,NA,NA,4,#FA92F8,#1CD855,10,0,1,38,1,625.3999999761581,37,1,621.3999999761581,10,1,experiment,NA,NA,1,0.7,0.3,2,3,215,5,NA
fcp-trial,251,908544,0.0-226.0-0.0,voc_e2,11802,"[{""event"":""fullscreenenter"",""trial"":1,""time"":5420}]",NA,NA,NA,NA,NA,2,#D8271C,#741CD8,10,0,1,38,1,743.2000000476837,37,1,507.60000002384186,10,1,experiment,NA,NA,0,0.9,0.1,0,1,216,5,NA
fcp-trial,252,911358,0.0-227.0-0.0,voc_e2,11802,"[{""event"":""fullscreenenter"",""trial"":1,""time"":5420}]",NA,NA,NA,NA,NA,3,#741CD8,#D8271C,0,10,0,38,1,974.6999999284744,39,0,335.7999999523163,10,1,experiment,NA,NA,0,0.1,0.9,1,0,217,5,NA
fcp-trial,253,913786,0.0-228.0-0.0,voc_e2,11802,"[{""event"":""fullscreenenter"",""trial"":1,""time"":5420}]",NA,NA,NA,NA,NA,2,#1CD855,#FA92F8,10,10,0,38,1,560.6000000238419,39,0,350.89999997615814,10,1,experiment,NA,NA,1,0.3,0.7,3,2,218,5,NA
fcp-trial,254,916333,0.0-229.0-0.0,voc_e2,11802,"[{""event"":""fullscreenenter"",""trial"":1,""time"":5420}]",NA,NA,NA,NA,NA,1,#3386FF,#D89F1C,0,10,1,38,1,645.8999999761581,37,1,390.5,0,1,experiment,NA,NA,2,0.5,0.5,4,5,219,5,NA
fcp-trial,255,918894,0.0-230.0-0.0,voc_e2,11802,"[{""event"":""fullscreenenter"",""trial"":1,""time"":5420}]",NA,NA,NA,NA,NA,1,#FA92F8,#1CD855,10,0,1,38,1,785.5,37,1,269.1999999284744,10,1,experiment,NA,NA,1,0.7,0.3,2,3,220,5,NA
fcp-trial,256,922093,0.0-231.0-0.0,voc_e2,11802,"[{""event"":""fullscreenenter"",""trial"":1,""time"":5420}]",NA,NA,NA,NA,NA,0,#741CD8,#D8271C,10,10,0,38,1,1088.1999999284744,39,0,601.6999999284744,10,1,experiment,NA,NA,0,0.1,0.9,1,0,221,5,NA
fcp-trial,257,925022,0.0-232.0-0.0,voc_e2,11802,"[{""event"":""fullscreenenter"",""trial"":1,""time"":5420}]",NA,NA,NA,NA,NA,5,#FA92F8,#1CD855,10,10,1,40,0,962,37,1,463,10,1,experiment,NA,NA,1,0.7,0.3,2,3,222,5,NA
fcp-trial,258,928094,0.0-233.0-0.0,voc_e2,11802,"[{""event"":""fullscreenenter"",""trial"":1,""time"":5420}]",NA,NA,NA,NA,NA,6,#3386FF,#D89F1C,10,10,1,40,0,1088.7999999523163,39,0,478.6999999284744,10,0,experiment,NA,NA,2,0.5,0.5,4,5,223,5,NA
fcp-trial,259,930638,0.0-234.0-0.0,voc_e2,11802,"[{""event"":""fullscreenenter"",""trial"":1,""time"":5420}]",NA,NA,NA,NA,NA,0,#D89F1C,#3386FF,10,0,0,38,1,672.9000000953674,39,0,366.10000002384186,0,1,experiment,NA,NA,2,0.5,0.5,5,4,224,5,NA
fcp-trial,260,933805,0.0-235.0-0.0,voc_e2,11802,"[{""event"":""fullscreenenter"",""trial"":1,""time"":5420}]",NA,NA,NA,NA,NA,4,#741CD8,#D8271C,0,10,0,40,0,1264.9000000953674,39,0,399.3000000715256,10,1,experiment,NA,NA,0,0.1,0.9,1,0,225,5,NA
fcp-trial,261,936589,0.0-236.0-0.0,voc_e2,11802,"[{""event"":""fullscreenenter"",""trial"":1,""time"":5420}]",NA,NA,NA,NA,NA,4,#3386FF,#D89F1C,10,10,1,40,0,847.1000000238419,37,1,431.10000002384186,10,1,experiment,NA,NA,2,0.5,0.5,4,5,226,6,NA
fcp-trial,262,939166,0.0-237.0-0.0,voc_e2,11802,"[{""event"":""fullscreenenter"",""trial"":1,""time"":5420}]",NA,NA,NA,NA,NA,0,#FA92F8,#1CD855,10,0,1,38,1,738.2000000476837,37,1,334.10000002384186,10,1,experiment,NA,NA,1,0.7,0.3,2,3,227,6,NA
fcp-trial,263,942093,0.0-238.0-0.0,voc_e2,11802,"[{""event"":""fullscreenenter"",""trial"":1,""time"":5420}]",NA,NA,NA,NA,NA,5,#3386FF,#D89F1C,0,10,1,40,0,992.8999999761581,37,1,430.6999999284744,0,1,experiment,NA,NA,2,0.5,0.5,4,5,228,6,NA
fcp-trial,264,944830,0.0-239.0-0.0,voc_e2,11802,"[{""event"":""fullscreenenter"",""trial"":1,""time"":5420}]",NA,NA,NA,NA,NA,6,#FA92F8,#1CD855,10,0,1,40,0,785.3999999761581,39,0,446.5,0,0,experiment,NA,NA,1,0.7,0.3,2,3,229,6,NA
fcp-trial,265,947485,0.0-240.0-0.0,voc_e2,11802,"[{""event"":""fullscreenenter"",""trial"":1,""time"":5420}]",NA,NA,NA,NA,NA,5,#741CD8,#D8271C,0,0,0,40,0,688.7000000476837,37,1,463.8000000715256,0,0,experiment,NA,NA,0,0.1,0.9,1,0,230,6,NA
fcp-trial,266,949998,0.0-241.0-0.0,voc_e2,11802,"[{""event"":""fullscreenenter"",""trial"":1,""time"":5420}]",NA,NA,NA,NA,NA,6,#D8271C,#741CD8,10,0,1,40,0,594.1000000238419,37,1,414.60000002384186,10,1,experiment,NA,NA,0,0.9,0.1,0,1,231,6,NA
fcp-trial,267,952525,0.0-242.0-0.0,voc_e2,11802,"[{""event"":""fullscreenenter"",""trial"":1,""time"":5420}]",NA,NA,NA,NA,NA,5,#FA92F8,#1CD855,0,0,1,40,0,687.6999999284744,37,1,335.09999990463257,0,1,experiment,NA,NA,1,0.7,0.3,2,3,232,6,NA
fcp-trial,268,955341,0.0-243.0-0.0,voc_e2,11802,"[{""event"":""fullscreenenter"",""trial"":1,""time"":5420}]",NA,NA,NA,NA,NA,0,#3386FF,#D89F1C,0,0,1,38,1,961,37,1,352.2000000476837,0,1,experiment,NA,NA,2,0.5,0.5,4,5,233,6,NA
fcp-trial,269,958061,0.0-244.0-0.0,voc_e2,11802,"[{""event"":""fullscreenenter"",""trial"":1,""time"":5420}]",NA,NA,NA,NA,NA,6,#3386FF,#D89F1C,10,0,1,40,0,816.8000000715256,39,0,396.2000000476837,0,0,experiment,NA,NA,2,0.5,0.5,4,5,234,6,NA
fcp-trial,270,962206,0.0-245.0-0.0,voc_e2,11802,"[{""event"":""fullscreenenter"",""trial"":1,""time"":5420}]",NA,NA,NA,NA,NA,0,#741CD8,#D8271C,0,0,0,38,1,1121.9000000953674,39,0,1517.8000000715256,0,1,experiment,NA,NA,0,0.1,0.9,1,0,235,6,NA
fcp-trial,271,964957,0.0-246.0-0.0,voc_e2,11802,"[{""event"":""fullscreenenter"",""trial"":1,""time"":5420}]",NA,NA,NA,NA,NA,6,#1CD855,#FA92F8,0,10,0,40,0,880.6000000238419,39,0,367.2000000476837,10,1,experiment,NA,NA,1,0.3,0.7,3,2,236,6,NA
fcp-trial,272,967453,0.0-247.0-0.0,voc_e2,11802,"[{""event"":""fullscreenenter"",""trial"":1,""time"":5420}]",NA,NA,NA,NA,NA,2,#1CD855,#FA92F8,0,10,0,38,1,609.2000000476837,39,0,382.60000002384186,10,1,experiment,NA,NA,1,0.3,0.7,3,2,237,6,NA
fcp-trial,273,970033,0.0-248.0-0.0,voc_e2,11802,"[{""event"":""fullscreenenter"",""trial"":1,""time"":5420}]",NA,NA,NA,NA,NA,2,#D89F1C,#3386FF,0,0,0,38,1,673.6000000238419,39,0,399.5,0,1,experiment,NA,NA,2,0.5,0.5,5,4,238,6,NA
fcp-trial,274,972575,0.0-249.0-0.0,voc_e2,11802,"[{""event"":""fullscreenenter"",""trial"":1,""time"":5420}]",NA,NA,NA,NA,NA,1,#741CD8,#D8271C,0,10,0,38,1,574.7999999523163,39,0,462,10,1,experiment,NA,NA,0,0.1,0.9,1,0,239,6,NA
fcp-trial,275,974861,0.0-250.0-0.0,voc_e2,11802,"[{""event"":""fullscreenenter"",""trial"":1,""time"":5420}]",NA,NA,NA,NA,NA,0,#1CD855,#FA92F8,0,10,0,38,1,367.89999997615814,39,0,414.6999999284744,10,1,experiment,NA,NA,1,0.3,0.7,3,2,240,6,NA
fcp-trial,276,977549,0.0-251.0-0.0,voc_e2,11802,"[{""event"":""fullscreenenter"",""trial"":1,""time"":5420}]",NA,NA,NA,NA,NA,5,#741CD8,#D8271C,0,10,0,40,0,689.1999999284744,39,0,495.6999999284744,10,1,experiment,NA,NA,0,0.1,0.9,1,0,241,6,NA
fcp-trial,277,979966,0.0-252.0-0.0,voc_e2,11802,"[{""event"":""fullscreenenter"",""trial"":1,""time"":5420}]",NA,NA,NA,NA,NA,2,#D8271C,#741CD8,10,0,1,38,1,513.6000000238419,37,1,399.8000000715256,10,1,experiment,NA,NA,0,0.9,0.1,0,1,242,6,NA
fcp-trial,278,982544,0.0-253.0-0.0,voc_e2,11802,"[{""event"":""fullscreenenter"",""trial"":1,""time"":5420}]",NA,NA,NA,NA,NA,5,#D89F1C,#3386FF,0,10,0,40,0,608.6999999284744,37,1,464.40000009536743,0,0,experiment,NA,NA,2,0.5,0.5,5,4,243,6,NA
fcp-trial,279,984941,0.0-254.0-0.0,voc_e2,11802,"[{""event"":""fullscreenenter"",""trial"":1,""time"":5420}]",NA,NA,NA,NA,NA,4,#1CD855,#FA92F8,0,0,0,38,1,622.2999999523163,39,0,271.2999999523163,0,1,experiment,NA,NA,1,0.3,0.7,3,2,244,6,NA
fcp-trial,280,987469,0.0-255.0-0.0,voc_e2,11802,"[{""event"":""fullscreenenter"",""trial"":1,""time"":5420}]",NA,NA,NA,NA,NA,3,#741CD8,#D8271C,0,10,0,38,1,625.7000000476837,39,0,399.39999997615814,10,1,experiment,NA,NA,0,0.1,0.9,1,0,245,6,NA
fcp-trial,281,990156,0.0-256.0-0.0,voc_e2,11802,"[{""event"":""fullscreenenter"",""trial"":1,""time"":5420}]",NA,NA,NA,NA,NA,4,#741CD8,#D8271C,0,10,0,40,0,737.2000000476837,37,1,447.89999997615814,0,0,experiment,NA,NA,0,0.1,0.9,1,0,246,6,NA
fcp-trial,282,992880,0.0-257.0-0.0,voc_e2,11802,"[{""event"":""fullscreenenter"",""trial"":1,""time"":5420}]",NA,NA,NA,NA,NA,3,#1CD855,#FA92F8,10,0,0,38,1,577.8999999761581,39,0,640.3000000715256,0,1,experiment,NA,NA,1,0.3,0.7,3,2,247,6,NA
fcp-trial,283,995342,0.0-258.0-0.0,voc_e2,11802,"[{""event"":""fullscreenenter"",""trial"":1,""time"":5420}]",NA,NA,NA,NA,NA,4,#D89F1C,#3386FF,0,10,0,40,0,589.5999999046326,39,0,366.60000002384186,10,1,experiment,NA,NA,2,0.5,0.5,5,4,248,6,NA
fcp-trial,284,998093,0.0-259.0-0.0,voc_e2,11802,"[{""event"":""fullscreenenter"",""trial"":1,""time"":5420}]",NA,NA,NA,NA,NA,1,#FA92F8,#1CD855,10,10,1,38,1,960.6000000238419,37,1,287.60000002384186,10,1,experiment,NA,NA,1,0.7,0.3,2,3,249,6,NA
fcp-trial,285,1000669,0.0-260.0-0.0,voc_e2,11802,"[{""event"":""fullscreenenter"",""trial"":1,""time"":5420}]",NA,NA,NA,NA,NA,6,#741CD8,#D8271C,0,10,0,40,0,609.2999999523163,37,1,462.5,0,0,experiment,NA,NA,0,0.1,0.9,1,0,250,6,NA
fcp-trial,286,1003103,0.0-261.0-0.0,voc_e2,11802,"[{""event"":""fullscreenenter"",""trial"":1,""time"":5420}]",NA,NA,NA,NA,NA,1,#3386FF,#D89F1C,10,0,1,38,1,607.8999999761581,37,1,320.5,10,1,experiment,NA,NA,2,0.5,0.5,4,5,251,6,NA
fcp-trial,287,1005741,0.0-262.0-0.0,voc_e2,11802,"[{""event"":""fullscreenenter"",""trial"":1,""time"":5420}]",NA,NA,NA,NA,NA,3,#D89F1C,#3386FF,0,0,0,38,1,815.3999999761581,39,0,319.2999999523163,0,1,experiment,NA,NA,2,0.5,0.5,5,4,252,6,NA
fcp-trial,288,1008221,0.0-263.0-0.0,voc_e2,11802,"[{""event"":""fullscreenenter"",""trial"":1,""time"":5420}]",NA,NA,NA,NA,NA,4,#1CD855,#FA92F8,10,0,0,38,1,689.3999999761581,39,0,286.60000002384186,0,1,experiment,NA,NA,1,0.3,0.7,3,2,253,6,NA
fcp-trial,289,1010557,0.0-264.0-0.0,voc_e2,11802,"[{""event"":""fullscreenenter"",""trial"":1,""time"":5420}]",NA,NA,NA,NA,NA,1,#D8271C,#741CD8,10,0,1,38,1,560.8999999761581,39,0,271.2999999523163,0,0,experiment,NA,NA,0,0.9,0.1,0,1,254,6,NA
fcp-trial,290,1013261,0.0-265.0-0.0,voc_e2,11802,"[{""event"":""fullscreenenter"",""trial"":1,""time"":5420}]",NA,NA,NA,NA,NA,2,#741CD8,#D8271C,0,0,0,38,1,945.6999999284744,39,0,256.6999999284744,0,1,experiment,NA,NA,0,0.1,0.9,1,0,255,6,NA
fcp-trial,291,1015500,0.0-266.0-0.0,voc_e2,11802,"[{""event"":""fullscreenenter"",""trial"":1,""time"":5420}]",NA,NA,NA,NA,NA,1,#1CD855,#FA92F8,0,0,0,38,1,432.60000002384186,39,0,303.1999999284744,0,1,experiment,NA,NA,1,0.3,0.7,3,2,256,6,NA
fcp-trial,292,1017964,0.0-267.0-0.0,voc_e2,11802,"[{""event"":""fullscreenenter"",""trial"":1,""time"":5420}]",NA,NA,NA,NA,NA,3,#3386FF,#D89F1C,10,0,1,38,1,608.9000000953674,37,1,351.5,10,1,experiment,NA,NA,2,0.5,0.5,4,5,257,6,NA
fcp-trial,293,1020989,0.0-268.0-0.0,voc_e2,11802,"[{""event"":""fullscreenenter"",""trial"":1,""time"":5420}]",NA,NA,NA,NA,NA,4,#741CD8,#D8271C,10,10,0,40,0,849.8999999761581,39,0,671.1999999284744,10,1,experiment,NA,NA,0,0.1,0.9,1,0,258,6,NA
fcp-trial,294,1023613,0.0-269.0-0.0,voc_e2,11802,"[{""event"":""fullscreenenter"",""trial"":1,""time"":5420}]",NA,NA,NA,NA,NA,0,#3386FF,#D89F1C,0,0,1,38,1,801.8000000715256,37,1,317.7999999523163,0,1,experiment,NA,NA,2,0.5,0.5,4,5,259,6,NA
fcp-trial,295,1026349,0.0-270.0-0.0,voc_e2,11802,"[{""event"":""fullscreenenter"",""trial"":1,""time"":5420}]",NA,NA,NA,NA,NA,0,#741CD8,#D8271C,0,10,0,38,1,976.8999999761581,39,0,254.29999995231628,10,1,experiment,NA,NA,0,0.1,0.9,1,0,260,6,NA
fcp-trial,296,1030365,0.0-271.0-0.0,voc_e2,11802,"[{""event"":""fullscreenenter"",""trial"":1,""time"":5420}]",NA,NA,NA,NA,NA,3,#FA92F8,#1CD855,10,0,1,38,1,2224.899999976158,37,1,287.7999999523163,10,1,experiment,NA,NA,1,0.7,0.3,2,3,261,6,NA
fcp-trial,297,1033373,0.0-272.0-0.0,voc_e2,11802,"[{""event"":""fullscreenenter"",""trial"":1,""time"":5420}]",NA,NA,NA,NA,NA,1,#D89F1C,#3386FF,10,10,0,38,1,1168.1999999284744,39,0,336.39999997615814,10,1,experiment,NA,NA,2,0.5,0.5,5,4,262,6,NA
fcp-trial,298,1036222,0.0-273.0-0.0,voc_e2,11802,"[{""event"":""fullscreenenter"",""trial"":1,""time"":5420}]",NA,NA,NA,NA,NA,5,#3386FF,#D89F1C,0,10,1,40,0,991.6999999284744,37,1,351.2999999523163,0,1,experiment,NA,NA,2,0.5,0.5,4,5,263,6,NA
fcp-trial,299,1039661,0.0-274.0-0.0,voc_e2,11802,"[{""event"":""fullscreenenter"",""trial"":1,""time"":5420}]",NA,NA,NA,NA,NA,6,#1CD855,#FA92F8,0,10,0,40,0,1343.7999999523163,37,1,590.8999999761581,0,0,experiment,NA,NA,1,0.3,0.7,3,2,264,6,NA
fcp-trial,300,1042620,0.0-275.0-0.0,voc_e2,11802,"[{""event"":""fullscreenenter"",""trial"":1,""time"":5420}]",NA,NA,NA,NA,NA,5,#D8271C,#741CD8,10,0,1,40,0,944.3999999761581,37,1,510.1999999284744,10,1,experiment,NA,NA,0,0.9,0.1,0,1,265,6,NA
fcp-trial,301,1045484,0.0-276.0-0.0,voc_e2,11802,"[{""event"":""fullscreenenter"",""trial"":1,""time"":5420}]",NA,NA,NA,NA,NA,0,#FA92F8,#1CD855,10,10,1,38,1,946.0999999046326,37,1,413.6999999284744,10,1,experiment,NA,NA,1,0.7,0.3,2,3,266,6,NA
fcp-trial,302,1048413,0.0-277.0-0.0,voc_e2,11802,"[{""event"":""fullscreenenter"",""trial"":1,""time"":5420}]",NA,NA,NA,NA,NA,6,#3386FF,#D89F1C,0,0,1,40,0,976.7999999523163,37,1,446.2999999523163,0,1,experiment,NA,NA,2,0.5,0.5,4,5,267,6,NA
fcp-trial,303,1051725,0.0-278.0-0.0,voc_e2,11802,"[{""event"":""fullscreenenter"",""trial"":1,""time"":5420}]",NA,NA,NA,NA,NA,3,#D8271C,#741CD8,10,0,1,38,1,1280.1000000238419,37,1,527.2000000476837,10,1,experiment,NA,NA,0,0.9,0.1,0,1,268,6,NA
fcp-trial,304,1054444,0.0-279.0-0.0,voc_e2,11802,"[{""event"":""fullscreenenter"",""trial"":1,""time"":5420}]",NA,NA,NA,NA,NA,6,#D8271C,#741CD8,10,0,1,40,0,832.1000000238419,37,1,383.2999999523163,10,1,experiment,NA,NA,0,0.9,0.1,0,1,269,6,NA
fcp-trial,305,1057581,0.0-280.0-0.0,voc_e2,11802,"[{""event"":""fullscreenenter"",""trial"":1,""time"":5420}]",NA,NA,NA,NA,NA,2,#3386FF,#D89F1C,0,10,1,38,1,1345.7999999523163,37,1,285.7000000476837,0,1,experiment,NA,NA,2,0.5,0.5,4,5,270,6,NA
fcp-trial,306,1060331,0.0-281.0-0.0,voc_e2,11802,"[{""event"":""fullscreenenter"",""trial"":1,""time"":5420}]",NA,NA,NA,NA,NA,2,#FA92F8,#1CD855,0,0,1,38,1,863.7999999523163,37,1,381.89999997615814,0,1,experiment,NA,NA,1,0.7,0.3,2,3,271,7,NA
fcp-trial,307,1062940,0.0-282.0-0.0,voc_e2,11802,"[{""event"":""fullscreenenter"",""trial"":1,""time"":5420}]",NA,NA,NA,NA,NA,5,#1CD855,#FA92F8,10,0,0,40,0,754.1000000238419,39,0,350.2999999523163,0,1,experiment,NA,NA,1,0.3,0.7,3,2,272,7,NA
fcp-trial,308,1066076,0.0-283.0-0.0,voc_e2,11802,"[{""event"":""fullscreenenter"",""trial"":1,""time"":5420}]",NA,NA,NA,NA,NA,4,#D89F1C,#3386FF,0,10,0,40,0,1361.8000000715256,39,0,270.2000000476837,10,1,experiment,NA,NA,2,0.5,0.5,5,4,273,7,NA
fcp-trial,309,1068572,0.0-284.0-0.0,voc_e2,11802,"[{""event"":""fullscreenenter"",""trial"":1,""time"":5420}]",NA,NA,NA,NA,NA,2,#FA92F8,#1CD855,10,0,1,38,1,690.3000000715256,37,1,301.5,10,1,experiment,NA,NA,1,0.7,0.3,2,3,274,7,NA
fcp-trial,310,1071260,0.0-285.0-0.0,voc_e2,11802,"[{""event"":""fullscreenenter"",""trial"":1,""time"":5420}]",NA,NA,NA,NA,NA,6,#1CD855,#FA92F8,0,10,0,40,0,865.6000000238419,39,0,318.6999999284744,10,1,experiment,NA,NA,1,0.3,0.7,3,2,275,7,NA
fcp-trial,311,1074124,0.0-286.0-0.0,voc_e2,11802,"[{""event"":""fullscreenenter"",""trial"":1,""time"":5420}]",NA,NA,NA,NA,NA,6,#3386FF,#D89F1C,0,10,1,40,0,913.2000000476837,37,1,446.60000002384186,0,1,experiment,NA,NA,2,0.5,0.5,4,5,276,7,NA
fcp-trial,312,1076828,0.0-287.0-0.0,voc_e2,11802,"[{""event"":""fullscreenenter"",""trial"":1,""time"":5420}]",NA,NA,NA,NA,NA,4,#D89F1C,#3386FF,0,0,0,40,0,801.1000000238419,39,0,397.90000009536743,0,1,experiment,NA,NA,2,0.5,0.5,5,4,277,7,NA
fcp-trial,313,1080395,0.0-288.0-0.0,voc_e2,11802,"[{""event"":""fullscreenenter"",""trial"":1,""time"":5420}]",NA,NA,NA,NA,NA,5,#D8271C,#741CD8,10,0,1,40,0,1538.0999999046326,37,1,525.8999999761581,10,1,experiment,NA,NA,0,0.9,0.1,0,1,278,7,NA
fcp-trial,314,1082843,0.0-289.0-0.0,voc_e2,11802,"[{""event"":""fullscreenenter"",""trial"":1,""time"":5420}]",NA,NA,NA,NA,NA,1,#FA92F8,#1CD855,0,0,1,38,1,657.1000000238419,37,1,288,0,1,experiment,NA,NA,1,0.7,0.3,2,3,279,7,NA
fcp-trial,315,1085627,0.0-290.0-0.0,voc_e2,11802,"[{""event"":""fullscreenenter"",""trial"":1,""time"":5420}]",NA,NA,NA,NA,NA,6,#741CD8,#D8271C,0,0,0,40,0,912.7000000476837,39,0,366.89999997615814,0,1,experiment,NA,NA,0,0.1,0.9,1,0,280,7,NA
fcp-trial,316,1088347,0.0-291.0-0.0,voc_e2,11802,"[{""event"":""fullscreenenter"",""trial"":1,""time"":5420}]",NA,NA,NA,NA,NA,1,#D89F1C,#3386FF,0,10,0,38,1,881.1000000238419,39,0,335.8000000715256,10,1,experiment,NA,NA,2,0.5,0.5,5,4,281,7,NA
fcp-trial,317,1091131,0.0-292.0-0.0,voc_e2,11802,"[{""event"":""fullscreenenter"",""trial"":1,""time"":5420}]",NA,NA,NA,NA,NA,1,#741CD8,#D8271C,0,10,0,38,1,913.7999999523163,37,1,366.60000002384186,0,0,experiment,NA,NA,0,0.1,0.9,1,0,282,7,NA
fcp-trial,318,1094059,0.0-293.0-0.0,voc_e2,11802,"[{""event"":""fullscreenenter"",""trial"":1,""time"":5420}]",NA,NA,NA,NA,NA,5,#1CD855,#FA92F8,0,10,0,40,0,897.3000000715256,37,1,527.6000000238419,0,0,experiment,NA,NA,1,0.3,0.7,3,2,283,7,NA
fcp-trial,319,1096795,0.0-294.0-0.0,voc_e2,11802,"[{""event"":""fullscreenenter"",""trial"":1,""time"":5420}]",NA,NA,NA,NA,NA,0,#D89F1C,#3386FF,0,0,0,38,1,928.5999999046326,39,0,303.5,0,1,experiment,NA,NA,2,0.5,0.5,5,4,284,7,NA
fcp-trial,320,1100140,0.0-295.0-0.0,voc_e2,11802,"[{""event"":""fullscreenenter"",""trial"":1,""time"":5420}]",NA,NA,NA,NA,NA,4,#FA92F8,#1CD855,10,0,1,40,0,1264.5999999046326,39,0,574.8999999761581,0,0,experiment,NA,NA,1,0.7,0.3,2,3,285,7,NA
fcp-trial,321,1102923,0.0-296.0-0.0,voc_e2,11802,"[{""event"":""fullscreenenter"",""trial"":1,""time"":5420}]",NA,NA,NA,NA,NA,0,#1CD855,#FA92F8,0,0,0,38,1,1009.6000000238419,39,0,269,0,1,experiment,NA,NA,1,0.3,0.7,3,2,286,7,NA
fcp-trial,322,1105690,0.0-297.0-0.0,voc_e2,11802,"[{""event"":""fullscreenenter"",""trial"":1,""time"":5420}]",NA,NA,NA,NA,NA,4,#D8271C,#741CD8,10,0,1,40,0,912.8000000715256,37,1,351.10000002384186,10,1,experiment,NA,NA,0,0.9,0.1,0,1,287,7,NA
fcp-trial,323,1108426,0.0-298.0-0.0,voc_e2,11802,"[{""event"":""fullscreenenter"",""trial"":1,""time"":5420}]",NA,NA,NA,NA,NA,3,#D89F1C,#3386FF,10,10,0,38,1,819.1000000238419,39,0,412.60000002384186,10,1,experiment,NA,NA,2,0.5,0.5,5,4,288,7,NA
fcp-trial,324,1111195,0.0-299.0-0.0,voc_e2,11802,"[{""event"":""fullscreenenter"",""trial"":1,""time"":5420}]",NA,NA,NA,NA,NA,0,#741CD8,#D8271C,0,10,0,38,1,913.3000000715256,39,0,351,10,1,experiment,NA,NA,0,0.1,0.9,1,0,289,7,NA
fcp-trial,325,1114075,0.0-300.0-0.0,voc_e2,11802,"[{""event"":""fullscreenenter"",""trial"":1,""time"":5420}]",NA,NA,NA,NA,NA,5,#3386FF,#D89F1C,10,0,1,40,0,1057.5,37,1,318.39999997615814,10,1,experiment,NA,NA,2,0.5,0.5,4,5,290,7,NA
fcp-trial,326,1116890,0.0-301.0-0.0,voc_e2,11802,"[{""event"":""fullscreenenter"",""trial"":1,""time"":5420}]",NA,NA,NA,NA,NA,3,#1CD855,#FA92F8,10,10,0,38,1,961,39,0,351,10,1,experiment,NA,NA,1,0.3,0.7,3,2,291,7,NA
fcp-trial,327,1119515,0.0-302.0-0.0,voc_e2,11802,"[{""event"":""fullscreenenter"",""trial"":1,""time"":5420}]",NA,NA,NA,NA,NA,2,#D89F1C,#3386FF,10,0,0,38,1,769.3000000715256,39,0,351.2000000476837,0,1,experiment,NA,NA,2,0.5,0.5,5,4,292,7,NA
fcp-trial,328,1122666,0.0-303.0-0.0,voc_e2,11802,"[{""event"":""fullscreenenter"",""trial"":1,""time"":5420}]",NA,NA,NA,NA,NA,2,#D8271C,#741CD8,10,0,1,38,1,1296.2999999523163,37,1,350.60000002384186,10,1,experiment,NA,NA,0,0.9,0.1,0,1,293,7,NA
fcp-trial,329,1125578,0.0-304.0-0.0,voc_e2,11802,"[{""event"":""fullscreenenter"",""trial"":1,""time"":5420}]",NA,NA,NA,NA,NA,3,#741CD8,#D8271C,0,10,0,40,0,993.8000000715256,37,1,413.7000000476837,0,0,experiment,NA,NA,0,0.1,0.9,1,0,294,7,NA
fcp-trial,330,1128570,0.0-305.0-0.0,voc_e2,11802,"[{""event"":""fullscreenenter"",""trial"":1,""time"":5420}]",NA,NA,NA,NA,NA,4,#FA92F8,#1CD855,0,0,1,40,0,849.2000000476837,39,0,638.6999999284744,0,0,experiment,NA,NA,1,0.7,0.3,2,3,295,7,NA
fcp-trial,331,1131034,0.0-306.0-0.0,voc_e2,11802,"[{""event"":""fullscreenenter"",""trial"":1,""time"":5420}]",NA,NA,NA,NA,NA,2,#1CD855,#FA92F8,10,10,0,38,1,609.2000000476837,39,0,351.40000009536743,10,1,experiment,NA,NA,1,0.3,0.7,3,2,296,7,NA
fcp-trial,332,1134027,0.0-307.0-0.0,voc_e2,11802,"[{""event"":""fullscreenenter"",""trial"":1,""time"":5420}]",NA,NA,NA,NA,NA,2,#D8271C,#741CD8,10,0,1,38,1,881.5,37,1,607.5,10,1,experiment,NA,NA,0,0.9,0.1,0,1,297,7,NA
fcp-trial,333,1136729,0.0-308.0-0.0,voc_e2,11802,"[{""event"":""fullscreenenter"",""trial"":1,""time"":5420}]",NA,NA,NA,NA,NA,5,#1CD855,#FA92F8,0,10,0,40,0,737.8999999761581,37,1,462.10000002384186,0,0,experiment,NA,NA,1,0.3,0.7,3,2,298,7,NA
fcp-trial,334,1140266,0.0-309.0-0.0,voc_e2,11802,"[{""event"":""fullscreenenter"",""trial"":1,""time"":5420}]",NA,NA,NA,NA,NA,1,#3386FF,#D89F1C,0,0,1,40,0,961.5,39,0,1071.8000000715256,0,0,experiment,NA,NA,2,0.5,0.5,4,5,299,7,NA
fcp-trial,335,1143163,0.0-310.0-0.0,voc_e2,11802,"[{""event"":""fullscreenenter"",""trial"":1,""time"":5420}]",NA,NA,NA,NA,NA,2,#3386FF,#D89F1C,0,10,1,38,1,961.7000000476837,37,1,430.8000000715256,0,1,experiment,NA,NA,2,0.5,0.5,4,5,300,7,NA
fcp-trial,336,1145866,0.0-311.0-0.0,voc_e2,11802,"[{""event"":""fullscreenenter"",""trial"":1,""time"":5420}]",NA,NA,NA,NA,NA,6,#D8271C,#741CD8,10,0,1,40,0,689,37,1,511.2000000476837,10,1,experiment,NA,NA,0,0.9,0.1,0,1,301,7,NA
fcp-trial,337,1148378,0.0-312.0-0.0,voc_e2,11802,"[{""event"":""fullscreenenter"",""trial"":1,""time"":5420}]",NA,NA,NA,NA,NA,0,#D89F1C,#3386FF,0,0,0,38,1,690,39,0,318.7000000476837,0,1,experiment,NA,NA,2,0.5,0.5,5,4,302,7,NA
fcp-trial,338,1151226,0.0-313.0-0.0,voc_e2,11802,"[{""event"":""fullscreenenter"",""trial"":1,""time"":5420}]",NA,NA,NA,NA,NA,6,#FA92F8,#1CD855,10,0,1,40,0,609.2999999523163,39,0,735.6000000238419,0,0,experiment,NA,NA,1,0.7,0.3,2,3,303,7,NA
fcp-trial,339,1154219,0.0-314.0-0.0,voc_e2,11802,"[{""event"":""fullscreenenter"",""trial"":1,""time"":5420}]",NA,NA,NA,NA,NA,5,#D8271C,#741CD8,10,0,1,40,0,961.6000000238419,39,0,526.8999999761581,0,0,experiment,NA,NA,0,0.9,0.1,0,1,304,7,NA
fcp-trial,340,1157914,0.0-315.0-0.0,voc_e2,11802,"[{""event"":""fullscreenenter"",""trial"":1,""time"":5420}]",NA,NA,NA,NA,NA,3,#741CD8,#D8271C,10,10,0,38,1,1536.1999999284744,39,0,655.1999999284744,10,1,experiment,NA,NA,0,0.1,0.9,1,0,305,7,NA
fcp-trial,341,1160938,0.0-316.0-0.0,voc_e2,11802,"[{""event"":""fullscreenenter"",""trial"":1,""time"":5420}]",NA,NA,NA,NA,NA,5,#3386FF,#D89F1C,0,0,1,40,0,1042.3999999761581,39,0,477.2999999523163,0,0,experiment,NA,NA,2,0.5,0.5,4,5,306,7,NA
fcp-trial,342,1163691,0.0-317.0-0.0,voc_e2,11802,"[{""event"":""fullscreenenter"",""trial"":1,""time"":5420}]",NA,NA,NA,NA,NA,3,#1CD855,#FA92F8,0,10,0,38,1,913,39,0,335.3000000715256,10,1,experiment,NA,NA,1,0.3,0.7,3,2,307,7,NA
fcp-trial,343,1166698,0.0-318.0-0.0,voc_e2,11802,"[{""event"":""fullscreenenter"",""trial"":1,""time"":5420}]",NA,NA,NA,NA,NA,0,#741CD8,#D8271C,0,10,0,38,1,1007.8999999761581,39,0,494.60000002384186,10,1,experiment,NA,NA,0,0.1,0.9,1,0,308,7,NA
fcp-trial,344,1169178,0.0-319.0-0.0,voc_e2,11802,"[{""event"":""fullscreenenter"",""trial"":1,""time"":5420}]",NA,NA,NA,NA,NA,0,#FA92F8,#1CD855,0,10,1,38,1,705,37,1,270.89999997615814,0,1,experiment,NA,NA,1,0.7,0.3,2,3,309,7,NA
fcp-trial,345,1171994,0.0-320.0-0.0,voc_e2,11802,"[{""event"":""fullscreenenter"",""trial"":1,""time"":5420}]",NA,NA,NA,NA,NA,3,#D89F1C,#3386FF,0,0,0,38,1,978,39,0,335.2999999523163,0,1,experiment,NA,NA,2,0.5,0.5,5,4,310,7,NA
fcp-trial,346,1175163,0.0-321.0-0.0,voc_e2,11802,"[{""event"":""fullscreenenter"",""trial"":1,""time"":5420}]",NA,NA,NA,NA,NA,4,#D8271C,#741CD8,10,0,1,40,0,1184.6999999284744,39,0,479.3000000715256,0,0,experiment,NA,NA,0,0.9,0.1,0,1,311,7,NA
fcp-trial,347,1177963,0.0-322.0-0.0,voc_e2,11802,"[{""event"":""fullscreenenter"",""trial"":1,""time"":5420}]",NA,NA,NA,NA,NA,6,#3386FF,#D89F1C,0,10,1,40,0,800.1000000238419,37,1,495.60000002384186,0,1,experiment,NA,NA,2,0.5,0.5,4,5,312,7,NA
fcp-trial,348,1180634,0.0-323.0-0.0,voc_e2,11802,"[{""event"":""fullscreenenter"",""trial"":1,""time"":5420}]",NA,NA,NA,NA,NA,1,#741CD8,#D8271C,0,10,0,38,1,720.5,39,0,447.09999990463257,10,1,experiment,NA,NA,0,0.1,0.9,1,0,313,7,NA
fcp-trial,349,1183178,0.0-324.0-0.0,voc_e2,11802,"[{""event"":""fullscreenenter"",""trial"":1,""time"":5420}]",NA,NA,NA,NA,NA,1,#FA92F8,#1CD855,0,0,1,38,1,738.6000000238419,37,1,302,0,1,experiment,NA,NA,1,0.7,0.3,2,3,314,7,NA
fcp-trial,350,1186058,0.0-325.0-0.0,voc_e2,11802,"[{""event"":""fullscreenenter"",""trial"":1,""time"":5420}]",NA,NA,NA,NA,NA,4,#D89F1C,#3386FF,0,10,0,40,0,944.6999999284744,39,0,429.89999997615814,10,1,experiment,NA,NA,2,0.5,0.5,5,4,315,7,NA
audio-instructions,351,1193782,0.0-326.0,voc_e2,11802,"[{""event"":""fullscreenenter"",""trial"":1,""time"":5420}]",NA,2056.8000000715256,static/audio/finished.wav,NA,0,NA,NA,NA,NA,NA,NA,NA,NA,NA,NA,NA,NA,NA,NA,NA,NA,NA,NA,NA,NA,NA,NA,NA,NA,NA
audio-instructions,352,1205894,0.0-327.0-0.0,voc_e2,11802,"[{""event"":""fullscreenenter"",""trial"":1,""time"":5420}]",NA,1278.5,static/audio/explicit1.wav,NA,0,NA,NA,NA,NA,NA,NA,NA,NA,NA,NA,NA,NA,NA,NA,NA,NA,NA,NA,NA,NA,NA,NA,NA,NA,NA
audio-instructions,353,1214094,0.0-327.0-1.0,voc_e2,11802,"[{""event"":""fullscreenenter"",""trial"":1,""time"":5420}]",NA,609.3999999761581,static/audio/explicit2.wav,NA,0,NA,NA,NA,NA,NA,NA,NA,NA,NA,NA,NA,NA,NA,NA,NA,NA,NA,NA,NA,NA,NA,NA,NA,NA,NA
image-slider-response,354,1218604,0.0-328.0,voc_e2,11802,"[{""event"":""fullscreenenter"",""trial"":1,""time"":5420}]",NA,4508.5,static/img/machines/machine4.png,NA,NA,NA,NA,NA,NA,NA,NA,NA,NA,NA,NA,NA,NA,NA,NA,explicit,NA,NA,NA,NA,NA,NA,NA,NA,NA,4
image-slider-response,355,1221583,0.0-329.0,voc_e2,11802,"[{""event"":""fullscreenenter"",""trial"":1,""time"":5420}]",NA,2977.600000023842,static/img/machines/machine2.png,NA,NA,NA,NA,NA,NA,NA,NA,NA,NA,NA,NA,NA,NA,NA,NA,explicit,NA,NA,NA,NA,NA,NA,NA,NA,NA,3
image-slider-response,356,1223496,0.0-330.0,voc_e2,11802,"[{""event"":""fullscreenenter"",""trial"":1,""time"":5420}]",NA,1911.100000023842,static/img/machines/machine5.png,NA,NA,NA,NA,NA,NA,NA,NA,NA,NA,NA,NA,NA,NA,NA,NA,explicit,NA,NA,NA,NA,NA,NA,NA,NA,NA,7
image-slider-response,357,1228413,0.0-331.0,voc_e2,11802,"[{""event"":""fullscreenenter"",""trial"":1,""time"":5420}]",NA,4916.200000047684,static/img/machines/machine1.png,NA,NA,NA,NA,NA,NA,NA,NA,NA,NA,NA,NA,NA,NA,NA,NA,explicit,NA,NA,NA,NA,NA,NA,NA,NA,NA,7
image-slider-response,358,1232509,0.0-332.0,voc_e2,11802,"[{""event"":""fullscreenenter"",""trial"":1,""time"":5420}]",NA,4095.100000023842,static/img/machines/machine6.png,NA,NA,NA,NA,NA,NA,NA,NA,NA,NA,NA,NA,NA,NA,NA,NA,explicit,NA,NA,NA,NA,NA,NA,NA,NA,NA,2
image-slider-response,359,1237801,0.0-333.0,voc_e2,11802,"[{""event"":""fullscreenenter"",""trial"":1,""time"":5420}]",NA,5290.600000023842,static/img/machines/machine3.png,NA,NA,NA,NA,NA,NA,NA,NA,NA,NA,NA,NA,NA,NA,NA,NA,explicit,NA,NA,NA,NA,NA,NA,NA,NA,NA,6
