trial_type,trial_index,time_elapsed,internal_node_id,task_version,subject_id,interactions,success,rt,stimulus,key_press,button_pressed,offer,arcade_color_L,arcade_color_R,arcade_outcome_L,arcade_outcome_R,correct,stage_1_key,stage_1_choice,stage_1_rt,stage_2_key,stage_2_choice,stage_2_rt,stage_3_outcome,accuracy,phase,responses,num_errors,context,reward_prob_L,reward_prob_R,arcade_id_L,arcade_id_R,trial,block,response
pavlovia,0,6,0.0-0.0,voc_e2,11823,[],NA,NA,NA,NA,NA,NA,NA,NA,NA,NA,NA,NA,NA,NA,NA,NA,NA,NA,NA,NA,NA,NA,NA,NA,NA,NA,NA,NA,NA,NA
fullscreen,1,3311,0.0-1.0,voc_e2,11823,"[{""event"":""fullscreenenter"",""trial"":1,""time"":2311}]",TRUE,NA,NA,NA,NA,NA,NA,NA,NA,NA,NA,NA,NA,NA,NA,NA,NA,NA,NA,NA,NA,NA,NA,NA,NA,NA,NA,NA,NA,NA
audio-keyboard-response,2,5452,0.0-2.0,voc_e2,11823,"[{""event"":""fullscreenenter"",""trial"":1,""time"":2311}]",NA,2120,static/audio/beep_loop.wav,32,NA,NA,NA,NA,NA,NA,NA,NA,NA,NA,NA,NA,NA,NA,NA,NA,NA,NA,NA,NA,NA,NA,NA,NA,NA,NA
audio-test,3,7346,0.0-3.0,voc_e2,11823,"[{""event"":""fullscreenenter"",""trial"":1,""time"":2311}]",NA,NA,static/audio/turtle.wav,NA,3,NA,NA,NA,NA,NA,NA,NA,NA,NA,NA,NA,NA,NA,NA,NA,NA,NA,NA,NA,NA,NA,NA,NA,NA,NA
audio-test,4,9384,0.0-4.0,voc_e2,11823,"[{""event"":""fullscreenenter"",""trial"":1,""time"":2311}]",NA,NA,static/audio/shark.wav,NA,2,NA,NA,NA,NA,NA,NA,NA,NA,NA,NA,NA,NA,NA,NA,NA,NA,NA,NA,NA,NA,NA,NA,NA,NA,NA
audio-instructions,5,16925,0.0-5.0-0.0,voc_e2,11823,"[{""event"":""fullscreenenter"",""trial"":1,""time"":2311}]",NA,1754.2999999821186,static/audio/instructions1.wav,NA,0,NA,NA,NA,NA,NA,NA,NA,NA,NA,NA,NA,NA,NA,NA,NA,NA,NA,NA,NA,NA,NA,NA,NA,NA,NA
audio-instructions,6,24689,0.0-5.0-1.0,voc_e2,11823,"[{""event"":""fullscreenenter"",""trial"":1,""time"":2311}]",NA,1029,static/audio/instructions2.wav,NA,0,NA,NA,NA,NA,NA,NA,NA,NA,NA,NA,NA,NA,NA,NA,NA,NA,NA,NA,NA,NA,NA,NA,NA,NA,NA
audio-instructions,7,32610,0.0-5.0-2.0,voc_e2,11823,"[{""event"":""fullscreenenter"",""trial"":1,""time"":2311}]",NA,2109.9000000059605,static/audio/instructions3.wav,NA,0,NA,NA,NA,NA,NA,NA,NA,NA,NA,NA,NA,NA,NA,NA,NA,NA,NA,NA,NA,NA,NA,NA,NA,NA,NA
audio-instructions,8,46902,0.0-5.0-3.0,voc_e2,11823,"[{""event"":""fullscreenenter"",""trial"":1,""time"":2311}]",NA,1061.2000000178814,static/audio/instructions4.wav,NA,0,NA,NA,NA,NA,NA,NA,NA,NA,NA,NA,NA,NA,NA,NA,NA,NA,NA,NA,NA,NA,NA,NA,NA,NA,NA
audio-instructions,9,57479,0.0-5.0-4.0,voc_e2,11823,"[{""event"":""fullscreenenter"",""trial"":1,""time"":2311}]",NA,1189.399999976158,static/audio/instructions5.wav,NA,0,NA,NA,NA,NA,NA,NA,NA,NA,NA,NA,NA,NA,NA,NA,NA,NA,NA,NA,NA,NA,NA,NA,NA,NA,NA
fcp-practice,10,59704,0.0-5.0-5.0-0.0,voc_e2,11823,"[{""event"":""fullscreenenter"",""trial"":1,""time"":2311}]",NA,NA,NA,NA,NA,NA,#EDC948,#46d3c8,10,0,1,null,null,null,37,1,717.5999999940395,10,1,practice,NA,NA,NA,NA,NA,NA,NA,NA,NA,NA
fcp-practice,11,61609,0.0-5.0-5.0-1.0,voc_e2,11823,"[{""event"":""fullscreenenter"",""trial"":1,""time"":2311}]",NA,NA,NA,NA,NA,NA,#EDC948,#46d3c8,10,0,1,null,null,null,37,1,400.40000000596046,10,1,practice,NA,NA,NA,NA,NA,NA,NA,NA,NA,NA
fcp-practice,12,63738,0.0-5.0-5.0-2.0,voc_e2,11823,"[{""event"":""fullscreenenter"",""trial"":1,""time"":2311}]",NA,NA,NA,NA,NA,NA,#EDC948,#46d3c8,0,10,1,null,null,null,37,1,615.5999999940395,0,1,practice,NA,NA,NA,NA,NA,NA,NA,NA,NA,NA
fcp-practice,13,65407,0.0-5.0-5.0-3.0,voc_e2,11823,"[{""event"":""fullscreenenter"",""trial"":1,""time"":2311}]",NA,NA,NA,NA,NA,NA,#EDC948,#46d3c8,10,0,1,null,null,null,37,1,158,10,1,practice,NA,NA,NA,NA,NA,NA,NA,NA,NA,NA
fcp-practice,14,67025,0.0-5.0-5.0-4.0,voc_e2,11823,"[{""event"":""fullscreenenter"",""trial"":1,""time"":2311}]",NA,NA,NA,NA,NA,NA,#EDC948,#46d3c8,10,0,1,null,null,null,37,1,112.90000000596046,10,1,practice,NA,NA,NA,NA,NA,NA,NA,NA,NA,NA
audio-instructions,15,96826,0.0-5.0-6.0,voc_e2,11823,"[{""event"":""fullscreenenter"",""trial"":1,""time"":2311}]",NA,11795.79999998212,static/audio/instructions6.wav,NA,0,NA,NA,NA,NA,NA,NA,NA,NA,NA,NA,NA,NA,NA,NA,NA,NA,NA,NA,NA,NA,NA,NA,NA,NA,NA
audio-instructions,16,117716,0.0-5.0-7.0,voc_e2,11823,"[{""event"":""fullscreenenter"",""trial"":1,""time"":2311}]",NA,1694.9000000059605,static/audio/instructions7.wav,NA,0,NA,NA,NA,NA,NA,NA,NA,NA,NA,NA,NA,NA,NA,NA,NA,NA,NA,NA,NA,NA,NA,NA,NA,NA,NA
audio-instructions,17,129491,0.0-5.0-8.0,voc_e2,11823,"[{""event"":""fullscreenenter"",""trial"":1,""time"":2311}]",NA,2300.2000000178814,static/audio/instructions8.wav,NA,0,NA,NA,NA,NA,NA,NA,NA,NA,NA,NA,NA,NA,NA,NA,NA,NA,NA,NA,NA,NA,NA,NA,NA,NA,NA
fcp-comprehension,18,141660,0.0-5.0-9.0,voc_e2,11823,"[{""event"":""fullscreenenter"",""trial"":1,""time"":2311}]",NA,12168.09999999404,NA,NA,NA,NA,NA,NA,NA,NA,NA,NA,NA,NA,NA,NA,NA,NA,NA,NA,"true,true",0,NA,NA,NA,NA,NA,NA,NA,NA
audio-instructions,19,149550,0.0-6.0-0.0,voc_e2,11823,"[{""event"":""fullscreenenter"",""trial"":1,""time"":2311}]",NA,2339.4000000059605,static/audio/instructions9.wav,NA,0,NA,NA,NA,NA,NA,NA,NA,NA,NA,NA,NA,NA,NA,NA,NA,NA,NA,NA,NA,NA,NA,NA,NA,NA,NA
audio-instructions,20,162250,0.0-6.0-1.0,voc_e2,11823,"[{""event"":""fullscreenenter"",""trial"":1,""time"":2311}]",NA,579.4000000059605,static/audio/instructions10.wav,NA,0,NA,NA,NA,NA,NA,NA,NA,NA,NA,NA,NA,NA,NA,NA,NA,NA,NA,NA,NA,NA,NA,NA,NA,NA,NA
fcp-trial,21,166613,0.0-6.0-2.0,voc_e2,11823,"[{""event"":""fullscreenenter"",""trial"":1,""time"":2311}]",NA,NA,NA,NA,NA,0,#EDC948,#46d3c8,10,10,1,38,1,1676.5999999940395,37,1,1171.5999999940395,10,1,practice,NA,NA,NA,NA,NA,NA,NA,NA,NA,NA
audio-instructions,22,178330,0.0-6.0-3.0,voc_e2,11823,"[{""event"":""fullscreenenter"",""trial"":1,""time"":2311}]",NA,709.5999999940395,static/audio/instructions11.wav,NA,0,NA,NA,NA,NA,NA,NA,NA,NA,NA,NA,NA,NA,NA,NA,NA,NA,NA,NA,NA,NA,NA,NA,NA,NA,NA
fcp-trial,23,181273,0.0-6.0-4.0,voc_e2,11823,"[{""event"":""fullscreenenter"",""trial"":1,""time"":2311}]",NA,NA,NA,NA,NA,6,#EDC948,#46d3c8,10,10,1,40,0,706.4000000059605,39,0,727.6999999880791,10,0,practice,NA,NA,NA,NA,NA,NA,NA,NA,NA,NA
audio-instructions,24,201034,0.0-6.0-5.0,voc_e2,11823,"[{""event"":""fullscreenenter"",""trial"":1,""time"":2311}]",NA,1073.800000011921,static/audio/instructions12.wav,NA,0,NA,NA,NA,NA,NA,NA,NA,NA,NA,NA,NA,NA,NA,NA,NA,NA,NA,NA,NA,NA,NA,NA,NA,NA,NA
audio-instructions,25,209236,0.0-6.0-6.0,voc_e2,11823,"[{""event"":""fullscreenenter"",""trial"":1,""time"":2311}]",NA,605.6999999880791,static/audio/instructions13.wav,NA,0,NA,NA,NA,NA,NA,NA,NA,NA,NA,NA,NA,NA,NA,NA,NA,NA,NA,NA,NA,NA,NA,NA,NA,NA,NA
audio-instructions,26,218220,0.0-6.0-7.0,voc_e2,11823,"[{""event"":""fullscreenenter"",""trial"":1,""time"":2311}]",NA,539.2999999821186,static/audio/instructions14.wav,NA,0,NA,NA,NA,NA,NA,NA,NA,NA,NA,NA,NA,NA,NA,NA,NA,NA,NA,NA,NA,NA,NA,NA,NA,NA,NA
audio-instructions,27,225520,0.0-7.0-0.0,voc_e2,11823,"[{""event"":""fullscreenenter"",""trial"":1,""time"":2311}]",NA,379,static/audio/instructions15.wav,NA,0,NA,NA,NA,NA,NA,NA,NA,NA,NA,NA,NA,NA,NA,NA,NA,NA,NA,NA,NA,NA,NA,NA,NA,NA,NA
audio-instructions,28,232517,0.0-7.0-1.0,voc_e2,11823,"[{""event"":""fullscreenenter"",""trial"":1,""time"":2311}]",NA,166.69999998807907,static/audio/instructions16.wav,NA,0,NA,NA,NA,NA,NA,NA,NA,NA,NA,NA,NA,NA,NA,NA,NA,NA,NA,NA,NA,NA,NA,NA,NA,NA,NA
audio-instructions,29,240623,0.0-7.0-2.0,voc_e2,11823,"[{""event"":""fullscreenenter"",""trial"":1,""time"":2311}]",NA,432.09999999403954,static/audio/instructions17.wav,NA,0,NA,NA,NA,NA,NA,NA,NA,NA,NA,NA,NA,NA,NA,NA,NA,NA,NA,NA,NA,NA,NA,NA,NA,NA,NA
audio-instructions,30,249945,0.0-7.0-3.0,voc_e2,11823,"[{""event"":""fullscreenenter"",""trial"":1,""time"":2311}]",NA,1554.100000023842,static/audio/instructions18.wav,NA,0,NA,NA,NA,NA,NA,NA,NA,NA,NA,NA,NA,NA,NA,NA,NA,NA,NA,NA,NA,NA,NA,NA,NA,NA,NA
audio-instructions,31,257237,0.0-7.0-4.0,voc_e2,11823,"[{""event"":""fullscreenenter"",""trial"":1,""time"":2311}]",NA,546.7999999821186,static/audio/instructions19.wav,NA,0,NA,NA,NA,NA,NA,NA,NA,NA,NA,NA,NA,NA,NA,NA,NA,NA,NA,NA,NA,NA,NA,NA,NA,NA,NA
fcp-comprehension,32,271983,0.0-7.0-5.0,voc_e2,11823,"[{""event"":""fullscreenenter"",""trial"":1,""time"":2311}]",NA,14744.79999998212,NA,NA,NA,NA,NA,NA,NA,NA,NA,NA,NA,NA,NA,NA,NA,NA,NA,NA,"false,false,false,true",0,NA,NA,NA,NA,NA,NA,NA,NA
audio-instructions,33,281859,0.0-8.0,voc_e2,11823,"[{""event"":""fullscreenenter"",""trial"":1,""time"":2311}]",NA,658.4000000059605,static/audio/ready.wav,NA,0,NA,NA,NA,NA,NA,NA,NA,NA,NA,NA,NA,NA,NA,NA,NA,NA,NA,NA,NA,NA,NA,NA,NA,NA,NA
fcp-trial,34,286212,0.0-9.0-0.0,voc_e2,11823,"[{""event"":""fullscreenenter"",""trial"":1,""time"":2311}]",NA,NA,NA,NA,NA,3,#741CD8,#D8271C,0,10,1,38,1,1534.5,37,1,1306.0999999940395,0,1,experiment,NA,NA,2,0.5,0.5,4,5,1,1,NA
fcp-trial,35,289916,0.0-10.0-0.0,voc_e2,11823,"[{""event"":""fullscreenenter"",""trial"":1,""time"":2311}]",NA,NA,NA,NA,NA,5,#FA92F8,#1CD855,0,10,0,40,0,1461,37,1,731.1999999880791,0,0,experiment,NA,NA,1,0.3,0.7,3,2,2,1,NA
fcp-trial,36,292907,0.0-11.0-0.0,voc_e2,11823,"[{""event"":""fullscreenenter"",""trial"":1,""time"":2311}]",NA,NA,NA,NA,NA,3,#3386FF,#D89F1C,0,10,0,38,1,989.5999999940395,39,0,492.59999999403954,10,1,experiment,NA,NA,0,0.1,0.9,1,0,3,1,NA
fcp-trial,37,296372,0.0-12.0-0.0,voc_e2,11823,"[{""event"":""fullscreenenter"",""trial"":1,""time"":2311}]",NA,NA,NA,NA,NA,0,#741CD8,#D8271C,0,10,1,38,1,1134.8999999761581,39,0,813.8000000119209,10,0,experiment,NA,NA,2,0.5,0.5,4,5,4,1,NA
fcp-trial,38,299801,0.0-13.0-0.0,voc_e2,11823,"[{""event"":""fullscreenenter"",""trial"":1,""time"":2311}]",NA,NA,NA,NA,NA,2,#D8271C,#741CD8,0,10,0,38,1,1100.5,37,1,821.3000000119209,0,0,experiment,NA,NA,2,0.5,0.5,5,4,5,1,NA
fcp-trial,39,303176,0.0-14.0-0.0,voc_e2,11823,"[{""event"":""fullscreenenter"",""trial"":1,""time"":2311}]",NA,NA,NA,NA,NA,4,#FA92F8,#1CD855,0,0,0,40,0,1248.300000011921,37,1,606.3999999761581,0,0,experiment,NA,NA,1,0.3,0.7,3,2,6,1,NA
fcp-trial,40,306866,0.0-15.0-0.0,voc_e2,11823,"[{""event"":""fullscreenenter"",""trial"":1,""time"":2311}]",NA,NA,NA,NA,NA,1,#D89F1C,#3386FF,10,0,1,38,1,1040.9000000059605,37,1,1132.7999999821186,10,1,experiment,NA,NA,0,0.9,0.1,0,1,7,1,NA
fcp-trial,41,310682,0.0-16.0-0.0,voc_e2,11823,"[{""event"":""fullscreenenter"",""trial"":1,""time"":2311}]",NA,NA,NA,NA,NA,1,#741CD8,#D8271C,0,10,1,38,1,1031.1000000238419,39,0,1278.2999999821186,10,0,experiment,NA,NA,2,0.5,0.5,4,5,8,1,NA
fcp-trial,42,314256,0.0-17.0-0.0,voc_e2,11823,"[{""event"":""fullscreenenter"",""trial"":1,""time"":2311}]",NA,NA,NA,NA,NA,1,#1CD855,#FA92F8,10,0,1,38,1,1055.199999988079,37,1,1015.0999999940396,10,1,experiment,NA,NA,1,0.7,0.3,2,3,9,1,NA
fcp-trial,43,317944,0.0-18.0-0.0,voc_e2,11823,"[{""event"":""fullscreenenter"",""trial"":1,""time"":2311}]",NA,NA,NA,NA,NA,2,#D89F1C,#3386FF,10,0,1,38,1,936.0999999940395,37,1,1247.600000023842,10,1,experiment,NA,NA,0,0.9,0.1,0,1,10,1,NA
fcp-trial,44,321943,0.0-19.0-0.0,voc_e2,11823,"[{""event"":""fullscreenenter"",""trial"":1,""time"":2311}]",NA,NA,NA,NA,NA,2,#FA92F8,#1CD855,0,10,0,38,1,832.8000000119209,37,1,1663.5999999940395,0,0,experiment,NA,NA,1,0.3,0.7,3,2,11,1,NA
fcp-trial,45,324991,0.0-20.0-0.0,voc_e2,11823,"[{""event"":""fullscreenenter"",""trial"":1,""time"":2311}]",NA,NA,NA,NA,NA,6,#3386FF,#D89F1C,0,10,0,40,0,954.1999999880791,39,0,590.5,10,1,experiment,NA,NA,0,0.1,0.9,1,0,12,1,NA
fcp-trial,46,328055,0.0-21.0-0.0,voc_e2,11823,"[{""event"":""fullscreenenter"",""trial"":1,""time"":2311}]",NA,NA,NA,NA,NA,4,#741CD8,#D8271C,0,0,1,38,1,849.1999999880791,39,0,711,0,0,experiment,NA,NA,2,0.5,0.5,4,5,13,1,NA
fcp-trial,47,330871,0.0-22.0-0.0,voc_e2,11823,"[{""event"":""fullscreenenter"",""trial"":1,""time"":2311}]",NA,NA,NA,NA,NA,6,#D8271C,#741CD8,10,10,0,40,0,762,39,0,551.5999999940395,10,1,experiment,NA,NA,2,0.5,0.5,5,4,14,1,NA
fcp-trial,48,333719,0.0-23.0-0.0,voc_e2,11823,"[{""event"":""fullscreenenter"",""trial"":1,""time"":2311}]",NA,NA,NA,NA,NA,4,#D89F1C,#3386FF,10,0,1,40,0,833.7000000178814,39,0,511.7000000178814,0,0,experiment,NA,NA,0,0.9,0.1,0,1,15,1,NA
fcp-trial,49,336279,0.0-24.0-0.0,voc_e2,11823,"[{""event"":""fullscreenenter"",""trial"":1,""time"":2311}]",NA,NA,NA,NA,NA,6,#1CD855,#FA92F8,0,10,1,40,0,554.0999999940395,37,1,503.39999997615814,0,1,experiment,NA,NA,1,0.7,0.3,2,3,16,1,NA
fcp-trial,50,338982,0.0-25.0-0.0,voc_e2,11823,"[{""event"":""fullscreenenter"",""trial"":1,""time"":2311}]",NA,NA,NA,NA,NA,5,#D8271C,#741CD8,10,10,0,40,0,737.0999999940395,37,1,462.699999988079,10,0,experiment,NA,NA,2,0.5,0.5,5,4,17,1,NA
fcp-trial,51,341887,0.0-26.0-0.0,voc_e2,11823,"[{""event"":""fullscreenenter"",""trial"":1,""time"":2311}]",NA,NA,NA,NA,NA,3,#1CD855,#FA92F8,10,0,1,38,1,842.1999999880791,37,1,559.6999999880791,10,1,experiment,NA,NA,1,0.7,0.3,2,3,18,1,NA
fcp-trial,52,344806,0.0-27.0-0.0,voc_e2,11823,"[{""event"":""fullscreenenter"",""trial"":1,""time"":2311}]",NA,NA,NA,NA,NA,0,#3386FF,#D89F1C,10,10,0,38,1,897.4000000059605,39,0,519.3000000119209,10,1,experiment,NA,NA,0,0.1,0.9,1,0,19,1,NA
fcp-trial,53,348583,0.0-28.0-0.0,voc_e2,11823,"[{""event"":""fullscreenenter"",""trial"":1,""time"":2311}]",NA,NA,NA,NA,NA,0,#FA92F8,#1CD855,0,10,0,38,1,690.2000000178814,39,0,1582.5999999940395,10,1,experiment,NA,NA,1,0.3,0.7,3,2,20,1,NA
fcp-trial,54,351542,0.0-29.0-0.0,voc_e2,11823,"[{""event"":""fullscreenenter"",""trial"":1,""time"":2311}]",NA,NA,NA,NA,NA,5,#3386FF,#D89F1C,0,10,0,40,0,953.3000000119209,37,1,503.800000011921,0,0,experiment,NA,NA,0,0.1,0.9,1,0,21,1,NA
fcp-trial,55,354247,0.0-30.0-0.0,voc_e2,11823,"[{""event"":""fullscreenenter"",""trial"":1,""time"":2311}]",NA,NA,NA,NA,NA,4,#3386FF,#D89F1C,10,10,0,40,0,721.8999999761581,37,1,480.300000011921,10,0,experiment,NA,NA,0,0.1,0.9,1,0,22,1,NA
fcp-trial,56,357078,0.0-31.0-0.0,voc_e2,11823,"[{""event"":""fullscreenenter"",""trial"":1,""time"":2311}]",NA,NA,NA,NA,NA,4,#D8271C,#741CD8,10,0,0,40,0,888.4000000059605,37,1,439.2999999821186,10,0,experiment,NA,NA,2,0.5,0.5,5,4,23,1,NA
fcp-trial,57,359846,0.0-32.0-0.0,voc_e2,11823,"[{""event"":""fullscreenenter"",""trial"":1,""time"":2311}]",NA,NA,NA,NA,NA,2,#D8271C,#741CD8,0,0,0,38,1,697.2999999821186,39,0,566.9000000059605,0,1,experiment,NA,NA,2,0.5,0.5,5,4,24,1,NA
fcp-trial,58,362662,0.0-33.0-0.0,voc_e2,11823,"[{""event"":""fullscreenenter"",""trial"":1,""time"":2311}]",NA,NA,NA,NA,NA,5,#3386FF,#D89F1C,0,10,0,40,0,873.5999999940395,37,1,439.199999988079,0,0,experiment,NA,NA,0,0.1,0.9,1,0,25,1,NA
fcp-trial,59,365390,0.0-34.0-0.0,voc_e2,11823,"[{""event"":""fullscreenenter"",""trial"":1,""time"":2311}]",NA,NA,NA,NA,NA,4,#1CD855,#FA92F8,0,10,1,40,0,738,39,0,487.09999999403954,10,0,experiment,NA,NA,1,0.7,0.3,2,3,26,1,NA
fcp-trial,60,368589,0.0-35.0-0.0,voc_e2,11823,"[{""event"":""fullscreenenter"",""trial"":1,""time"":2311}]",NA,NA,NA,NA,NA,3,#741CD8,#D8271C,10,10,1,38,1,1049.800000011921,37,1,646.6000000238419,10,1,experiment,NA,NA,2,0.5,0.5,4,5,27,1,NA
fcp-trial,61,372134,0.0-36.0-0.0,voc_e2,11823,"[{""event"":""fullscreenenter"",""trial"":1,""time"":2311}]",NA,NA,NA,NA,NA,3,#3386FF,#D89F1C,0,10,0,38,1,722.3000000119209,39,0,1319.4000000059605,10,1,experiment,NA,NA,0,0.1,0.9,1,0,28,1,NA
fcp-trial,62,375093,0.0-37.0-0.0,voc_e2,11823,"[{""event"":""fullscreenenter"",""trial"":1,""time"":2311}]",NA,NA,NA,NA,NA,6,#741CD8,#D8271C,0,10,1,40,0,809.2999999821186,37,1,647.5999999940395,0,1,experiment,NA,NA,2,0.5,0.5,4,5,29,1,NA
fcp-trial,63,377893,0.0-38.0-0.0,voc_e2,11823,"[{""event"":""fullscreenenter"",""trial"":1,""time"":2311}]",NA,NA,NA,NA,NA,3,#1CD855,#FA92F8,10,0,1,38,1,593.6999999880791,39,0,703,0,0,experiment,NA,NA,1,0.7,0.3,2,3,30,1,NA
fcp-trial,64,381030,0.0-39.0-0.0,voc_e2,11823,"[{""event"":""fullscreenenter"",""trial"":1,""time"":2311}]",NA,NA,NA,NA,NA,5,#741CD8,#D8271C,0,10,1,40,0,1058,39,0,575.4000000059605,10,0,experiment,NA,NA,2,0.5,0.5,4,5,31,1,NA
fcp-trial,65,384181,0.0-40.0-0.0,voc_e2,11823,"[{""event"":""fullscreenenter"",""trial"":1,""time"":2311}]",NA,NA,NA,NA,NA,1,#3386FF,#D89F1C,0,10,0,38,1,817.3000000119209,37,1,831.2000000178814,0,0,experiment,NA,NA,0,0.1,0.9,1,0,32,1,NA
fcp-trial,66,387662,0.0-41.0-0.0,voc_e2,11823,"[{""event"":""fullscreenenter"",""trial"":1,""time"":2311}]",NA,NA,NA,NA,NA,5,#FA92F8,#1CD855,0,10,0,40,0,1025.8999999761581,37,1,951.7999999821186,0,0,experiment,NA,NA,1,0.3,0.7,3,2,33,1,NA
fcp-trial,67,390781,0.0-42.0-0.0,voc_e2,11823,"[{""event"":""fullscreenenter"",""trial"":1,""time"":2311}]",NA,NA,NA,NA,NA,2,#FA92F8,#1CD855,10,10,0,38,1,1239.5999999940395,39,0,375,10,1,experiment,NA,NA,1,0.3,0.7,3,2,34,1,NA
fcp-trial,68,393973,0.0-43.0-0.0,voc_e2,11823,"[{""event"":""fullscreenenter"",""trial"":1,""time"":2311}]",NA,NA,NA,NA,NA,6,#D89F1C,#3386FF,10,0,1,40,0,1145.3999999761581,39,0,542.8000000119209,0,0,experiment,NA,NA,0,0.9,0.1,0,1,35,1,NA
fcp-trial,69,398204,0.0-44.0-0.0,voc_e2,11823,"[{""event"":""fullscreenenter"",""trial"":1,""time"":2311}]",NA,NA,NA,NA,NA,0,#D8271C,#741CD8,0,0,0,38,1,1401.699999988079,37,1,1326.9000000059605,0,0,experiment,NA,NA,2,0.5,0.5,5,4,36,1,NA
fcp-trial,70,401725,0.0-45.0-0.0,voc_e2,11823,"[{""event"":""fullscreenenter"",""trial"":1,""time"":2311}]",NA,NA,NA,NA,NA,2,#D89F1C,#3386FF,10,0,1,38,1,1577.800000011921,37,1,439.800000011921,10,1,experiment,NA,NA,0,0.9,0.1,0,1,37,1,NA
fcp-trial,71,404941,0.0-46.0-0.0,voc_e2,11823,"[{""event"":""fullscreenenter"",""trial"":1,""time"":2311}]",NA,NA,NA,NA,NA,6,#1CD855,#FA92F8,10,0,1,40,0,1072.300000011921,37,1,639.4000000059605,10,1,experiment,NA,NA,1,0.7,0.3,2,3,38,1,NA
fcp-trial,72,408637,0.0-47.0-0.0,voc_e2,11823,"[{""event"":""fullscreenenter"",""trial"":1,""time"":2311}]",NA,NA,NA,NA,NA,1,#D8271C,#741CD8,10,0,0,38,1,1361,39,0,830.3000000119209,0,1,experiment,NA,NA,2,0.5,0.5,5,4,39,1,NA
fcp-trial,73,412461,0.0-48.0-0.0,voc_e2,11823,"[{""event"":""fullscreenenter"",""trial"":1,""time"":2311}]",NA,NA,NA,NA,NA,0,#FA92F8,#1CD855,0,0,0,38,1,2000.4000000059605,39,0,319,0,1,experiment,NA,NA,1,0.3,0.7,3,2,40,1,NA
fcp-trial,74,415206,0.0-49.0-0.0,voc_e2,11823,"[{""event"":""fullscreenenter"",""trial"":1,""time"":2311}]",NA,NA,NA,NA,NA,0,#D89F1C,#3386FF,10,0,1,38,1,848.8000000119209,37,1,391.7000000178814,10,1,experiment,NA,NA,0,0.9,0.1,0,1,41,1,NA
fcp-trial,75,417677,0.0-50.0-0.0,voc_e2,11823,"[{""event"":""fullscreenenter"",""trial"":1,""time"":2311}]",NA,NA,NA,NA,NA,1,#FA92F8,#1CD855,0,10,0,38,1,656.1000000238419,39,0,311.40000000596046,10,1,experiment,NA,NA,1,0.3,0.7,3,2,42,1,NA
fcp-trial,76,420661,0.0-51.0-0.0,voc_e2,11823,"[{""event"":""fullscreenenter"",""trial"":1,""time"":2311}]",NA,NA,NA,NA,NA,6,#FA92F8,#1CD855,10,10,0,40,0,1056.199999988079,39,0,422.39999997615814,10,1,experiment,NA,NA,1,0.3,0.7,3,2,43,1,NA
fcp-trial,77,423284,0.0-52.0-0.0,voc_e2,11823,"[{""event"":""fullscreenenter"",""trial"":1,""time"":2311}]",NA,NA,NA,NA,NA,4,#3386FF,#D89F1C,0,10,0,40,0,761,37,1,359,0,0,experiment,NA,NA,0,0.1,0.9,1,0,44,1,NA
fcp-trial,78,426060,0.0-53.0-0.0,voc_e2,11823,"[{""event"":""fullscreenenter"",""trial"":1,""time"":2311}]",NA,NA,NA,NA,NA,3,#D89F1C,#3386FF,10,0,1,38,1,906.2999999821186,37,1,366.7999999821186,10,1,experiment,NA,NA,0,0.9,0.1,0,1,45,1,NA
fcp-trial,79,428869,0.0-54.0-0.0,voc_e2,11823,"[{""event"":""fullscreenenter"",""trial"":1,""time"":2311}]",NA,NA,NA,NA,NA,6,#741CD8,#D8271C,0,10,1,40,0,849.3000000119209,37,1,455.2000000178814,0,1,experiment,NA,NA,2,0.5,0.5,4,5,46,2,NA
fcp-trial,80,431420,0.0-55.0-0.0,voc_e2,11823,"[{""event"":""fullscreenenter"",""trial"":1,""time"":2311}]",NA,NA,NA,NA,NA,1,#1CD855,#FA92F8,10,0,1,38,1,633,39,0,414.90000000596046,0,0,experiment,NA,NA,1,0.7,0.3,2,3,47,2,NA
fcp-trial,81,434172,0.0-56.0-0.0,voc_e2,11823,"[{""event"":""fullscreenenter"",""trial"":1,""time"":2311}]",NA,NA,NA,NA,NA,1,#3386FF,#D89F1C,0,10,0,38,1,809.5999999940395,37,1,439.09999999403954,0,0,experiment,NA,NA,0,0.1,0.9,1,0,48,2,NA
fcp-trial,82,437747,0.0-57.0-0.0,voc_e2,11823,"[{""event"":""fullscreenenter"",""trial"":1,""time"":2311}]",NA,NA,NA,NA,NA,4,#1CD855,#FA92F8,10,0,1,40,0,921.4000000059605,39,0,1150.399999976158,0,0,experiment,NA,NA,1,0.7,0.3,2,3,49,2,NA
fcp-trial,83,440988,0.0-58.0-0.0,voc_e2,11823,"[{""event"":""fullscreenenter"",""trial"":1,""time"":2311}]",NA,NA,NA,NA,NA,5,#FA92F8,#1CD855,0,0,0,40,0,1329.199999988079,39,0,407.59999999403954,0,1,experiment,NA,NA,1,0.3,0.7,3,2,50,2,NA
fcp-trial,84,444347,0.0-59.0-0.0,voc_e2,11823,"[{""event"":""fullscreenenter"",""trial"":1,""time"":2311}]",NA,NA,NA,NA,NA,2,#D8271C,#741CD8,0,0,0,38,1,1041.0999999940395,37,1,815.8000000119209,0,0,experiment,NA,NA,2,0.5,0.5,5,4,51,2,NA
fcp-trial,85,447068,0.0-60.0-0.0,voc_e2,11823,"[{""event"":""fullscreenenter"",""trial"":1,""time"":2311}]",NA,NA,NA,NA,NA,5,#D8271C,#741CD8,0,10,0,40,0,841.8000000119209,39,0,375.40000000596046,10,1,experiment,NA,NA,2,0.5,0.5,5,4,52,2,NA
fcp-trial,86,450948,0.0-61.0-0.0,voc_e2,11823,"[{""event"":""fullscreenenter"",""trial"":1,""time"":2311}]",NA,NA,NA,NA,NA,0,#D89F1C,#3386FF,10,0,1,38,1,1185.0999999940395,37,1,1191.5,10,1,experiment,NA,NA,0,0.9,0.1,0,1,53,2,NA
fcp-trial,87,453811,0.0-62.0-0.0,voc_e2,11823,"[{""event"":""fullscreenenter"",""trial"":1,""time"":2311}]",NA,NA,NA,NA,NA,5,#D89F1C,#3386FF,0,0,1,40,0,977.5,37,1,382.7999999821186,0,1,experiment,NA,NA,0,0.9,0.1,0,1,54,2,NA
fcp-trial,88,457099,0.0-63.0-0.0,voc_e2,11823,"[{""event"":""fullscreenenter"",""trial"":1,""time"":2311}]",NA,NA,NA,NA,NA,3,#FA92F8,#1CD855,0,0,0,38,1,1441.6000000238419,39,0,343,0,1,experiment,NA,NA,1,0.3,0.7,3,2,55,2,NA
fcp-trial,89,460307,0.0-64.0-0.0,voc_e2,11823,"[{""event"":""fullscreenenter"",""trial"":1,""time"":2311}]",NA,NA,NA,NA,NA,4,#D8271C,#741CD8,0,0,0,40,0,1217,39,0,487.40000000596046,0,1,experiment,NA,NA,2,0.5,0.5,5,4,56,2,NA
fcp-trial,90,462883,0.0-65.0-0.0,voc_e2,11823,"[{""event"":""fullscreenenter"",""trial"":1,""time"":2311}]",NA,NA,NA,NA,NA,6,#D89F1C,#3386FF,10,0,1,40,0,586,37,1,486.90000000596046,10,1,experiment,NA,NA,0,0.9,0.1,0,1,57,2,NA
fcp-trial,91,465794,0.0-66.0-0.0,voc_e2,11823,"[{""event"":""fullscreenenter"",""trial"":1,""time"":2311}]",NA,NA,NA,NA,NA,1,#D8271C,#741CD8,10,0,0,38,1,609.7000000178814,37,1,799,10,0,experiment,NA,NA,2,0.5,0.5,5,4,58,2,NA
fcp-trial,92,468906,0.0-67.0-0.0,voc_e2,11823,"[{""event"":""fullscreenenter"",""trial"":1,""time"":2311}]",NA,NA,NA,NA,NA,0,#741CD8,#D8271C,10,10,1,38,1,1010.3000000119209,39,0,599.2000000178814,10,0,experiment,NA,NA,2,0.5,0.5,4,5,59,2,NA
fcp-trial,93,471891,0.0-68.0-0.0,voc_e2,11823,"[{""event"":""fullscreenenter"",""trial"":1,""time"":2311}]",NA,NA,NA,NA,NA,2,#FA92F8,#1CD855,0,10,0,38,1,777.8999999761581,39,0,703.1999999880791,10,1,experiment,NA,NA,1,0.3,0.7,3,2,60,2,NA
fcp-trial,94,475291,0.0-69.0-0.0,voc_e2,11823,"[{""event"":""fullscreenenter"",""trial"":1,""time"":2311}]",NA,NA,NA,NA,NA,0,#1CD855,#FA92F8,10,10,1,38,1,817.2999999821186,37,1,1079.7999999821186,10,1,experiment,NA,NA,1,0.7,0.3,2,3,61,2,NA
fcp-trial,95,478138,0.0-70.0-0.0,voc_e2,11823,"[{""event"":""fullscreenenter"",""trial"":1,""time"":2311}]",NA,NA,NA,NA,NA,2,#D89F1C,#3386FF,10,0,1,38,1,729.5,37,1,615.2000000178814,10,1,experiment,NA,NA,0,0.9,0.1,0,1,62,2,NA
fcp-trial,96,480858,0.0-71.0-0.0,voc_e2,11823,"[{""event"":""fullscreenenter"",""trial"":1,""time"":2311}]",NA,NA,NA,NA,NA,3,#741CD8,#D8271C,10,10,1,38,1,682.2000000178814,39,0,535,10,0,experiment,NA,NA,2,0.5,0.5,4,5,63,2,NA
fcp-trial,97,483738,0.0-72.0-0.0,voc_e2,11823,"[{""event"":""fullscreenenter"",""trial"":1,""time"":2311}]",NA,NA,NA,NA,NA,3,#3386FF,#D89F1C,0,10,0,38,1,858,39,0,519.2000000178814,10,1,experiment,NA,NA,0,0.1,0.9,1,0,64,2,NA
fcp-trial,98,486506,0.0-73.0-0.0,voc_e2,11823,"[{""event"":""fullscreenenter"",""trial"":1,""time"":2311}]",NA,NA,NA,NA,NA,5,#3386FF,#D89F1C,0,10,0,40,0,809.0999999940395,37,1,455.09999999403954,0,0,experiment,NA,NA,0,0.1,0.9,1,0,65,2,NA
fcp-trial,99,489793,0.0-74.0-0.0,voc_e2,11823,"[{""event"":""fullscreenenter"",""trial"":1,""time"":2311}]",NA,NA,NA,NA,NA,4,#1CD855,#FA92F8,0,0,1,40,0,1393.2999999821186,37,1,391.90000000596046,0,1,experiment,NA,NA,1,0.7,0.3,2,3,66,2,NA
fcp-trial,100,492569,0.0-75.0-0.0,voc_e2,11823,"[{""event"":""fullscreenenter"",""trial"":1,""time"":2311}]",NA,NA,NA,NA,NA,2,#741CD8,#D8271C,10,10,1,38,1,809.7999999821186,39,0,462.699999988079,10,0,experiment,NA,NA,2,0.5,0.5,4,5,67,2,NA
fcp-trial,101,495314,0.0-76.0-0.0,voc_e2,11823,"[{""event"":""fullscreenenter"",""trial"":1,""time"":2311}]",NA,NA,NA,NA,NA,3,#D8271C,#741CD8,10,10,0,38,1,882.9000000059605,37,1,357,10,0,experiment,NA,NA,2,0.5,0.5,5,4,68,2,NA
fcp-trial,102,497994,0.0-77.0-0.0,voc_e2,11823,"[{""event"":""fullscreenenter"",""trial"":1,""time"":2311}]",NA,NA,NA,NA,NA,2,#3386FF,#D89F1C,0,10,0,38,1,681.2000000178814,39,0,495.2000000178814,10,1,experiment,NA,NA,0,0.1,0.9,1,0,69,2,NA
fcp-trial,103,500561,0.0-78.0-0.0,voc_e2,11823,"[{""event"":""fullscreenenter"",""trial"":1,""time"":2311}]",NA,NA,NA,NA,NA,0,#D89F1C,#3386FF,0,0,1,38,1,632.5,37,1,431,0,1,experiment,NA,NA,0,0.9,0.1,0,1,70,2,NA
fcp-trial,104,503473,0.0-79.0-0.0,voc_e2,11823,"[{""event"":""fullscreenenter"",""trial"":1,""time"":2311}]",NA,NA,NA,NA,NA,6,#1CD855,#FA92F8,0,0,1,40,0,650.2000000178814,39,0,758.8000000119209,0,0,experiment,NA,NA,1,0.7,0.3,2,3,71,2,NA
fcp-trial,105,506601,0.0-80.0-0.0,voc_e2,11823,"[{""event"":""fullscreenenter"",""trial"":1,""time"":2311}]",NA,NA,NA,NA,NA,6,#D8271C,#741CD8,10,0,0,40,0,1025.8999999761581,37,1,598.9000000059605,10,0,experiment,NA,NA,2,0.5,0.5,5,4,72,2,NA
fcp-trial,106,509313,0.0-81.0-0.0,voc_e2,11823,"[{""event"":""fullscreenenter"",""trial"":1,""time"":2311}]",NA,NA,NA,NA,NA,6,#D89F1C,#3386FF,10,0,1,40,0,762,39,0,447.300000011921,0,0,experiment,NA,NA,0,0.9,0.1,0,1,73,2,NA
fcp-trial,107,512145,0.0-82.0-0.0,voc_e2,11823,"[{""event"":""fullscreenenter"",""trial"":1,""time"":2311}]",NA,NA,NA,NA,NA,5,#1CD855,#FA92F8,0,0,1,40,0,753.5,37,1,575.1999999880791,0,1,experiment,NA,NA,1,0.7,0.3,2,3,74,2,NA
fcp-trial,108,514936,0.0-83.0-0.0,voc_e2,11823,"[{""event"":""fullscreenenter"",""trial"":1,""time"":2311}]",NA,NA,NA,NA,NA,0,#1CD855,#FA92F8,10,0,1,38,1,793.3000000119209,37,1,494.59999999403954,10,1,experiment,NA,NA,1,0.7,0.3,2,3,75,2,NA
fcp-trial,109,517673,0.0-84.0-0.0,voc_e2,11823,"[{""event"":""fullscreenenter"",""trial"":1,""time"":2311}]",NA,NA,NA,NA,NA,3,#FA92F8,#1CD855,0,10,0,38,1,914.0999999940395,39,0,318.80000001192093,10,1,experiment,NA,NA,1,0.3,0.7,3,2,76,2,NA
fcp-trial,110,520377,0.0-85.0-0.0,voc_e2,11823,"[{""event"":""fullscreenenter"",""trial"":1,""time"":2311}]",NA,NA,NA,NA,NA,4,#D8271C,#741CD8,0,0,0,40,0,857.2999999821186,37,1,343.5,0,0,experiment,NA,NA,2,0.5,0.5,5,4,77,2,NA
fcp-trial,111,523745,0.0-86.0-0.0,voc_e2,11823,"[{""event"":""fullscreenenter"",""trial"":1,""time"":2311}]",NA,NA,NA,NA,NA,1,#D89F1C,#3386FF,10,0,1,38,1,881.5,37,1,983.2999999821186,10,1,experiment,NA,NA,0,0.9,0.1,0,1,78,2,NA
fcp-trial,112,526609,0.0-87.0-0.0,voc_e2,11823,"[{""event"":""fullscreenenter"",""trial"":1,""time"":2311}]",NA,NA,NA,NA,NA,0,#741CD8,#D8271C,10,0,1,38,1,1057.4000000059605,39,0,303.30000001192093,0,0,experiment,NA,NA,2,0.5,0.5,4,5,79,2,NA
fcp-trial,113,529760,0.0-88.0-0.0,voc_e2,11823,"[{""event"":""fullscreenenter"",""trial"":1,""time"":2311}]",NA,NA,NA,NA,NA,2,#FA92F8,#1CD855,0,10,0,38,1,1313.300000011921,39,0,335.7000000178814,10,1,experiment,NA,NA,1,0.3,0.7,3,2,80,2,NA
fcp-trial,114,532728,0.0-89.0-0.0,voc_e2,11823,"[{""event"":""fullscreenenter"",""trial"":1,""time"":2311}]",NA,NA,NA,NA,NA,5,#D8271C,#741CD8,0,10,0,40,0,1129.4000000059605,37,1,335.30000001192093,0,0,experiment,NA,NA,2,0.5,0.5,5,4,81,2,NA
fcp-trial,115,535904,0.0-90.0-0.0,voc_e2,11823,"[{""event"":""fullscreenenter"",""trial"":1,""time"":2311}]",NA,NA,NA,NA,NA,4,#3386FF,#D89F1C,0,10,0,40,0,1241.9000000059605,39,0,431.10000002384186,10,1,experiment,NA,NA,0,0.1,0.9,1,0,82,2,NA
fcp-trial,116,539464,0.0-91.0-0.0,voc_e2,11823,"[{""event"":""fullscreenenter"",""trial"":1,""time"":2311}]",NA,NA,NA,NA,NA,1,#D8271C,#741CD8,0,10,0,38,1,1729.7000000178814,37,1,326.7000000178814,0,0,experiment,NA,NA,2,0.5,0.5,5,4,83,2,NA
fcp-trial,117,542736,0.0-92.0-0.0,voc_e2,11823,"[{""event"":""fullscreenenter"",""trial"":1,""time"":2311}]",NA,NA,NA,NA,NA,1,#1CD855,#FA92F8,0,0,1,38,1,1088.4000000059605,37,1,679.2999999821186,0,1,experiment,NA,NA,1,0.7,0.3,2,3,84,2,NA
fcp-trial,118,546400,0.0-93.0-0.0,voc_e2,11823,"[{""event"":""fullscreenenter"",""trial"":1,""time"":2311}]",NA,NA,NA,NA,NA,2,#3386FF,#D89F1C,0,10,0,38,1,1761.5999999940395,39,0,399.09999999403954,10,1,experiment,NA,NA,0,0.1,0.9,1,0,85,2,NA
fcp-trial,119,549112,0.0-94.0-0.0,voc_e2,11823,"[{""event"":""fullscreenenter"",""trial"":1,""time"":2311}]",NA,NA,NA,NA,NA,3,#D89F1C,#3386FF,10,0,1,38,1,841.5,37,1,367.2000000178814,10,1,experiment,NA,NA,0,0.9,0.1,0,1,86,2,NA
fcp-trial,120,551824,0.0-95.0-0.0,voc_e2,11823,"[{""event"":""fullscreenenter"",""trial"":1,""time"":2311}]",NA,NA,NA,NA,NA,0,#FA92F8,#1CD855,10,10,0,38,1,881.8000000119209,39,0,327.40000000596046,10,1,experiment,NA,NA,1,0.3,0.7,3,2,87,2,NA
fcp-trial,121,554360,0.0-96.0-0.0,voc_e2,11823,"[{""event"":""fullscreenenter"",""trial"":1,""time"":2311}]",NA,NA,NA,NA,NA,0,#741CD8,#D8271C,10,10,1,38,1,561.7999999821186,39,0,471.300000011921,10,0,experiment,NA,NA,2,0.5,0.5,4,5,88,2,NA
fcp-trial,122,557551,0.0-97.0-0.0,voc_e2,11823,"[{""event"":""fullscreenenter"",""trial"":1,""time"":2311}]",NA,NA,NA,NA,NA,6,#FA92F8,#1CD855,0,10,0,40,0,1057.3999999761581,39,0,630.6999999880791,10,1,experiment,NA,NA,1,0.3,0.7,3,2,89,2,NA
fcp-trial,123,560312,0.0-98.0-0.0,voc_e2,11823,"[{""event"":""fullscreenenter"",""trial"":1,""time"":2311}]",NA,NA,NA,NA,NA,0,#D89F1C,#3386FF,10,0,1,38,1,673.9000000059605,37,1,582.8000000119209,10,1,experiment,NA,NA,0,0.9,0.1,0,1,90,2,NA
fcp-trial,124,563271,0.0-99.0-0.0,voc_e2,11823,"[{""event"":""fullscreenenter"",""trial"":1,""time"":2311}]",NA,NA,NA,NA,NA,3,#741CD8,#D8271C,0,10,1,38,1,825.4000000059605,39,0,630.3000000119209,10,0,experiment,NA,NA,2,0.5,0.5,4,5,91,3,NA
fcp-trial,125,566456,0.0-100.0-0.0,voc_e2,11823,"[{""event"":""fullscreenenter"",""trial"":1,""time"":2311}]",NA,NA,NA,NA,NA,5,#1CD855,#FA92F8,0,0,1,40,0,817.5,39,0,863.4000000059605,0,0,experiment,NA,NA,1,0.7,0.3,2,3,92,3,NA
fcp-trial,126,569455,0.0-101.0-0.0,voc_e2,11823,"[{""event"":""fullscreenenter"",""trial"":1,""time"":2311}]",NA,NA,NA,NA,NA,6,#3386FF,#D89F1C,0,10,0,40,0,737.5999999940395,39,0,759.3999999761581,10,1,experiment,NA,NA,0,0.1,0.9,1,0,93,3,NA
fcp-trial,127,572903,0.0-102.0-0.0,voc_e2,11823,"[{""event"":""fullscreenenter"",""trial"":1,""time"":2311}]",NA,NA,NA,NA,NA,3,#1CD855,#FA92F8,10,10,1,38,1,1225.5,37,1,719,10,1,experiment,NA,NA,1,0.7,0.3,2,3,94,3,NA
fcp-trial,128,575919,0.0-103.0-0.0,voc_e2,11823,"[{""event"":""fullscreenenter"",""trial"":1,""time"":2311}]",NA,NA,NA,NA,NA,4,#D89F1C,#3386FF,10,0,1,40,0,946,37,1,567.0999999940395,10,1,experiment,NA,NA,0,0.9,0.1,0,1,95,3,NA
fcp-trial,129,578847,0.0-104.0-0.0,voc_e2,11823,"[{""event"":""fullscreenenter"",""trial"":1,""time"":2311}]",NA,NA,NA,NA,NA,1,#D8271C,#741CD8,0,0,0,38,1,553.0999999940395,37,1,871.5999999940395,0,0,experiment,NA,NA,2,0.5,0.5,5,4,96,3,NA
fcp-trial,130,581510,0.0-105.0-0.0,voc_e2,11823,"[{""event"":""fullscreenenter"",""trial"":1,""time"":2311}]",NA,NA,NA,NA,NA,5,#741CD8,#D8271C,0,10,1,40,0,713.7000000178814,39,0,447,10,0,experiment,NA,NA,2,0.5,0.5,4,5,97,3,NA
fcp-trial,131,584719,0.0-106.0-0.0,voc_e2,11823,"[{""event"":""fullscreenenter"",""trial"":1,""time"":2311}]",NA,NA,NA,NA,NA,1,#3386FF,#D89F1C,10,0,0,38,1,922.3000000119209,37,1,782.9000000059605,10,0,experiment,NA,NA,0,0.1,0.9,1,0,98,3,NA
fcp-trial,132,587863,0.0-107.0-0.0,voc_e2,11823,"[{""event"":""fullscreenenter"",""trial"":1,""time"":2311}]",NA,NA,NA,NA,NA,4,#1CD855,#FA92F8,10,0,1,40,0,977.5999999940395,37,1,663.6999999880791,10,1,experiment,NA,NA,1,0.7,0.3,2,3,99,3,NA
fcp-trial,133,590926,0.0-108.0-0.0,voc_e2,11823,"[{""event"":""fullscreenenter"",""trial"":1,""time"":2311}]",NA,NA,NA,NA,NA,6,#741CD8,#D8271C,10,10,1,40,0,993.5,37,1,567.2999999821186,10,1,experiment,NA,NA,2,0.5,0.5,4,5,100,3,NA
fcp-trial,134,593687,0.0-109.0-0.0,voc_e2,11823,"[{""event"":""fullscreenenter"",""trial"":1,""time"":2311}]",NA,NA,NA,NA,NA,1,#1CD855,#FA92F8,10,0,1,38,1,706.2000000178814,39,0,551.4000000059605,0,0,experiment,NA,NA,1,0.7,0.3,2,3,101,3,NA
fcp-trial,135,596847,0.0-110.0-0.0,voc_e2,11823,"[{""event"":""fullscreenenter"",""trial"":1,""time"":2311}]",NA,NA,NA,NA,NA,2,#D8271C,#741CD8,0,0,0,38,1,721,37,1,935.5,0,0,experiment,NA,NA,2,0.5,0.5,5,4,102,3,NA
fcp-trial,136,599766,0.0-111.0-0.0,voc_e2,11823,"[{""event"":""fullscreenenter"",""trial"":1,""time"":2311}]",NA,NA,NA,NA,NA,5,#D89F1C,#3386FF,10,0,1,40,0,985.2000000178814,37,1,430.5,10,1,experiment,NA,NA,0,0.9,0.1,0,1,103,3,NA
fcp-trial,137,603206,0.0-112.0-0.0,voc_e2,11823,"[{""event"":""fullscreenenter"",""trial"":1,""time"":2311}]",NA,NA,NA,NA,NA,2,#1CD855,#FA92F8,10,0,1,38,1,1105.7000000178814,37,1,830.7999999821186,10,1,experiment,NA,NA,1,0.7,0.3,2,3,104,3,NA
fcp-trial,138,606158,0.0-113.0-0.0,voc_e2,11823,"[{""event"":""fullscreenenter"",""trial"":1,""time"":2311}]",NA,NA,NA,NA,NA,4,#D8271C,#741CD8,10,0,0,40,0,1001.7999999821186,39,0,446.90000000596046,0,1,experiment,NA,NA,2,0.5,0.5,5,4,105,3,NA
audio-instructions,139,611252,0.0-114.0,voc_e2,11823,"[{""event"":""fullscreenenter"",""trial"":1,""time"":2311}]",NA,645.7999999821186,static/audio/pause.wav,NA,0,NA,NA,NA,NA,NA,NA,NA,NA,NA,NA,NA,NA,NA,NA,NA,NA,NA,NA,NA,NA,NA,NA,NA,NA,NA
fcp-trial,140,614337,0.0-115.0-0.0,voc_e2,11823,"[{""event"":""fullscreenenter"",""trial"":1,""time"":2311}]",NA,NA,NA,NA,NA,6,#D8271C,#741CD8,0,10,0,40,0,979.1999999880791,39,0,586.4000000059605,10,1,experiment,NA,NA,2,0.5,0.5,5,4,106,3,NA
fcp-trial,141,616937,0.0-116.0-0.0,voc_e2,11823,"[{""event"":""fullscreenenter"",""trial"":1,""time"":2311}]",NA,NA,NA,NA,NA,4,#D8271C,#741CD8,0,0,0,40,0,703,37,1,391.09999999403954,0,0,experiment,NA,NA,2,0.5,0.5,5,4,107,3,NA
fcp-trial,142,619596,0.0-117.0-0.0,voc_e2,11823,"[{""event"":""fullscreenenter"",""trial"":1,""time"":2311}]",NA,NA,NA,NA,NA,6,#D89F1C,#3386FF,10,0,1,40,0,670.6999999880791,37,1,478.09999999403954,10,1,experiment,NA,NA,0,0.9,0.1,0,1,108,3,NA
fcp-trial,143,621948,0.0-118.0-0.0,voc_e2,11823,"[{""event"":""fullscreenenter"",""trial"":1,""time"":2311}]",NA,NA,NA,NA,NA,5,#D8271C,#741CD8,10,10,0,40,0,538.5,39,0,299,10,1,experiment,NA,NA,2,0.5,0.5,5,4,109,3,NA
fcp-trial,144,624582,0.0-119.0-0.0,voc_e2,11823,"[{""event"":""fullscreenenter"",""trial"":1,""time"":2311}]",NA,NA,NA,NA,NA,6,#1CD855,#FA92F8,10,0,1,40,0,626.1999999880791,39,0,498.5,0,0,experiment,NA,NA,1,0.7,0.3,2,3,110,3,NA
fcp-trial,145,627220,0.0-120.0-0.0,voc_e2,11823,"[{""event"":""fullscreenenter"",""trial"":1,""time"":2311}]",NA,NA,NA,NA,NA,2,#D89F1C,#3386FF,10,0,1,38,1,664.9000000059605,37,1,462.199999988079,10,1,experiment,NA,NA,0,0.9,0.1,0,1,111,3,NA
fcp-trial,146,629773,0.0-121.0-0.0,voc_e2,11823,"[{""event"":""fullscreenenter"",""trial"":1,""time"":2311}]",NA,NA,NA,NA,NA,0,#FA92F8,#1CD855,0,0,0,38,1,682.6999999880791,39,0,366.90000000596046,0,1,experiment,NA,NA,1,0.3,0.7,3,2,112,3,NA
fcp-trial,147,632569,0.0-122.0-0.0,voc_e2,11823,"[{""event"":""fullscreenenter"",""trial"":1,""time"":2311}]",NA,NA,NA,NA,NA,2,#741CD8,#D8271C,10,10,1,38,1,817.5,39,0,460.90000000596046,10,0,experiment,NA,NA,2,0.5,0.5,4,5,113,3,NA
fcp-trial,148,635327,0.0-123.0-0.0,voc_e2,11823,"[{""event"":""fullscreenenter"",""trial"":1,""time"":2311}]",NA,NA,NA,NA,NA,5,#D89F1C,#3386FF,10,0,1,40,0,870.0999999940395,39,0,381.800000011921,0,0,experiment,NA,NA,0,0.9,0.1,0,1,114,3,NA
fcp-trial,149,638148,0.0-124.0-0.0,voc_e2,11823,"[{""event"":""fullscreenenter"",""trial"":1,""time"":2311}]",NA,NA,NA,NA,NA,0,#D89F1C,#3386FF,10,0,1,38,1,751.5999999940395,39,0,557.8000000119209,0,0,experiment,NA,NA,0,0.9,0.1,0,1,115,3,NA
fcp-trial,150,640789,0.0-125.0-0.0,voc_e2,11823,"[{""event"":""fullscreenenter"",""trial"":1,""time"":2311}]",NA,NA,NA,NA,NA,5,#FA92F8,#1CD855,0,10,0,40,0,738.3999999761581,39,0,398.7999999821186,10,1,experiment,NA,NA,1,0.3,0.7,3,2,116,3,NA
fcp-trial,151,643653,0.0-126.0-0.0,voc_e2,11823,"[{""event"":""fullscreenenter"",""trial"":1,""time"":2311}]",NA,NA,NA,NA,NA,3,#FA92F8,#1CD855,10,0,0,38,1,785.6000000238419,39,0,575.5,0,1,experiment,NA,NA,1,0.3,0.7,3,2,117,3,NA
fcp-trial,152,646628,0.0-127.0-0.0,voc_e2,11823,"[{""event"":""fullscreenenter"",""trial"":1,""time"":2311}]",NA,NA,NA,NA,NA,0,#741CD8,#D8271C,10,10,1,38,1,984.4000000059605,39,0,486.90000000596046,10,0,experiment,NA,NA,2,0.5,0.5,4,5,118,3,NA
fcp-trial,153,649957,0.0-128.0-0.0,voc_e2,11823,"[{""event"":""fullscreenenter"",""trial"":1,""time"":2311}]",NA,NA,NA,NA,NA,3,#D89F1C,#3386FF,10,10,1,38,1,1314.0999999940395,39,0,511.59999999403954,10,0,experiment,NA,NA,0,0.9,0.1,0,1,119,3,NA
fcp-trial,154,653092,0.0-129.0-0.0,voc_e2,11823,"[{""event"":""fullscreenenter"",""trial"":1,""time"":2311}]",NA,NA,NA,NA,NA,1,#D8271C,#741CD8,10,0,0,38,1,913.2000000178814,37,1,719.3000000119209,10,0,experiment,NA,NA,2,0.5,0.5,5,4,120,3,NA
fcp-trial,155,656204,0.0-130.0-0.0,voc_e2,11823,"[{""event"":""fullscreenenter"",""trial"":1,""time"":2311}]",NA,NA,NA,NA,NA,4,#1CD855,#FA92F8,0,0,1,38,1,657.4000000059605,37,1,950.899999976158,0,1,experiment,NA,NA,1,0.7,0.3,2,3,121,3,NA
fcp-trial,156,659708,0.0-131.0-0.0,voc_e2,11823,"[{""event"":""fullscreenenter"",""trial"":1,""time"":2311}]",NA,NA,NA,NA,NA,3,#741CD8,#D8271C,10,10,1,38,1,1553.4000000059605,39,0,447.699999988079,10,0,experiment,NA,NA,2,0.5,0.5,4,5,122,3,NA
fcp-trial,157,663373,0.0-132.0-0.0,voc_e2,11823,"[{""event"":""fullscreenenter"",""trial"":1,""time"":2311}]",NA,NA,NA,NA,NA,4,#3386FF,#D89F1C,0,0,0,40,0,1666.0999999940395,39,0,496.699999988079,0,1,experiment,NA,NA,0,0.1,0.9,1,0,123,3,NA
fcp-trial,158,666124,0.0-133.0-0.0,voc_e2,11823,"[{""event"":""fullscreenenter"",""trial"":1,""time"":2311}]",NA,NA,NA,NA,NA,2,#1CD855,#FA92F8,10,0,1,38,1,896.3000000119209,37,1,351.10000002384186,10,1,experiment,NA,NA,1,0.7,0.3,2,3,124,3,NA
fcp-trial,159,668932,0.0-134.0-0.0,voc_e2,11823,"[{""event"":""fullscreenenter"",""trial"":1,""time"":2311}]",NA,NA,NA,NA,NA,1,#FA92F8,#1CD855,0,10,0,38,1,1025.2000000178814,39,0,279.5,10,1,experiment,NA,NA,1,0.3,0.7,3,2,125,3,NA
fcp-trial,160,673756,0.0-135.0-0.0,voc_e2,11823,"[{""event"":""fullscreenenter"",""trial"":1,""time"":2311}]",NA,NA,NA,NA,NA,1,#3386FF,#D89F1C,0,10,0,38,1,2929.800000011921,39,0,390.90000000596046,10,1,experiment,NA,NA,0,0.1,0.9,1,0,126,3,NA
fcp-trial,161,676732,0.0-136.0-0.0,voc_e2,11823,"[{""event"":""fullscreenenter"",""trial"":1,""time"":2311}]",NA,NA,NA,NA,NA,4,#D89F1C,#3386FF,10,0,1,40,0,1041,37,1,431.40000000596046,10,1,experiment,NA,NA,0,0.9,0.1,0,1,127,3,NA
fcp-trial,162,682716,0.0-137.0-0.0,voc_e2,11823,"[{""event"":""fullscreenenter"",""trial"":1,""time"":2311}]",NA,NA,NA,NA,NA,3,#741CD8,#D8271C,10,0,1,38,1,2521.600000023842,39,0,1959.300000011921,0,0,experiment,NA,NA,2,0.5,0.5,4,5,128,3,NA
fcp-trial,163,685779,0.0-138.0-0.0,voc_e2,11823,"[{""event"":""fullscreenenter"",""trial"":1,""time"":2311}]",NA,NA,NA,NA,NA,5,#3386FF,#D89F1C,0,10,0,40,0,1041.5999999940395,37,1,519.5999999940395,0,0,experiment,NA,NA,0,0.1,0.9,1,0,129,3,NA
fcp-trial,164,689132,0.0-139.0-0.0,voc_e2,11823,"[{""event"":""fullscreenenter"",""trial"":1,""time"":2311}]",NA,NA,NA,NA,NA,4,#1CD855,#FA92F8,10,10,1,40,0,1354.0999999940395,39,0,495.59999999403954,10,0,experiment,NA,NA,1,0.7,0.3,2,3,130,3,NA
fcp-trial,165,692652,0.0-140.0-0.0,voc_e2,11823,"[{""event"":""fullscreenenter"",""trial"":1,""time"":2311}]",NA,NA,NA,NA,NA,3,#3386FF,#D89F1C,0,10,0,38,1,1104.199999988079,37,1,911.7999999821186,0,0,experiment,NA,NA,0,0.1,0.9,1,0,131,3,NA
fcp-trial,166,696155,0.0-141.0-0.0,voc_e2,11823,"[{""event"":""fullscreenenter"",""trial"":1,""time"":2311}]",NA,NA,NA,NA,NA,6,#741CD8,#D8271C,0,10,1,40,0,1448.800000011921,39,0,551.3000000119209,10,0,experiment,NA,NA,2,0.5,0.5,4,5,132,3,NA
fcp-trial,167,699292,0.0-142.0-0.0,voc_e2,11823,"[{""event"":""fullscreenenter"",""trial"":1,""time"":2311}]",NA,NA,NA,NA,NA,2,#FA92F8,#1CD855,0,0,0,38,1,880.7999999821186,39,0,752.2000000178814,0,1,experiment,NA,NA,1,0.3,0.7,3,2,133,3,NA
fcp-trial,168,702331,0.0-143.0-0.0,voc_e2,11823,"[{""event"":""fullscreenenter"",""trial"":1,""time"":2311}]",NA,NA,NA,NA,NA,3,#1CD855,#FA92F8,0,10,1,38,1,1008.1000000238419,37,1,527.5999999940395,0,1,experiment,NA,NA,1,0.7,0.3,2,3,134,3,NA
fcp-trial,169,705498,0.0-144.0-0.0,voc_e2,11823,"[{""event"":""fullscreenenter"",""trial"":1,""time"":2311}]",NA,NA,NA,NA,NA,1,#D89F1C,#3386FF,10,0,1,38,1,1329.5999999940395,37,1,335,10,1,experiment,NA,NA,0,0.9,0.1,0,1,135,3,NA
fcp-trial,170,711451,0.0-145.0-0.0,voc_e2,11823,"[{""event"":""fullscreenenter"",""trial"":1,""time"":2311}]",NA,NA,NA,NA,NA,1,#741CD8,#D8271C,10,10,1,38,1,2873.399999976158,39,0,1575.199999988079,10,0,experiment,NA,NA,2,0.5,0.5,4,5,136,4,NA
fcp-trial,171,715019,0.0-146.0-0.0,voc_e2,11823,"[{""event"":""fullscreenenter"",""trial"":1,""time"":2311}]",NA,NA,NA,NA,NA,5,#1CD855,#FA92F8,0,0,1,40,0,1554.2000000178814,39,0,510.800000011921,0,0,experiment,NA,NA,1,0.7,0.3,2,3,137,4,NA
fcp-trial,172,717771,0.0-147.0-0.0,voc_e2,11823,"[{""event"":""fullscreenenter"",""trial"":1,""time"":2311}]",NA,NA,NA,NA,NA,0,#1CD855,#FA92F8,0,10,1,38,1,745.3000000119209,37,1,502.7000000178814,0,1,experiment,NA,NA,1,0.7,0.3,2,3,138,4,NA
fcp-trial,173,720451,0.0-148.0-0.0,voc_e2,11823,"[{""event"":""fullscreenenter"",""trial"":1,""time"":2311}]",NA,NA,NA,NA,NA,5,#D8271C,#741CD8,10,0,0,40,0,777.4000000059605,37,1,399.59999999403954,10,0,experiment,NA,NA,2,0.5,0.5,5,4,139,4,NA
fcp-trial,174,723164,0.0-149.0-0.0,voc_e2,11823,"[{""event"":""fullscreenenter"",""trial"":1,""time"":2311}]",NA,NA,NA,NA,NA,6,#3386FF,#D89F1C,0,10,0,40,0,761.8000000119209,37,1,447.5,0,0,experiment,NA,NA,0,0.1,0.9,1,0,140,4,NA
fcp-trial,175,725876,0.0-150.0-0.0,voc_e2,11823,"[{""event"":""fullscreenenter"",""trial"":1,""time"":2311}]",NA,NA,NA,NA,NA,0,#D8271C,#741CD8,0,0,0,38,1,649,37,1,559.0999999940395,0,0,experiment,NA,NA,2,0.5,0.5,5,4,141,4,NA
fcp-trial,176,728643,0.0-151.0-0.0,voc_e2,11823,"[{""event"":""fullscreenenter"",""trial"":1,""time"":2311}]",NA,NA,NA,NA,NA,2,#D89F1C,#3386FF,10,0,1,38,1,736.9000000059605,37,1,527.4000000059605,10,1,experiment,NA,NA,0,0.9,0.1,0,1,142,4,NA
fcp-trial,177,731443,0.0-152.0-0.0,voc_e2,11823,"[{""event"":""fullscreenenter"",""trial"":1,""time"":2311}]",NA,NA,NA,NA,NA,1,#1CD855,#FA92F8,0,10,1,38,1,794.3000000119209,37,1,503.2000000178814,0,1,experiment,NA,NA,1,0.7,0.3,2,3,143,4,NA
fcp-trial,178,734116,0.0-153.0-0.0,voc_e2,11823,"[{""event"":""fullscreenenter"",""trial"":1,""time"":2311}]",NA,NA,NA,NA,NA,0,#D89F1C,#3386FF,10,0,1,38,1,841.5,37,1,327.10000002384186,10,1,experiment,NA,NA,0,0.9,0.1,0,1,144,4,NA
fcp-trial,179,736786,0.0-154.0-0.0,voc_e2,11823,"[{""event"":""fullscreenenter"",""trial"":1,""time"":2311}]",NA,NA,NA,NA,NA,2,#D8271C,#741CD8,10,0,0,38,1,768.8000000119209,37,1,398.7999999821186,10,0,experiment,NA,NA,2,0.5,0.5,5,4,145,4,NA
fcp-trial,180,739627,0.0-155.0-0.0,voc_e2,11823,"[{""event"":""fullscreenenter"",""trial"":1,""time"":2311}]",NA,NA,NA,NA,NA,6,#1CD855,#FA92F8,10,0,1,40,0,921.8999999761581,39,0,415,0,0,experiment,NA,NA,1,0.7,0.3,2,3,146,4,NA
fcp-trial,181,742491,0.0-156.0-0.0,voc_e2,11823,"[{""event"":""fullscreenenter"",""trial"":1,""time"":2311}]",NA,NA,NA,NA,NA,4,#741CD8,#D8271C,10,0,1,40,0,841.7999999821186,39,0,519.0999999940395,0,0,experiment,NA,NA,2,0.5,0.5,4,5,147,4,NA
fcp-trial,182,745394,0.0-157.0-0.0,voc_e2,11823,"[{""event"":""fullscreenenter"",""trial"":1,""time"":2311}]",NA,NA,NA,NA,NA,0,#741CD8,#D8271C,10,0,1,38,1,840.9000000059605,37,1,559.2000000178814,10,1,experiment,NA,NA,2,0.5,0.5,4,5,148,4,NA
fcp-trial,183,747954,0.0-158.0-0.0,voc_e2,11823,"[{""event"":""fullscreenenter"",""trial"":1,""time"":2311}]",NA,NA,NA,NA,NA,2,#3386FF,#D89F1C,0,10,0,38,1,802,39,0,255.30000001192093,10,1,experiment,NA,NA,0,0.1,0.9,1,0,149,4,NA
fcp-trial,184,750755,0.0-159.0-0.0,voc_e2,11823,"[{""event"":""fullscreenenter"",""trial"":1,""time"":2311}]",NA,NA,NA,NA,NA,6,#741CD8,#D8271C,10,10,1,40,0,873.5,39,0,423.2000000178814,10,0,experiment,NA,NA,2,0.5,0.5,4,5,150,4,NA
fcp-trial,185,754275,0.0-160.0-0.0,voc_e2,11823,"[{""event"":""fullscreenenter"",""trial"":1,""time"":2311}]",NA,NA,NA,NA,NA,3,#FA92F8,#1CD855,10,10,0,38,1,849.3000000119209,39,0,1167.199999988079,10,1,experiment,NA,NA,1,0.3,0.7,3,2,151,4,NA
fcp-trial,186,757210,0.0-161.0-0.0,voc_e2,11823,"[{""event"":""fullscreenenter"",""trial"":1,""time"":2311}]",NA,NA,NA,NA,NA,2,#741CD8,#D8271C,10,10,1,38,1,785.0999999940395,39,0,647.2999999821186,10,0,experiment,NA,NA,2,0.5,0.5,4,5,152,4,NA
fcp-trial,187,760514,0.0-162.0-0.0,voc_e2,11823,"[{""event"":""fullscreenenter"",""trial"":1,""time"":2311}]",NA,NA,NA,NA,NA,5,#3386FF,#D89F1C,0,10,0,40,0,1337.199999988079,37,1,463.199999988079,0,0,experiment,NA,NA,0,0.1,0.9,1,0,153,4,NA
fcp-trial,188,763866,0.0-163.0-0.0,voc_e2,11823,"[{""event"":""fullscreenenter"",""trial"":1,""time"":2311}]",NA,NA,NA,NA,NA,2,#1CD855,#FA92F8,10,10,1,38,1,993.3000000119209,37,1,855,10,1,experiment,NA,NA,1,0.7,0.3,2,3,154,4,NA
fcp-trial,189,767355,0.0-164.0-0.0,voc_e2,11823,"[{""event"":""fullscreenenter"",""trial"":1,""time"":2311}]",NA,NA,NA,NA,NA,3,#3386FF,#D89F1C,0,10,0,38,1,1001.4000000059605,39,0,983.0999999940396,10,1,experiment,NA,NA,0,0.1,0.9,1,0,155,4,NA
fcp-trial,190,770442,0.0-165.0-0.0,voc_e2,11823,"[{""event"":""fullscreenenter"",""trial"":1,""time"":2311}]",NA,NA,NA,NA,NA,1,#FA92F8,#1CD855,0,0,0,38,1,944.1999999880791,39,0,639.2000000178814,0,1,experiment,NA,NA,1,0.3,0.7,3,2,156,4,NA
fcp-trial,191,773457,0.0-166.0-0.0,voc_e2,11823,"[{""event"":""fullscreenenter"",""trial"":1,""time"":2311}]",NA,NA,NA,NA,NA,4,#741CD8,#D8271C,10,10,1,40,0,1137.5,39,0,374.90000000596046,10,0,experiment,NA,NA,2,0.5,0.5,4,5,157,4,NA
fcp-trial,192,776354,0.0-167.0-0.0,voc_e2,11823,"[{""event"":""fullscreenenter"",""trial"":1,""time"":2311}]",NA,NA,NA,NA,NA,4,#3386FF,#D89F1C,0,0,0,40,0,954.1999999880791,37,1,439.09999999403954,0,0,experiment,NA,NA,0,0.1,0.9,1,0,158,4,NA
fcp-trial,193,779321,0.0-168.0-0.0,voc_e2,11823,"[{""event"":""fullscreenenter"",""trial"":1,""time"":2311}]",NA,NA,NA,NA,NA,1,#3386FF,#D89F1C,0,10,0,38,1,1145.0999999940395,39,0,318.80000001192093,10,1,experiment,NA,NA,0,0.1,0.9,1,0,159,4,NA
fcp-trial,194,782170,0.0-169.0-0.0,voc_e2,11823,"[{""event"":""fullscreenenter"",""trial"":1,""time"":2311}]",NA,NA,NA,NA,NA,0,#1CD855,#FA92F8,0,0,1,38,1,634.2000000178814,37,1,711.1999999880791,0,1,experiment,NA,NA,1,0.7,0.3,2,3,160,4,NA
fcp-trial,195,785105,0.0-170.0-0.0,voc_e2,11823,"[{""event"":""fullscreenenter"",""trial"":1,""time"":2311}]",NA,NA,NA,NA,NA,5,#1CD855,#FA92F8,0,0,1,40,0,1008.7000000178814,37,1,423,0,1,experiment,NA,NA,1,0.7,0.3,2,3,161,4,NA
fcp-trial,196,788089,0.0-171.0-0.0,voc_e2,11823,"[{""event"":""fullscreenenter"",""trial"":1,""time"":2311}]",NA,NA,NA,NA,NA,5,#741CD8,#D8271C,10,0,1,40,0,930.0999999940395,39,0,550.8999999761581,0,0,experiment,NA,NA,2,0.5,0.5,4,5,162,4,NA
fcp-trial,197,790961,0.0-172.0-0.0,voc_e2,11823,"[{""event"":""fullscreenenter"",""trial"":1,""time"":2311}]",NA,NA,NA,NA,NA,0,#D89F1C,#3386FF,10,10,1,38,1,793.5,39,0,575.2999999821186,10,0,experiment,NA,NA,0,0.9,0.1,0,1,163,4,NA
fcp-trial,198,793793,0.0-173.0-0.0,voc_e2,11823,"[{""event"":""fullscreenenter"",""trial"":1,""time"":2311}]",NA,NA,NA,NA,NA,6,#D89F1C,#3386FF,10,0,1,40,0,905.7000000178814,37,1,422.90000000596046,10,1,experiment,NA,NA,0,0.9,0.1,0,1,164,4,NA
fcp-trial,199,796801,0.0-174.0-0.0,voc_e2,11823,"[{""event"":""fullscreenenter"",""trial"":1,""time"":2311}]",NA,NA,NA,NA,NA,4,#FA92F8,#1CD855,0,10,0,40,0,1057,39,0,447.7000000178814,10,1,experiment,NA,NA,1,0.3,0.7,3,2,165,4,NA
fcp-trial,200,799657,0.0-175.0-0.0,voc_e2,11823,"[{""event"":""fullscreenenter"",""trial"":1,""time"":2311}]",NA,NA,NA,NA,NA,3,#D8271C,#741CD8,0,0,0,38,1,713.6999999880791,39,0,638.8000000119209,0,1,experiment,NA,NA,2,0.5,0.5,5,4,166,4,NA
fcp-trial,201,802193,0.0-176.0-0.0,voc_e2,11823,"[{""event"":""fullscreenenter"",""trial"":1,""time"":2311}]",NA,NA,NA,NA,NA,6,#FA92F8,#1CD855,0,0,0,40,0,729.6000000238419,39,0,302.90000000596046,0,1,experiment,NA,NA,1,0.3,0.7,3,2,167,4,NA
fcp-trial,202,805017,0.0-177.0-0.0,voc_e2,11823,"[{""event"":""fullscreenenter"",""trial"":1,""time"":2311}]",NA,NA,NA,NA,NA,1,#741CD8,#D8271C,10,10,1,38,1,761.5,39,0,559.5999999940395,10,0,experiment,NA,NA,2,0.5,0.5,4,5,168,4,NA
fcp-trial,203,807929,0.0-178.0-0.0,voc_e2,11823,"[{""event"":""fullscreenenter"",""trial"":1,""time"":2311}]",NA,NA,NA,NA,NA,3,#D8271C,#741CD8,10,10,0,38,1,905.8999999761581,37,1,503.09999999403954,10,0,experiment,NA,NA,2,0.5,0.5,5,4,169,4,NA
fcp-trial,204,811033,0.0-179.0-0.0,voc_e2,11823,"[{""event"":""fullscreenenter"",""trial"":1,""time"":2311}]",NA,NA,NA,NA,NA,1,#1CD855,#FA92F8,10,10,1,38,1,665.0999999940395,37,1,934.9000000059604,10,1,experiment,NA,NA,1,0.7,0.3,2,3,170,4,NA
fcp-trial,205,813672,0.0-180.0-0.0,voc_e2,11823,"[{""event"":""fullscreenenter"",""trial"":1,""time"":2311}]",NA,NA,NA,NA,NA,2,#FA92F8,#1CD855,0,10,0,38,1,801.1999999880791,39,0,335.5,10,1,experiment,NA,NA,1,0.3,0.7,3,2,171,4,NA
fcp-trial,206,816528,0.0-181.0-0.0,voc_e2,11823,"[{""event"":""fullscreenenter"",""trial"":1,""time"":2311}]",NA,NA,NA,NA,NA,4,#D89F1C,#3386FF,10,0,1,40,0,954,39,0,398.09999999403954,0,0,experiment,NA,NA,0,0.9,0.1,0,1,172,4,NA
fcp-trial,207,819376,0.0-182.0-0.0,voc_e2,11823,"[{""event"":""fullscreenenter"",""trial"":1,""time"":2311}]",NA,NA,NA,NA,NA,3,#D89F1C,#3386FF,10,0,1,38,1,817.8999999761581,37,1,526.3000000119209,10,1,experiment,NA,NA,0,0.9,0.1,0,1,173,4,NA
fcp-trial,208,822233,0.0-183.0-0.0,voc_e2,11823,"[{""event"":""fullscreenenter"",""trial"":1,""time"":2311}]",NA,NA,NA,NA,NA,2,#741CD8,#D8271C,0,10,1,38,1,914.2999999821186,39,0,439.7999999821186,10,0,experiment,NA,NA,2,0.5,0.5,4,5,174,4,NA
fcp-trial,209,824920,0.0-184.0-0.0,voc_e2,11823,"[{""event"":""fullscreenenter"",""trial"":1,""time"":2311}]",NA,NA,NA,NA,NA,0,#741CD8,#D8271C,10,10,1,38,1,744.4000000059605,39,0,439.199999988079,10,0,experiment,NA,NA,2,0.5,0.5,4,5,175,4,NA
fcp-trial,210,827777,0.0-185.0-0.0,voc_e2,11823,"[{""event"":""fullscreenenter"",""trial"":1,""time"":2311}]",NA,NA,NA,NA,NA,0,#FA92F8,#1CD855,0,10,0,38,1,810.0999999940395,39,0,542.0999999940395,10,1,experiment,NA,NA,1,0.3,0.7,3,2,176,4,NA
fcp-trial,211,830473,0.0-186.0-0.0,voc_e2,11823,"[{""event"":""fullscreenenter"",""trial"":1,""time"":2311}]",NA,NA,NA,NA,NA,1,#3386FF,#D89F1C,0,10,0,38,1,888.8000000119209,39,0,304.10000002384186,10,1,experiment,NA,NA,0,0.1,0.9,1,0,177,4,NA
fcp-trial,212,833224,0.0-187.0-0.0,voc_e2,11823,"[{""event"":""fullscreenenter"",""trial"":1,""time"":2311}]",NA,NA,NA,NA,NA,5,#3386FF,#D89F1C,0,10,0,40,0,776.9000000059605,39,0,470.90000000596046,10,1,experiment,NA,NA,0,0.1,0.9,1,0,178,4,NA
fcp-trial,213,836304,0.0-188.0-0.0,voc_e2,11823,"[{""event"":""fullscreenenter"",""trial"":1,""time"":2311}]",NA,NA,NA,NA,NA,6,#1CD855,#FA92F8,10,10,1,40,0,873.1000000238419,37,1,703,10,1,experiment,NA,NA,1,0.7,0.3,2,3,179,4,NA
fcp-trial,214,839224,0.0-189.0-0.0,voc_e2,11823,"[{""event"":""fullscreenenter"",""trial"":1,""time"":2311}]",NA,NA,NA,NA,NA,4,#741CD8,#D8271C,10,0,1,40,0,1121.2999999821186,39,0,294.69999998807907,0,0,experiment,NA,NA,2,0.5,0.5,4,5,180,4,NA
fcp-trial,215,841903,0.0-190.0-0.0,voc_e2,11823,"[{""event"":""fullscreenenter"",""trial"":1,""time"":2311}]",NA,NA,NA,NA,NA,5,#1CD855,#FA92F8,0,10,1,40,0,865.5,37,1,311,0,1,experiment,NA,NA,1,0.7,0.3,2,3,181,5,NA
fcp-trial,216,845127,0.0-191.0-0.0,voc_e2,11823,"[{""event"":""fullscreenenter"",""trial"":1,""time"":2311}]",NA,NA,NA,NA,NA,5,#741CD8,#D8271C,10,0,1,40,0,705.6999999880791,39,0,1015.4000000059604,0,0,experiment,NA,NA,2,0.5,0.5,4,5,182,5,NA
fcp-trial,217,847839,0.0-192.0-0.0,voc_e2,11823,"[{""event"":""fullscreenenter"",""trial"":1,""time"":2311}]",NA,NA,NA,NA,NA,2,#3386FF,#D89F1C,0,10,0,38,1,762.3000000119209,37,1,446.39999997615814,0,0,experiment,NA,NA,0,0.1,0.9,1,0,183,5,NA
fcp-trial,218,850982,0.0-193.0-0.0,voc_e2,11823,"[{""event"":""fullscreenenter"",""trial"":1,""time"":2311}]",NA,NA,NA,NA,NA,4,#1CD855,#FA92F8,10,0,1,40,0,777,39,0,863.2000000178814,0,0,experiment,NA,NA,1,0.7,0.3,2,3,184,5,NA
fcp-trial,219,853591,0.0-194.0-0.0,voc_e2,11823,"[{""event"":""fullscreenenter"",""trial"":1,""time"":2311}]",NA,NA,NA,NA,NA,3,#1CD855,#FA92F8,10,0,1,38,1,697.8999999761581,37,1,407.300000011921,10,1,experiment,NA,NA,1,0.7,0.3,2,3,185,5,NA
fcp-trial,220,856326,0.0-195.0-0.0,voc_e2,11823,"[{""event"":""fullscreenenter"",""trial"":1,""time"":2311}]",NA,NA,NA,NA,NA,6,#D89F1C,#3386FF,10,0,1,40,0,793.8999999761581,37,1,438.40000000596046,10,1,experiment,NA,NA,0,0.9,0.1,0,1,186,5,NA
fcp-trial,221,859567,0.0-196.0-0.0,voc_e2,11823,"[{""event"":""fullscreenenter"",""trial"":1,""time"":2311}]",NA,NA,NA,NA,NA,6,#D8271C,#741CD8,10,0,0,40,0,873.9000000059605,39,0,863.2000000178814,0,1,experiment,NA,NA,2,0.5,0.5,5,4,187,5,NA
fcp-trial,222,862087,0.0-197.0-0.0,voc_e2,11823,"[{""event"":""fullscreenenter"",""trial"":1,""time"":2311}]",NA,NA,NA,NA,NA,0,#D89F1C,#3386FF,10,0,1,38,1,745.1999999880791,37,1,271.59999999403954,10,1,experiment,NA,NA,0,0.9,0.1,0,1,188,5,NA
fcp-trial,223,865543,0.0-198.0-0.0,voc_e2,11823,"[{""event"":""fullscreenenter"",""trial"":1,""time"":2311}]",NA,NA,NA,NA,NA,1,#741CD8,#D8271C,0,0,1,38,1,1320.7000000178814,39,0,631.8999999761581,0,0,experiment,NA,NA,2,0.5,0.5,4,5,189,5,NA
fcp-trial,224,868344,0.0-199.0-0.0,voc_e2,11823,"[{""event"":""fullscreenenter"",""trial"":1,""time"":2311}]",NA,NA,NA,NA,NA,4,#1CD855,#FA92F8,0,0,1,40,0,784.3000000119209,39,0,511.2999999821186,0,0,experiment,NA,NA,1,0.7,0.3,2,3,190,5,NA
fcp-trial,225,871326,0.0-200.0-0.0,voc_e2,11823,"[{""event"":""fullscreenenter"",""trial"":1,""time"":2311}]",NA,NA,NA,NA,NA,5,#741CD8,#D8271C,10,10,1,40,0,847.9000000059605,37,1,630.0999999940395,10,1,experiment,NA,NA,2,0.5,0.5,4,5,191,5,NA
fcp-trial,226,874134,0.0-201.0-0.0,voc_e2,11823,"[{""event"":""fullscreenenter"",""trial"":1,""time"":2311}]",NA,NA,NA,NA,NA,5,#D89F1C,#3386FF,10,0,1,40,0,818.2000000178814,39,0,487.800000011921,0,0,experiment,NA,NA,0,0.9,0.1,0,1,192,5,NA
fcp-trial,227,876774,0.0-202.0-0.0,voc_e2,11823,"[{""event"":""fullscreenenter"",""trial"":1,""time"":2311}]",NA,NA,NA,NA,NA,1,#741CD8,#D8271C,0,10,1,38,1,800.6999999880791,39,0,334.59999999403954,10,0,experiment,NA,NA,2,0.5,0.5,4,5,193,5,NA
fcp-trial,228,879566,0.0-203.0-0.0,voc_e2,11823,"[{""event"":""fullscreenenter"",""trial"":1,""time"":2311}]",NA,NA,NA,NA,NA,2,#1CD855,#FA92F8,10,10,1,38,1,690.0999999940395,37,1,599.0999999940395,10,1,experiment,NA,NA,1,0.7,0.3,2,3,194,5,NA
fcp-trial,229,882262,0.0-204.0-0.0,voc_e2,11823,"[{""event"":""fullscreenenter"",""trial"":1,""time"":2311}]",NA,NA,NA,NA,NA,4,#3386FF,#D89F1C,0,10,0,40,0,833.5999999940395,39,0,359.30000001192093,10,1,experiment,NA,NA,0,0.1,0.9,1,0,195,5,NA
fcp-trial,230,885374,0.0-205.0-0.0,voc_e2,11823,"[{""event"":""fullscreenenter"",""trial"":1,""time"":2311}]",NA,NA,NA,NA,NA,2,#741CD8,#D8271C,0,0,1,38,1,930.4000000059605,39,0,679.5999999940395,0,0,experiment,NA,NA,2,0.5,0.5,4,5,196,5,NA
fcp-trial,231,888389,0.0-206.0-0.0,voc_e2,11823,"[{""event"":""fullscreenenter"",""trial"":1,""time"":2311}]",NA,NA,NA,NA,NA,1,#1CD855,#FA92F8,10,10,1,38,1,857.4000000059605,37,1,655.2999999821186,10,1,experiment,NA,NA,1,0.7,0.3,2,3,197,5,NA
fcp-trial,232,891126,0.0-207.0-0.0,voc_e2,11823,"[{""event"":""fullscreenenter"",""trial"":1,""time"":2311}]",NA,NA,NA,NA,NA,5,#FA92F8,#1CD855,0,10,0,40,0,786.2000000178814,37,1,447.5,0,0,experiment,NA,NA,1,0.3,0.7,3,2,198,5,NA
fcp-trial,233,893973,0.0-208.0-0.0,voc_e2,11823,"[{""event"":""fullscreenenter"",""trial"":1,""time"":2311}]",NA,NA,NA,NA,NA,6,#D89F1C,#3386FF,10,0,1,40,0,864.3000000119209,39,0,479.2000000178814,0,0,experiment,NA,NA,0,0.9,0.1,0,1,199,5,NA
fcp-trial,234,896703,0.0-209.0-0.0,voc_e2,11823,"[{""event"":""fullscreenenter"",""trial"":1,""time"":2311}]",NA,NA,NA,NA,NA,3,#D89F1C,#3386FF,0,0,1,38,1,769.8000000119209,37,1,454.300000011921,0,1,experiment,NA,NA,0,0.9,0.1,0,1,200,5,NA
fcp-trial,235,899581,0.0-210.0-0.0,voc_e2,11823,"[{""event"":""fullscreenenter"",""trial"":1,""time"":2311}]",NA,NA,NA,NA,NA,0,#741CD8,#D8271C,0,0,1,38,1,664.0999999940395,39,0,711.6999999880791,0,0,experiment,NA,NA,2,0.5,0.5,4,5,201,5,NA
fcp-trial,236,902533,0.0-211.0-0.0,voc_e2,11823,"[{""event"":""fullscreenenter"",""trial"":1,""time"":2311}]",NA,NA,NA,NA,NA,3,#FA92F8,#1CD855,10,10,0,38,1,849.5999999940395,39,0,599.4000000059605,10,1,experiment,NA,NA,1,0.3,0.7,3,2,202,5,NA
fcp-trial,237,905021,0.0-212.0-0.0,voc_e2,11823,"[{""event"":""fullscreenenter"",""trial"":1,""time"":2311}]",NA,NA,NA,NA,NA,0,#FA92F8,#1CD855,0,0,0,38,1,609.5,39,0,375,0,1,experiment,NA,NA,1,0.3,0.7,3,2,203,5,NA
fcp-trial,238,907494,0.0-213.0-0.0,voc_e2,11823,"[{""event"":""fullscreenenter"",""trial"":1,""time"":2311}]",NA,NA,NA,NA,NA,2,#3386FF,#D89F1C,0,10,0,38,1,537.7999999821186,39,0,431.59999999403954,10,1,experiment,NA,NA,0,0.1,0.9,1,0,204,5,NA
fcp-trial,239,910277,0.0-214.0-0.0,voc_e2,11823,"[{""event"":""fullscreenenter"",""trial"":1,""time"":2311}]",NA,NA,NA,NA,NA,1,#3386FF,#D89F1C,0,10,0,38,1,744.9000000059605,39,0,535.4000000059605,10,1,experiment,NA,NA,0,0.1,0.9,1,0,205,5,NA
fcp-trial,240,913301,0.0-215.0-0.0,voc_e2,11823,"[{""event"":""fullscreenenter"",""trial"":1,""time"":2311}]",NA,NA,NA,NA,NA,3,#741CD8,#D8271C,0,0,1,38,1,730,39,0,791.3000000119209,0,0,experiment,NA,NA,2,0.5,0.5,4,5,206,5,NA
fcp-trial,241,916173,0.0-216.0-0.0,voc_e2,11823,"[{""event"":""fullscreenenter"",""trial"":1,""time"":2311}]",NA,NA,NA,NA,NA,6,#FA92F8,#1CD855,0,10,0,40,0,921.5999999940395,37,1,447.300000011921,0,0,experiment,NA,NA,1,0.3,0.7,3,2,207,5,NA
fcp-trial,242,919125,0.0-217.0-0.0,voc_e2,11823,"[{""event"":""fullscreenenter"",""trial"":1,""time"":2311}]",NA,NA,NA,NA,NA,0,#D89F1C,#3386FF,10,0,1,38,1,753.5999999940395,39,0,695.6999999880791,0,0,experiment,NA,NA,0,0.9,0.1,0,1,208,5,NA
fcp-trial,243,922052,0.0-218.0-0.0,voc_e2,11823,"[{""event"":""fullscreenenter"",""trial"":1,""time"":2311}]",NA,NA,NA,NA,NA,4,#741CD8,#D8271C,0,10,1,40,0,1025,39,0,399.09999999403954,10,0,experiment,NA,NA,2,0.5,0.5,4,5,209,5,NA
fcp-trial,244,924885,0.0-219.0-0.0,voc_e2,11823,"[{""event"":""fullscreenenter"",""trial"":1,""time"":2311}]",NA,NA,NA,NA,NA,6,#D8271C,#741CD8,10,10,0,40,0,633.6999999880791,39,0,695.5999999940395,10,1,experiment,NA,NA,2,0.5,0.5,5,4,210,5,NA
audio-instructions,245,929738,0.0-220.0,voc_e2,11823,"[{""event"":""fullscreenenter"",""trial"":1,""time"":2311}]",NA,408.7000000178814,static/audio/pause.wav,NA,0,NA,NA,NA,NA,NA,NA,NA,NA,NA,NA,NA,NA,NA,NA,NA,NA,NA,NA,NA,NA,NA,NA,NA,NA,NA
fcp-trial,246,932636,0.0-221.0-0.0,voc_e2,11823,"[{""event"":""fullscreenenter"",""trial"":1,""time"":2311}]",NA,NA,NA,NA,NA,3,#3386FF,#D89F1C,0,10,0,38,1,923,37,1,454,0,0,experiment,NA,NA,0,0.1,0.9,1,0,211,5,NA
fcp-trial,247,935060,0.0-222.0-0.0,voc_e2,11823,"[{""event"":""fullscreenenter"",""trial"":1,""time"":2311}]",NA,NA,NA,NA,NA,2,#1CD855,#FA92F8,10,0,1,38,1,634,39,0,274,0,0,experiment,NA,NA,1,0.7,0.3,2,3,212,5,NA
fcp-trial,248,937477,0.0-223.0-0.0,voc_e2,11823,"[{""event"":""fullscreenenter"",""trial"":1,""time"":2311}]",NA,NA,NA,NA,NA,1,#3386FF,#D89F1C,0,10,0,38,1,474.2000000178814,39,0,434.7000000178814,10,1,experiment,NA,NA,0,0.1,0.9,1,0,213,5,NA
fcp-trial,249,940351,0.0-224.0-0.0,voc_e2,11823,"[{""event"":""fullscreenenter"",""trial"":1,""time"":2311}]",NA,NA,NA,NA,NA,2,#D89F1C,#3386FF,10,0,1,38,1,537.2000000178814,37,1,822.8999999761581,10,1,experiment,NA,NA,0,0.9,0.1,0,1,214,5,NA
fcp-trial,250,942796,0.0-225.0-0.0,voc_e2,11823,"[{""event"":""fullscreenenter"",""trial"":1,""time"":2311}]",NA,NA,NA,NA,NA,0,#D89F1C,#3386FF,10,0,1,38,1,645.9000000059605,37,1,293.40000000596046,10,1,experiment,NA,NA,0,0.9,0.1,0,1,215,5,NA
fcp-trial,251,945606,0.0-226.0-0.0,voc_e2,11823,"[{""event"":""fullscreenenter"",""trial"":1,""time"":2311}]",NA,NA,NA,NA,NA,3,#1CD855,#FA92F8,0,10,1,38,1,665.7000000178814,37,1,638.5,0,1,experiment,NA,NA,1,0.7,0.3,2,3,216,5,NA
fcp-trial,252,948293,0.0-227.0-0.0,voc_e2,11823,"[{""event"":""fullscreenenter"",""trial"":1,""time"":2311}]",NA,NA,NA,NA,NA,6,#D89F1C,#3386FF,10,0,1,40,0,782.2999999821186,39,0,399.59999999403954,0,0,experiment,NA,NA,0,0.9,0.1,0,1,217,5,NA
fcp-trial,253,950845,0.0-228.0-0.0,voc_e2,11823,"[{""event"":""fullscreenenter"",""trial"":1,""time"":2311}]",NA,NA,NA,NA,NA,2,#741CD8,#D8271C,0,10,1,38,1,576.0999999940395,39,0,466.90000000596046,10,0,experiment,NA,NA,2,0.5,0.5,4,5,218,5,NA
fcp-trial,254,953247,0.0-229.0-0.0,voc_e2,11823,"[{""event"":""fullscreenenter"",""trial"":1,""time"":2311}]",NA,NA,NA,NA,NA,0,#741CD8,#D8271C,0,0,1,38,1,583.6000000238419,39,0,306.2000000178814,0,0,experiment,NA,NA,2,0.5,0.5,4,5,219,5,NA
fcp-trial,255,955650,0.0-230.0-0.0,voc_e2,11823,"[{""event"":""fullscreenenter"",""trial"":1,""time"":2311}]",NA,NA,NA,NA,NA,5,#1CD855,#FA92F8,0,0,1,38,1,397.69999998807907,37,1,495,0,1,experiment,NA,NA,1,0.7,0.3,2,3,220,5,NA
fcp-trial,256,958276,0.0-231.0-0.0,voc_e2,11823,"[{""event"":""fullscreenenter"",""trial"":1,""time"":2311}]",NA,NA,NA,NA,NA,4,#741CD8,#D8271C,0,10,1,40,0,794.5999999940395,39,0,327.2999999821186,10,0,experiment,NA,NA,2,0.5,0.5,4,5,221,5,NA
fcp-trial,257,961036,0.0-232.0-0.0,voc_e2,11823,"[{""event"":""fullscreenenter"",""trial"":1,""time"":2311}]",NA,NA,NA,NA,NA,4,#D89F1C,#3386FF,10,0,1,40,0,561.0999999940395,39,0,683,0,0,experiment,NA,NA,0,0.9,0.1,0,1,222,5,NA
fcp-trial,258,963547,0.0-233.0-0.0,voc_e2,11823,"[{""event"":""fullscreenenter"",""trial"":1,""time"":2311}]",NA,NA,NA,NA,NA,4,#FA92F8,#1CD855,0,10,0,40,0,441,37,1,567,0,0,experiment,NA,NA,1,0.3,0.7,3,2,223,5,NA
fcp-trial,259,965980,0.0-234.0-0.0,voc_e2,11823,"[{""event"":""fullscreenenter"",""trial"":1,""time"":2311}]",NA,NA,NA,NA,NA,6,#FA92F8,#1CD855,0,10,0,40,0,593.9000000059605,39,0,335.60000002384186,10,1,experiment,NA,NA,1,0.3,0.7,3,2,224,5,NA
fcp-trial,260,968420,0.0-235.0-0.0,voc_e2,11823,"[{""event"":""fullscreenenter"",""trial"":1,""time"":2311}]",NA,NA,NA,NA,NA,6,#741CD8,#D8271C,0,0,1,40,0,457,37,1,479.2999999821186,0,1,experiment,NA,NA,2,0.5,0.5,4,5,225,5,NA
fcp-trial,261,970755,0.0-236.0-0.0,voc_e2,11823,"[{""event"":""fullscreenenter"",""trial"":1,""time"":2311}]",NA,NA,NA,NA,NA,1,#741CD8,#D8271C,0,0,1,38,1,496.7999999821186,39,0,335.19999998807907,0,0,experiment,NA,NA,2,0.5,0.5,4,5,226,6,NA
fcp-trial,262,973164,0.0-237.0-0.0,voc_e2,11823,"[{""event"":""fullscreenenter"",""trial"":1,""time"":2311}]",NA,NA,NA,NA,NA,5,#3386FF,#D89F1C,0,10,0,40,0,561.0999999940395,37,1,343.60000002384186,0,0,experiment,NA,NA,0,0.1,0.9,1,0,227,6,NA
fcp-trial,263,976091,0.0-238.0-0.0,voc_e2,11823,"[{""event"":""fullscreenenter"",""trial"":1,""time"":2311}]",NA,NA,NA,NA,NA,3,#741CD8,#D8271C,0,0,1,40,0,721,39,0,703.4000000059605,0,0,experiment,NA,NA,2,0.5,0.5,4,5,228,6,NA
fcp-trial,264,978723,0.0-239.0-0.0,voc_e2,11823,"[{""event"":""fullscreenenter"",""trial"":1,""time"":2311}]",NA,NA,NA,NA,NA,0,#FA92F8,#1CD855,0,10,0,38,1,673.5999999940395,39,0,455.09999999403954,10,1,experiment,NA,NA,1,0.3,0.7,3,2,229,6,NA
fcp-trial,265,981403,0.0-240.0-0.0,voc_e2,11823,"[{""event"":""fullscreenenter"",""trial"":1,""time"":2311}]",NA,NA,NA,NA,NA,5,#741CD8,#D8271C,0,10,1,40,0,800.6000000238419,39,0,375.699999988079,10,0,experiment,NA,NA,2,0.5,0.5,4,5,230,6,NA
fcp-trial,266,983955,0.0-241.0-0.0,voc_e2,11823,"[{""event"":""fullscreenenter"",""trial"":1,""time"":2311}]",NA,NA,NA,NA,NA,1,#FA92F8,#1CD855,0,10,0,38,1,633.0999999940395,37,1,414.800000011921,0,0,experiment,NA,NA,1,0.3,0.7,3,2,231,6,NA
fcp-trial,267,986483,0.0-242.0-0.0,voc_e2,11823,"[{""event"":""fullscreenenter"",""trial"":1,""time"":2311}]",NA,NA,NA,NA,NA,1,#741CD8,#D8271C,10,0,1,38,1,585.3000000119209,39,0,438.89999997615814,0,0,experiment,NA,NA,2,0.5,0.5,4,5,232,6,NA
fcp-trial,268,989546,0.0-243.0-0.0,voc_e2,11823,"[{""event"":""fullscreenenter"",""trial"":1,""time"":2311}]",NA,NA,NA,NA,NA,5,#D8271C,#741CD8,0,10,0,40,0,1033.5,39,0,527.1999999880791,10,1,experiment,NA,NA,2,0.5,0.5,5,4,233,6,NA
fcp-trial,269,992330,0.0-244.0-0.0,voc_e2,11823,"[{""event"":""fullscreenenter"",""trial"":1,""time"":2311}]",NA,NA,NA,NA,NA,2,#1CD855,#FA92F8,10,0,1,38,1,545.6999999880791,37,1,735.7999999821186,10,1,experiment,NA,NA,1,0.7,0.3,2,3,234,6,NA
fcp-trial,270,994939,0.0-245.0-0.0,voc_e2,11823,"[{""event"":""fullscreenenter"",""trial"":1,""time"":2311}]",NA,NA,NA,NA,NA,0,#741CD8,#D8271C,0,0,1,38,1,689.9000000059605,39,0,415.09999999403954,0,0,experiment,NA,NA,2,0.5,0.5,4,5,235,6,NA
fcp-trial,271,997642,0.0-246.0-0.0,voc_e2,11823,"[{""event"":""fullscreenenter"",""trial"":1,""time"":2311}]",NA,NA,NA,NA,NA,4,#D89F1C,#3386FF,10,0,1,40,0,752.2999999821186,37,1,447,10,1,experiment,NA,NA,0,0.9,0.1,0,1,236,6,NA
fcp-trial,272,1000130,0.0-247.0-0.0,voc_e2,11823,"[{""event"":""fullscreenenter"",""trial"":1,""time"":2311}]",NA,NA,NA,NA,NA,0,#3386FF,#D89F1C,0,10,0,38,1,609.8000000119209,39,0,374.90000000596046,10,1,experiment,NA,NA,0,0.1,0.9,1,0,237,6,NA
fcp-trial,273,1002939,0.0-248.0-0.0,voc_e2,11823,"[{""event"":""fullscreenenter"",""trial"":1,""time"":2311}]",NA,NA,NA,NA,NA,4,#D8271C,#741CD8,0,10,0,40,0,865.8999999761581,39,0,439.5,10,1,experiment,NA,NA,2,0.5,0.5,5,4,238,6,NA
fcp-trial,274,1005962,0.0-249.0-0.0,voc_e2,11823,"[{""event"":""fullscreenenter"",""trial"":1,""time"":2311}]",NA,NA,NA,NA,NA,1,#1CD855,#FA92F8,0,10,1,38,1,1065.0999999940395,37,1,455.5,0,1,experiment,NA,NA,1,0.7,0.3,2,3,239,6,NA
fcp-trial,275,1008362,0.0-250.0-0.0,voc_e2,11823,"[{""event"":""fullscreenenter"",""trial"":1,""time"":2311}]",NA,NA,NA,NA,NA,3,#FA92F8,#1CD855,10,10,0,38,1,593.5999999940395,39,0,303.59999999403954,10,1,experiment,NA,NA,1,0.3,0.7,3,2,240,6,NA
fcp-trial,276,1012235,0.0-251.0-0.0,voc_e2,11823,"[{""event"":""fullscreenenter"",""trial"":1,""time"":2311}]",NA,NA,NA,NA,NA,1,#3386FF,#D89F1C,0,10,0,38,1,1690,37,1,678.8000000119209,0,0,experiment,NA,NA,0,0.1,0.9,1,0,241,6,NA
fcp-trial,277,1014922,0.0-252.0-0.0,voc_e2,11823,"[{""event"":""fullscreenenter"",""trial"":1,""time"":2311}]",NA,NA,NA,NA,NA,5,#D89F1C,#3386FF,10,0,1,40,0,720.8000000119209,39,0,462.7000000178814,0,0,experiment,NA,NA,0,0.9,0.1,0,1,242,6,NA
fcp-trial,278,1017810,0.0-253.0-0.0,voc_e2,11823,"[{""event"":""fullscreenenter"",""trial"":1,""time"":2311}]",NA,NA,NA,NA,NA,2,#741CD8,#D8271C,10,0,1,38,1,769.6999999880791,39,0,614.5999999940395,0,0,experiment,NA,NA,2,0.5,0.5,4,5,243,6,NA
fcp-trial,279,1020722,0.0-254.0-0.0,voc_e2,11823,"[{""event"":""fullscreenenter"",""trial"":1,""time"":2311}]",NA,NA,NA,NA,NA,5,#1CD855,#FA92F8,10,0,1,40,0,953.3000000119209,39,0,454.199999988079,0,0,experiment,NA,NA,1,0.7,0.3,2,3,244,6,NA
fcp-trial,280,1023562,0.0-255.0-0.0,voc_e2,11823,"[{""event"":""fullscreenenter"",""trial"":1,""time"":2311}]",NA,NA,NA,NA,NA,3,#D8271C,#741CD8,10,0,0,38,1,769,37,1,567.0999999940395,10,0,experiment,NA,NA,2,0.5,0.5,5,4,245,6,NA
fcp-trial,281,1026370,0.0-256.0-0.0,voc_e2,11823,"[{""event"":""fullscreenenter"",""trial"":1,""time"":2311}]",NA,NA,NA,NA,NA,0,#1CD855,#FA92F8,10,0,1,38,1,641.5,37,1,663.9000000059605,10,1,experiment,NA,NA,1,0.7,0.3,2,3,246,6,NA
fcp-trial,282,1029266,0.0-257.0-0.0,voc_e2,11823,"[{""event"":""fullscreenenter"",""trial"":1,""time"":2311}]",NA,NA,NA,NA,NA,3,#D89F1C,#3386FF,10,0,1,38,1,824.3000000119209,39,0,567.3000000119209,0,0,experiment,NA,NA,0,0.9,0.1,0,1,247,6,NA
fcp-trial,283,1032001,0.0-258.0-0.0,voc_e2,11823,"[{""event"":""fullscreenenter"",""trial"":1,""time"":2311}]",NA,NA,NA,NA,NA,6,#3386FF,#D89F1C,0,10,0,40,0,802,39,0,426.09999999403954,10,1,experiment,NA,NA,0,0.1,0.9,1,0,248,6,NA
fcp-trial,284,1034890,0.0-259.0-0.0,voc_e2,11823,"[{""event"":""fullscreenenter"",""trial"":1,""time"":2311}]",NA,NA,NA,NA,NA,4,#FA92F8,#1CD855,0,0,0,40,0,1001.9000000059605,39,0,383.60000002384186,0,1,experiment,NA,NA,1,0.3,0.7,3,2,249,6,NA
fcp-trial,285,1037601,0.0-260.0-0.0,voc_e2,11823,"[{""event"":""fullscreenenter"",""trial"":1,""time"":2311}]",NA,NA,NA,NA,NA,6,#741CD8,#D8271C,0,0,1,40,0,809.3999999761581,39,0,398,0,0,experiment,NA,NA,2,0.5,0.5,4,5,250,6,NA
fcp-trial,286,1040673,0.0-261.0-0.0,voc_e2,11823,"[{""event"":""fullscreenenter"",""trial"":1,""time"":2311}]",NA,NA,NA,NA,NA,6,#1CD855,#FA92F8,10,0,1,40,0,994,37,1,575.5999999940395,10,1,experiment,NA,NA,1,0.7,0.3,2,3,251,6,NA
fcp-trial,287,1043585,0.0-262.0-0.0,voc_e2,11823,"[{""event"":""fullscreenenter"",""trial"":1,""time"":2311}]",NA,NA,NA,NA,NA,2,#D89F1C,#3386FF,10,0,1,38,1,874.1999999880791,37,1,535,10,1,experiment,NA,NA,0,0.9,0.1,0,1,252,6,NA
fcp-trial,288,1046657,0.0-263.0-0.0,voc_e2,11823,"[{""event"":""fullscreenenter"",""trial"":1,""time"":2311}]",NA,NA,NA,NA,NA,1,#D8271C,#741CD8,10,10,0,38,1,817.5,39,0,751.5999999940395,10,1,experiment,NA,NA,2,0.5,0.5,5,4,253,6,NA
fcp-trial,289,1049505,0.0-264.0-0.0,voc_e2,11823,"[{""event"":""fullscreenenter"",""trial"":1,""time"":2311}]",NA,NA,NA,NA,NA,6,#FA92F8,#1CD855,0,10,0,40,0,865.3000000119209,37,1,480,0,0,experiment,NA,NA,1,0.3,0.7,3,2,254,6,NA
fcp-trial,290,1052617,0.0-265.0-0.0,voc_e2,11823,"[{""event"":""fullscreenenter"",""trial"":1,""time"":2311}]",NA,NA,NA,NA,NA,0,#741CD8,#D8271C,10,0,1,38,1,745.7000000178814,39,0,863.1000000238419,0,0,experiment,NA,NA,2,0.5,0.5,4,5,255,6,NA
fcp-trial,291,1055281,0.0-266.0-0.0,voc_e2,11823,"[{""event"":""fullscreenenter"",""trial"":1,""time"":2311}]",NA,NA,NA,NA,NA,5,#1CD855,#FA92F8,10,0,1,40,0,794.2000000178814,37,1,367.5,10,1,experiment,NA,NA,1,0.7,0.3,2,3,256,6,NA
fcp-trial,292,1058145,0.0-267.0-0.0,voc_e2,11823,"[{""event"":""fullscreenenter"",""trial"":1,""time"":2311}]",NA,NA,NA,NA,NA,3,#3386FF,#D89F1C,0,0,0,38,1,793.5999999940395,37,1,567,0,0,experiment,NA,NA,0,0.1,0.9,1,0,257,6,NA
fcp-trial,293,1061281,0.0-268.0-0.0,voc_e2,11823,"[{""event"":""fullscreenenter"",""trial"":1,""time"":2311}]",NA,NA,NA,NA,NA,4,#D89F1C,#3386FF,10,0,1,40,0,1138,39,0,494.699999988079,0,0,experiment,NA,NA,0,0.9,0.1,0,1,258,6,NA
fcp-trial,294,1063753,0.0-269.0-0.0,voc_e2,11823,"[{""event"":""fullscreenenter"",""trial"":1,""time"":2311}]",NA,NA,NA,NA,NA,3,#FA92F8,#1CD855,0,0,0,38,1,465.40000000596046,39,0,503.59999999403954,0,1,experiment,NA,NA,1,0.3,0.7,3,2,259,6,NA
fcp-trial,295,1066473,0.0-270.0-0.0,voc_e2,11823,"[{""event"":""fullscreenenter"",""trial"":1,""time"":2311}]",NA,NA,NA,NA,NA,5,#741CD8,#D8271C,0,0,1,40,0,761.1999999880791,39,0,455.7000000178814,0,0,experiment,NA,NA,2,0.5,0.5,4,5,260,6,NA
fcp-trial,296,1069209,0.0-271.0-0.0,voc_e2,11823,"[{""event"":""fullscreenenter"",""trial"":1,""time"":2311}]",NA,NA,NA,NA,NA,2,#FA92F8,#1CD855,0,10,0,38,1,554,39,0,679.1000000238419,10,1,experiment,NA,NA,1,0.3,0.7,3,2,261,6,NA
fcp-trial,297,1071793,0.0-272.0-0.0,voc_e2,11823,"[{""event"":""fullscreenenter"",""trial"":1,""time"":2311}]",NA,NA,NA,NA,NA,2,#3386FF,#D89F1C,0,10,0,38,1,601.9000000059605,39,0,479.199999988079,10,1,experiment,NA,NA,0,0.1,0.9,1,0,262,6,NA
fcp-trial,298,1074353,0.0-273.0-0.0,voc_e2,11823,"[{""event"":""fullscreenenter"",""trial"":1,""time"":2311}]",NA,NA,NA,NA,NA,3,#741CD8,#D8271C,10,10,1,38,1,640.8000000119209,39,0,415.5,10,0,experiment,NA,NA,2,0.5,0.5,4,5,263,6,NA
fcp-trial,299,1077025,0.0-274.0-0.0,voc_e2,11823,"[{""event"":""fullscreenenter"",""trial"":1,""time"":2311}]",NA,NA,NA,NA,NA,0,#D89F1C,#3386FF,0,0,1,38,1,544.9000000059605,37,1,622.9000000059605,0,1,experiment,NA,NA,0,0.9,0.1,0,1,264,6,NA
fcp-trial,300,1079664,0.0-275.0-0.0,voc_e2,11823,"[{""event"":""fullscreenenter"",""trial"":1,""time"":2311}]",NA,NA,NA,NA,NA,0,#1CD855,#FA92F8,10,10,1,38,1,560.8000000119209,39,0,575.0999999940395,10,0,experiment,NA,NA,1,0.7,0.3,2,3,265,6,NA
fcp-trial,301,1082016,0.0-276.0-0.0,voc_e2,11823,"[{""event"":""fullscreenenter"",""trial"":1,""time"":2311}]",NA,NA,NA,NA,NA,1,#D89F1C,#3386FF,10,0,1,38,1,306.2999999821186,37,1,542.8000000119209,10,1,experiment,NA,NA,0,0.9,0.1,0,1,266,6,NA
fcp-trial,302,1084704,0.0-277.0-0.0,voc_e2,11823,"[{""event"":""fullscreenenter"",""trial"":1,""time"":2311}]",NA,NA,NA,NA,NA,6,#741CD8,#D8271C,10,0,1,38,1,369.7000000178814,39,0,815.7000000178814,0,0,experiment,NA,NA,2,0.5,0.5,4,5,267,6,NA
fcp-trial,303,1087216,0.0-278.0-0.0,voc_e2,11823,"[{""event"":""fullscreenenter"",""trial"":1,""time"":2311}]",NA,NA,NA,NA,NA,2,#D8271C,#741CD8,10,10,0,38,1,577.3000000119209,37,1,430.60000002384186,10,0,experiment,NA,NA,2,0.5,0.5,5,4,268,6,NA
fcp-trial,304,1089792,0.0-279.0-0.0,voc_e2,11823,"[{""event"":""fullscreenenter"",""trial"":1,""time"":2311}]",NA,NA,NA,NA,NA,4,#FA92F8,#1CD855,0,10,0,40,0,785.2999999821186,39,0,287.19999998807907,10,1,experiment,NA,NA,1,0.3,0.7,3,2,269,6,NA
fcp-trial,305,1092311,0.0-280.0-0.0,voc_e2,11823,"[{""event"":""fullscreenenter"",""trial"":1,""time"":2311}]",NA,NA,NA,NA,NA,1,#1CD855,#FA92F8,10,0,1,38,1,633.5,37,1,383.09999999403954,10,1,experiment,NA,NA,1,0.7,0.3,2,3,270,6,NA
fcp-trial,306,1094951,0.0-281.0-0.0,voc_e2,11823,"[{""event"":""fullscreenenter"",""trial"":1,""time"":2311}]",NA,NA,NA,NA,NA,6,#3386FF,#D89F1C,0,10,0,40,0,697.9000000059605,37,1,439,0,0,experiment,NA,NA,0,0.1,0.9,1,0,271,7,NA
fcp-trial,307,1097543,0.0-282.0-0.0,voc_e2,11823,"[{""event"":""fullscreenenter"",""trial"":1,""time"":2311}]",NA,NA,NA,NA,NA,4,#D8271C,#741CD8,0,10,0,40,0,681.9000000059605,37,1,406.60000002384186,0,0,experiment,NA,NA,2,0.5,0.5,5,4,272,7,NA
fcp-trial,308,1100056,0.0-283.0-0.0,voc_e2,11823,"[{""event"":""fullscreenenter"",""trial"":1,""time"":2311}]",NA,NA,NA,NA,NA,5,#3386FF,#D89F1C,0,10,0,40,0,514.2999999821186,39,0,495.40000000596046,10,1,experiment,NA,NA,0,0.1,0.9,1,0,273,7,NA
fcp-trial,309,1102520,0.0-284.0-0.0,voc_e2,11823,"[{""event"":""fullscreenenter"",""trial"":1,""time"":2311}]",NA,NA,NA,NA,NA,4,#741CD8,#D8271C,10,10,1,40,0,569.2999999821186,37,1,391.300000011921,10,1,experiment,NA,NA,2,0.5,0.5,4,5,274,7,NA
fcp-trial,310,1105032,0.0-285.0-0.0,voc_e2,11823,"[{""event"":""fullscreenenter"",""trial"":1,""time"":2311}]",NA,NA,NA,NA,NA,4,#1CD855,#FA92F8,0,10,1,40,0,505.40000000596046,39,0,503.59999999403954,10,0,experiment,NA,NA,1,0.7,0.3,2,3,275,7,NA
fcp-trial,311,1107951,0.0-286.0-0.0,voc_e2,11823,"[{""event"":""fullscreenenter"",""trial"":1,""time"":2311}]",NA,NA,NA,NA,NA,1,#3386FF,#D89F1C,0,10,0,40,0,624.4000000059605,37,1,791.0999999940395,0,0,experiment,NA,NA,0,0.1,0.9,1,0,276,7,NA
fcp-trial,312,1110439,0.0-287.0-0.0,voc_e2,11823,"[{""event"":""fullscreenenter"",""trial"":1,""time"":2311}]",NA,NA,NA,NA,NA,0,#1CD855,#FA92F8,10,0,1,38,1,553.4000000059605,37,1,431.199999988079,10,1,experiment,NA,NA,1,0.7,0.3,2,3,277,7,NA
fcp-trial,313,1113288,0.0-288.0-0.0,voc_e2,11823,"[{""event"":""fullscreenenter"",""trial"":1,""time"":2311}]",NA,NA,NA,NA,NA,1,#D8271C,#741CD8,10,10,0,38,1,825.6999999880791,37,1,519.3999999761581,10,0,experiment,NA,NA,2,0.5,0.5,5,4,278,7,NA
fcp-trial,314,1116335,0.0-289.0-0.0,voc_e2,11823,"[{""event"":""fullscreenenter"",""trial"":1,""time"":2311}]",NA,NA,NA,NA,NA,3,#FA92F8,#1CD855,0,10,0,38,1,1153.5,39,0,390.2000000178814,10,1,experiment,NA,NA,1,0.3,0.7,3,2,279,7,NA
fcp-trial,315,1119231,0.0-290.0-0.0,voc_e2,11823,"[{""event"":""fullscreenenter"",""trial"":1,""time"":2311}]",NA,NA,NA,NA,NA,3,#3386FF,#D89F1C,0,10,0,38,1,817.8000000119209,37,1,575.9000000059605,0,0,experiment,NA,NA,0,0.1,0.9,1,0,280,7,NA
fcp-trial,316,1122015,0.0-291.0-0.0,voc_e2,11823,"[{""event"":""fullscreenenter"",""trial"":1,""time"":2311}]",NA,NA,NA,NA,NA,4,#3386FF,#D89F1C,0,10,0,40,0,841,37,1,438.89999997615814,0,0,experiment,NA,NA,0,0.1,0.9,1,0,281,7,NA
fcp-trial,317,1125278,0.0-292.0-0.0,voc_e2,11823,"[{""event"":""fullscreenenter"",""trial"":1,""time"":2311}]",NA,NA,NA,NA,NA,2,#D8271C,#741CD8,0,10,0,38,1,921.2999999821186,37,1,839.1999999880791,0,0,experiment,NA,NA,2,0.5,0.5,5,4,282,7,NA
fcp-trial,318,1128232,0.0-293.0-0.0,voc_e2,11823,"[{""event"":""fullscreenenter"",""trial"":1,""time"":2311}]",NA,NA,NA,NA,NA,6,#1CD855,#FA92F8,10,10,1,40,0,937.9000000059605,39,0,511,10,0,experiment,NA,NA,1,0.7,0.3,2,3,283,7,NA
fcp-trial,319,1132287,0.0-294.0-0.0,voc_e2,11823,"[{""event"":""fullscreenenter"",""trial"":1,""time"":2311}]",NA,NA,NA,NA,NA,3,#741CD8,#D8271C,0,10,1,38,1,1464.7999999821186,39,0,1087.5,10,0,experiment,NA,NA,2,0.5,0.5,4,5,284,7,NA
fcp-trial,320,1136031,0.0-295.0-0.0,voc_e2,11823,"[{""event"":""fullscreenenter"",""trial"":1,""time"":2311}]",NA,NA,NA,NA,NA,6,#3386FF,#D89F1C,0,10,0,38,1,929.1000000238419,39,0,1311.5999999940395,10,1,experiment,NA,NA,0,0.1,0.9,1,0,285,7,NA
fcp-trial,321,1138687,0.0-296.0-0.0,voc_e2,11823,"[{""event"":""fullscreenenter"",""trial"":1,""time"":2311}]",NA,NA,NA,NA,NA,0,#D8271C,#741CD8,0,10,0,38,1,649.3000000119209,37,1,503,0,0,experiment,NA,NA,2,0.5,0.5,5,4,286,7,NA
fcp-trial,322,1141567,0.0-297.0-0.0,voc_e2,11823,"[{""event"":""fullscreenenter"",""trial"":1,""time"":2311}]",NA,NA,NA,NA,NA,5,#D8271C,#741CD8,10,0,0,40,0,920.6999999880791,37,1,455.40000000596046,10,0,experiment,NA,NA,2,0.5,0.5,5,4,287,7,NA
fcp-trial,323,1144262,0.0-298.0-0.0,voc_e2,11823,"[{""event"":""fullscreenenter"",""trial"":1,""time"":2311}]",NA,NA,NA,NA,NA,1,#1CD855,#FA92F8,10,0,1,38,1,665,39,0,526.5,0,0,experiment,NA,NA,1,0.7,0.3,2,3,288,7,NA
fcp-trial,324,1147014,0.0-299.0-0.0,voc_e2,11823,"[{""event"":""fullscreenenter"",""trial"":1,""time"":2311}]",NA,NA,NA,NA,NA,5,#FA92F8,#1CD855,0,0,0,40,0,849.7000000178814,39,0,398.5,0,1,experiment,NA,NA,1,0.3,0.7,3,2,289,7,NA
fcp-trial,325,1149813,0.0-300.0-0.0,voc_e2,11823,"[{""event"":""fullscreenenter"",""trial"":1,""time"":2311}]",NA,NA,NA,NA,NA,5,#D89F1C,#3386FF,10,0,1,40,0,809.4000000059605,39,0,487.7000000178814,0,0,experiment,NA,NA,0,0.9,0.1,0,1,290,7,NA
fcp-trial,326,1152390,0.0-301.0-0.0,voc_e2,11823,"[{""event"":""fullscreenenter"",""trial"":1,""time"":2311}]",NA,NA,NA,NA,NA,6,#D8271C,#741CD8,10,0,0,40,0,650.2000000178814,39,0,422.800000011921,0,1,experiment,NA,NA,2,0.5,0.5,5,4,291,7,NA
fcp-trial,327,1155333,0.0-302.0-0.0,voc_e2,11823,"[{""event"":""fullscreenenter"",""trial"":1,""time"":2311}]",NA,NA,NA,NA,NA,2,#FA92F8,#1CD855,10,10,0,38,1,712.5999999940395,37,1,727.2999999821186,10,0,experiment,NA,NA,1,0.3,0.7,3,2,292,7,NA
fcp-trial,328,1157925,0.0-303.0-0.0,voc_e2,11823,"[{""event"":""fullscreenenter"",""trial"":1,""time"":2311}]",NA,NA,NA,NA,NA,2,#D89F1C,#3386FF,10,0,1,38,1,664.9000000059605,39,0,423.40000000596046,0,0,experiment,NA,NA,0,0.9,0.1,0,1,293,7,NA
fcp-trial,329,1160405,0.0-304.0-0.0,voc_e2,11823,"[{""event"":""fullscreenenter"",""trial"":1,""time"":2311}]",NA,NA,NA,NA,NA,0,#3386FF,#D89F1C,0,10,0,38,1,610.4000000059605,39,0,367.199999988079,10,1,experiment,NA,NA,0,0.1,0.9,1,0,294,7,NA
fcp-trial,330,1163709,0.0-305.0-0.0,voc_e2,11823,"[{""event"":""fullscreenenter"",""trial"":1,""time"":2311}]",NA,NA,NA,NA,NA,6,#D8271C,#741CD8,10,0,0,40,0,1066.300000011921,39,0,734.8000000119209,0,1,experiment,NA,NA,2,0.5,0.5,5,4,295,7,NA
fcp-trial,331,1166509,0.0-306.0-0.0,voc_e2,11823,"[{""event"":""fullscreenenter"",""trial"":1,""time"":2311}]",NA,NA,NA,NA,NA,5,#3386FF,#D89F1C,0,10,0,40,0,842.1999999880791,39,0,455.5,10,1,experiment,NA,NA,0,0.1,0.9,1,0,296,7,NA
fcp-trial,332,1169302,0.0-307.0-0.0,voc_e2,11823,"[{""event"":""fullscreenenter"",""trial"":1,""time"":2311}]",NA,NA,NA,NA,NA,3,#D8271C,#741CD8,0,0,0,40,0,665.7000000178814,37,1,623.5,0,0,experiment,NA,NA,2,0.5,0.5,5,4,297,7,NA
fcp-trial,333,1171773,0.0-308.0-0.0,voc_e2,11823,"[{""event"":""fullscreenenter"",""trial"":1,""time"":2311}]",NA,NA,NA,NA,NA,0,#741CD8,#D8271C,10,0,1,38,1,584.1999999880791,39,0,383.40000000596046,0,0,experiment,NA,NA,2,0.5,0.5,4,5,298,7,NA
fcp-trial,334,1174956,0.0-309.0-0.0,voc_e2,11823,"[{""event"":""fullscreenenter"",""trial"":1,""time"":2311}]",NA,NA,NA,NA,NA,3,#FA92F8,#1CD855,10,10,0,38,1,890.3000000119209,39,0,789.6999999880791,10,1,experiment,NA,NA,1,0.3,0.7,3,2,299,7,NA
fcp-trial,335,1177621,0.0-310.0-0.0,voc_e2,11823,"[{""event"":""fullscreenenter"",""trial"":1,""time"":2311}]",NA,NA,NA,NA,NA,6,#FA92F8,#1CD855,10,10,0,40,0,746.5999999940395,37,1,414.60000002384186,10,0,experiment,NA,NA,1,0.3,0.7,3,2,300,7,NA
fcp-trial,336,1180380,0.0-311.0-0.0,voc_e2,11823,"[{""event"":""fullscreenenter"",""trial"":1,""time"":2311}]",NA,NA,NA,NA,NA,3,#3386FF,#D89F1C,10,10,0,38,1,657.5,39,0,598.9000000059605,10,1,experiment,NA,NA,0,0.1,0.9,1,0,301,7,NA
fcp-trial,337,1183196,0.0-312.0-0.0,voc_e2,11823,"[{""event"":""fullscreenenter"",""trial"":1,""time"":2311}]",NA,NA,NA,NA,NA,1,#D8271C,#741CD8,10,0,0,38,1,689.9000000059605,37,1,623.6000000238419,10,0,experiment,NA,NA,2,0.5,0.5,5,4,302,7,NA
fcp-trial,338,1186420,0.0-313.0-0.0,voc_e2,11823,"[{""event"":""fullscreenenter"",""trial"":1,""time"":2311}]",NA,NA,NA,NA,NA,4,#D89F1C,#3386FF,10,0,1,40,0,1242.300000011921,37,1,478,10,1,experiment,NA,NA,0,0.9,0.1,0,1,303,7,NA
fcp-trial,339,1189117,0.0-314.0-0.0,voc_e2,11823,"[{""event"":""fullscreenenter"",""trial"":1,""time"":2311}]",NA,NA,NA,NA,NA,2,#FA92F8,#1CD855,0,10,0,38,1,585.8000000119209,39,0,607.1999999880791,10,1,experiment,NA,NA,1,0.3,0.7,3,2,304,7,NA
fcp-trial,340,1191957,0.0-315.0-0.0,voc_e2,11823,"[{""event"":""fullscreenenter"",""trial"":1,""time"":2311}]",NA,NA,NA,NA,NA,6,#3386FF,#D89F1C,10,10,0,40,0,888.5999999940395,39,0,446.90000000596046,10,1,experiment,NA,NA,0,0.1,0.9,1,0,305,7,NA
fcp-trial,341,1194796,0.0-316.0-0.0,voc_e2,11823,"[{""event"":""fullscreenenter"",""trial"":1,""time"":2311}]",NA,NA,NA,NA,NA,5,#D8271C,#741CD8,10,10,0,38,1,681.0999999940395,37,1,654.6999999880791,10,0,experiment,NA,NA,2,0.5,0.5,5,4,306,7,NA
fcp-trial,342,1197485,0.0-317.0-0.0,voc_e2,11823,"[{""event"":""fullscreenenter"",""trial"":1,""time"":2311}]",NA,NA,NA,NA,NA,4,#FA92F8,#1CD855,0,0,0,40,0,793.5,39,0,391,0,1,experiment,NA,NA,1,0.3,0.7,3,2,307,7,NA
fcp-trial,343,1201125,0.0-318.0-0.0,voc_e2,11823,"[{""event"":""fullscreenenter"",""trial"":1,""time"":2311}]",NA,NA,NA,NA,NA,1,#FA92F8,#1CD855,0,10,0,38,1,1033,39,0,1103.5999999940395,10,1,experiment,NA,NA,1,0.3,0.7,3,2,308,7,NA
fcp-trial,344,1203829,0.0-319.0-0.0,voc_e2,11823,"[{""event"":""fullscreenenter"",""trial"":1,""time"":2311}]",NA,NA,NA,NA,NA,5,#1CD855,#FA92F8,0,10,1,40,0,713.3000000119209,37,1,487.2000000178814,0,1,experiment,NA,NA,1,0.7,0.3,2,3,309,7,NA
fcp-trial,345,1206892,0.0-320.0-0.0,voc_e2,11823,"[{""event"":""fullscreenenter"",""trial"":1,""time"":2311}]",NA,NA,NA,NA,NA,2,#3386FF,#D89F1C,10,0,0,38,1,841.7999999821186,39,0,719.6999999880791,0,1,experiment,NA,NA,0,0.1,0.9,1,0,310,7,NA
fcp-trial,346,1209973,0.0-321.0-0.0,voc_e2,11823,"[{""event"":""fullscreenenter"",""trial"":1,""time"":2311}]",NA,NA,NA,NA,NA,2,#D8271C,#741CD8,0,10,0,38,1,914,37,1,663.0999999940395,0,0,experiment,NA,NA,2,0.5,0.5,5,4,311,7,NA
fcp-trial,347,1213021,0.0-322.0-0.0,voc_e2,11823,"[{""event"":""fullscreenenter"",""trial"":1,""time"":2311}]",NA,NA,NA,NA,NA,0,#3386FF,#D89F1C,0,10,0,38,1,857.5999999940395,39,0,686.5999999940395,10,1,experiment,NA,NA,0,0.1,0.9,1,0,312,7,NA
fcp-trial,348,1216157,0.0-323.0-0.0,voc_e2,11823,"[{""event"":""fullscreenenter"",""trial"":1,""time"":2311}]",NA,NA,NA,NA,NA,0,#1CD855,#FA92F8,10,0,1,38,1,1073,37,1,558.8999999761581,10,1,experiment,NA,NA,1,0.7,0.3,2,3,313,7,NA
fcp-trial,349,1219660,0.0-324.0-0.0,voc_e2,11823,"[{""event"":""fullscreenenter"",""trial"":1,""time"":2311}]",NA,NA,NA,NA,NA,4,#741CD8,#D8271C,10,0,1,40,0,1609,39,0,391.40000000596046,0,0,experiment,NA,NA,2,0.5,0.5,4,5,314,7,NA
fcp-trial,350,1222533,0.0-325.0-0.0,voc_e2,11823,"[{""event"":""fullscreenenter"",""trial"":1,""time"":2311}]",NA,NA,NA,NA,NA,1,#D89F1C,#3386FF,10,10,1,38,1,554.1000000238419,37,1,814.5999999940395,10,1,experiment,NA,NA,0,0.9,0.1,0,1,315,7,NA
audio-instructions,351,1228999,0.0-326.0,voc_e2,11823,"[{""event"":""fullscreenenter"",""trial"":1,""time"":2311}]",NA,813,static/audio/finished.wav,NA,0,NA,NA,NA,NA,NA,NA,NA,NA,NA,NA,NA,NA,NA,NA,NA,NA,NA,NA,NA,NA,NA,NA,NA,NA,NA
audio-instructions,352,1240687,0.0-327.0-0.0,voc_e2,11823,"[{""event"":""fullscreenenter"",""trial"":1,""time"":2311}]",NA,851.4000000059605,static/audio/explicit1.wav,NA,0,NA,NA,NA,NA,NA,NA,NA,NA,NA,NA,NA,NA,NA,NA,NA,NA,NA,NA,NA,NA,NA,NA,NA,NA,NA
audio-instructions,353,1248808,0.0-327.0-1.0,voc_e2,11823,"[{""event"":""fullscreenenter"",""trial"":1,""time"":2311}]",NA,522.7000000178814,static/audio/explicit2.wav,NA,0,NA,NA,NA,NA,NA,NA,NA,NA,NA,NA,NA,NA,NA,NA,NA,NA,NA,NA,NA,NA,NA,NA,NA,NA,NA
image-slider-response,354,1259952,0.0-328.0,voc_e2,11823,"[{""event"":""fullscreenenter"",""trial"":1,""time"":2311}]",NA,11142.69999998808,static/img/machines/machine3.png,NA,NA,NA,NA,NA,NA,NA,NA,NA,NA,NA,NA,NA,NA,NA,NA,explicit,NA,NA,NA,NA,NA,NA,NA,NA,NA,3
image-slider-response,355,1265670,0.0-329.0,voc_e2,11823,"[{""event"":""fullscreenenter"",""trial"":1,""time"":2311}]",NA,5716.9000000059605,static/img/machines/machine6.png,NA,NA,NA,NA,NA,NA,NA,NA,NA,NA,NA,NA,NA,NA,NA,NA,explicit,NA,NA,NA,NA,NA,NA,NA,NA,NA,5
image-slider-response,356,1269093,0.0-330.0,voc_e2,11823,"[{""event"":""fullscreenenter"",""trial"":1,""time"":2311}]",NA,3422,static/img/machines/machine4.png,NA,NA,NA,NA,NA,NA,NA,NA,NA,NA,NA,NA,NA,NA,NA,NA,explicit,NA,NA,NA,NA,NA,NA,NA,NA,NA,7
image-slider-response,357,1271897,0.0-331.0,voc_e2,11823,"[{""event"":""fullscreenenter"",""trial"":1,""time"":2311}]",NA,2803.7000000178814,static/img/machines/machine2.png,NA,NA,NA,NA,NA,NA,NA,NA,NA,NA,NA,NA,NA,NA,NA,NA,explicit,NA,NA,NA,NA,NA,NA,NA,NA,NA,2
image-slider-response,358,1274279,0.0-332.0,voc_e2,11823,"[{""event"":""fullscreenenter"",""trial"":1,""time"":2311}]",NA,2380.2999999821186,static/img/machines/machine5.png,NA,NA,NA,NA,NA,NA,NA,NA,NA,NA,NA,NA,NA,NA,NA,NA,explicit,NA,NA,NA,NA,NA,NA,NA,NA,NA,3
image-slider-response,359,1277234,0.0-333.0,voc_e2,11823,"[{""event"":""fullscreenenter"",""trial"":1,""time"":2311}]",NA,2954.9000000059605,static/img/machines/machine1.png,NA,NA,NA,NA,NA,NA,NA,NA,NA,NA,NA,NA,NA,NA,NA,NA,explicit,NA,NA,NA,NA,NA,NA,NA,NA,NA,7
