trial_type,trial_index,time_elapsed,internal_node_id,task_version,subject_id,interactions,success,rt,stimulus,key_press,button_pressed,offer,arcade_color_L,arcade_color_R,arcade_outcome_L,arcade_outcome_R,correct,stage_1_key,stage_1_choice,stage_1_rt,stage_2_key,stage_2_choice,stage_2_rt,stage_3_outcome,accuracy,phase,responses,num_errors,context,reward_prob_L,reward_prob_R,arcade_id_L,arcade_id_R,trial,block,response
pavlovia,0,12,0.0-0.0,voc_e2,12199,[],NA,NA,NA,NA,NA,NA,NA,NA,NA,NA,NA,NA,NA,NA,NA,NA,NA,NA,NA,NA,NA,NA,NA,NA,NA,NA,NA,NA,NA,NA
fullscreen,1,7413,0.0-1.0,voc_e2,12199,"[{""event"":""fullscreenenter"",""trial"":1,""time"":6417}]",TRUE,NA,NA,NA,NA,NA,NA,NA,NA,NA,NA,NA,NA,NA,NA,NA,NA,NA,NA,NA,NA,NA,NA,NA,NA,NA,NA,NA,NA,NA
audio-keyboard-response,2,9584,0.0-2.0,voc_e2,12199,"[{""event"":""fullscreenenter"",""trial"":1,""time"":6417}]",NA,2109,static/audio/beep_loop.wav,32,NA,NA,NA,NA,NA,NA,NA,NA,NA,NA,NA,NA,NA,NA,NA,NA,NA,NA,NA,NA,NA,NA,NA,NA,NA,NA
audio-test,3,10768,0.0-3.0,voc_e2,12199,"[{""event"":""fullscreenenter"",""trial"":1,""time"":6417}]",NA,NA,static/audio/turtle.wav,NA,3,NA,NA,NA,NA,NA,NA,NA,NA,NA,NA,NA,NA,NA,NA,NA,NA,NA,NA,NA,NA,NA,NA,NA,NA,NA
audio-test,4,13060,0.0-4.0,voc_e2,12199,"[{""event"":""fullscreenenter"",""trial"":1,""time"":6417}]",NA,NA,static/audio/shark.wav,NA,2,NA,NA,NA,NA,NA,NA,NA,NA,NA,NA,NA,NA,NA,NA,NA,NA,NA,NA,NA,NA,NA,NA,NA,NA,NA
audio-instructions,5,21930,0.0-5.0-0.0,voc_e2,12199,"[{""event"":""fullscreenenter"",""trial"":1,""time"":6417}]",NA,3070.5999999940395,static/audio/instructions1.wav,NA,0,NA,NA,NA,NA,NA,NA,NA,NA,NA,NA,NA,NA,NA,NA,NA,NA,NA,NA,NA,NA,NA,NA,NA,NA,NA
audio-instructions,6,29435,0.0-5.0-1.0,voc_e2,12199,"[{""event"":""fullscreenenter"",""trial"":1,""time"":6417}]",NA,758,static/audio/instructions2.wav,NA,0,NA,NA,NA,NA,NA,NA,NA,NA,NA,NA,NA,NA,NA,NA,NA,NA,NA,NA,NA,NA,NA,NA,NA,NA,NA
audio-instructions,7,36162,0.0-5.0-2.0,voc_e2,12199,"[{""event"":""fullscreenenter"",""trial"":1,""time"":6417}]",NA,915,static/audio/instructions3.wav,NA,0,NA,NA,NA,NA,NA,NA,NA,NA,NA,NA,NA,NA,NA,NA,NA,NA,NA,NA,NA,NA,NA,NA,NA,NA,NA
audio-instructions,8,50166,0.0-5.0-3.0,voc_e2,12199,"[{""event"":""fullscreenenter"",""trial"":1,""time"":6417}]",NA,780.1999999880791,static/audio/instructions4.wav,NA,0,NA,NA,NA,NA,NA,NA,NA,NA,NA,NA,NA,NA,NA,NA,NA,NA,NA,NA,NA,NA,NA,NA,NA,NA,NA
audio-instructions,9,60539,0.0-5.0-4.0,voc_e2,12199,"[{""event"":""fullscreenenter"",""trial"":1,""time"":6417}]",NA,982.3999999910592,static/audio/instructions5.wav,NA,0,NA,NA,NA,NA,NA,NA,NA,NA,NA,NA,NA,NA,NA,NA,NA,NA,NA,NA,NA,NA,NA,NA,NA,NA,NA
fcp-practice,10,63639,0.0-5.0-5.0-0.0,voc_e2,12199,"[{""event"":""fullscreenenter"",""trial"":1,""time"":6417}]",NA,NA,NA,NA,NA,NA,#EDC948,#46d3c8,10,0,1,null,null,null,37,1,1565.2999999970198,10,1,practice,NA,NA,NA,NA,NA,NA,NA,NA,NA,NA
fcp-practice,11,65405,0.0-5.0-5.0-1.0,voc_e2,12199,"[{""event"":""fullscreenenter"",""trial"":1,""time"":6417}]",NA,NA,NA,NA,NA,NA,#EDC948,#46d3c8,10,0,1,null,null,null,37,1,246.0999999940395,10,1,practice,NA,NA,NA,NA,NA,NA,NA,NA,NA,NA
fcp-practice,12,67039,0.0-5.0-5.0-2.0,voc_e2,12199,"[{""event"":""fullscreenenter"",""trial"":1,""time"":6417}]",NA,NA,NA,NA,NA,NA,#EDC948,#46d3c8,0,10,1,null,null,null,37,1,108,0,1,practice,NA,NA,NA,NA,NA,NA,NA,NA,NA,NA
fcp-practice,13,68553,0.0-5.0-5.0-3.0,voc_e2,12199,"[{""event"":""fullscreenenter"",""trial"":1,""time"":6417}]",NA,NA,NA,NA,NA,NA,#EDC948,#46d3c8,10,0,1,null,null,null,37,1,4.399999991059303,10,1,practice,NA,NA,NA,NA,NA,NA,NA,NA,NA,NA
fcp-practice,14,71037,0.0-5.0-5.0-4.0,voc_e2,12199,"[{""event"":""fullscreenenter"",""trial"":1,""time"":6417}]",NA,NA,NA,NA,NA,NA,#EDC948,#46d3c8,10,0,1,null,null,null,37,1,971.5,10,1,practice,NA,NA,NA,NA,NA,NA,NA,NA,NA,NA
audio-instructions,15,89687,0.0-5.0-6.0,voc_e2,12199,"[{""event"":""fullscreenenter"",""trial"":1,""time"":6417}]",NA,640.2999999970198,static/audio/instructions6.wav,NA,0,NA,NA,NA,NA,NA,NA,NA,NA,NA,NA,NA,NA,NA,NA,NA,NA,NA,NA,NA,NA,NA,NA,NA,NA,NA
audio-instructions,16,110616,0.0-5.0-7.0,voc_e2,12199,"[{""event"":""fullscreenenter"",""trial"":1,""time"":6417}]",NA,1729.8999999910593,static/audio/instructions7.wav,NA,0,NA,NA,NA,NA,NA,NA,NA,NA,NA,NA,NA,NA,NA,NA,NA,NA,NA,NA,NA,NA,NA,NA,NA,NA,NA
audio-instructions,17,121196,0.0-5.0-8.0,voc_e2,12199,"[{""event"":""fullscreenenter"",""trial"":1,""time"":6417}]",NA,1109.7000000029802,static/audio/instructions8.wav,NA,0,NA,NA,NA,NA,NA,NA,NA,NA,NA,NA,NA,NA,NA,NA,NA,NA,NA,NA,NA,NA,NA,NA,NA,NA,NA
fcp-comprehension,18,125583,0.0-5.0-9.0,voc_e2,12199,"[{""event"":""fullscreenenter"",""trial"":1,""time"":6417}]",NA,4383.5999999940395,NA,NA,NA,NA,NA,NA,NA,NA,NA,NA,NA,NA,NA,NA,NA,NA,NA,NA,"true,true",0,NA,NA,NA,NA,NA,NA,NA,NA
audio-instructions,19,133230,0.0-6.0-0.0,voc_e2,12199,"[{""event"":""fullscreenenter"",""trial"":1,""time"":6417}]",NA,2093,static/audio/instructions9.wav,NA,0,NA,NA,NA,NA,NA,NA,NA,NA,NA,NA,NA,NA,NA,NA,NA,NA,NA,NA,NA,NA,NA,NA,NA,NA,NA
audio-instructions,20,147145,0.0-6.0-1.0,voc_e2,12199,"[{""event"":""fullscreenenter"",""trial"":1,""time"":6417}]",NA,1798.9000000059605,static/audio/instructions10.wav,NA,0,NA,NA,NA,NA,NA,NA,NA,NA,NA,NA,NA,NA,NA,NA,NA,NA,NA,NA,NA,NA,NA,NA,NA,NA,NA
fcp-trial,21,149964,0.0-6.0-2.0,voc_e2,12199,"[{""event"":""fullscreenenter"",""trial"":1,""time"":6417}]",NA,NA,NA,NA,NA,0,#EDC948,#46d3c8,10,10,1,38,1,754.7000000029802,37,1,519.5,10,1,practice,NA,NA,NA,NA,NA,NA,NA,NA,NA,NA
audio-instructions,22,161422,0.0-6.0-3.0,voc_e2,12199,"[{""event"":""fullscreenenter"",""trial"":1,""time"":6417}]",NA,445.79999999701977,static/audio/instructions11.wav,NA,0,NA,NA,NA,NA,NA,NA,NA,NA,NA,NA,NA,NA,NA,NA,NA,NA,NA,NA,NA,NA,NA,NA,NA,NA,NA
fcp-trial,23,165121,0.0-6.0-4.0,voc_e2,12199,"[{""event"":""fullscreenenter"",""trial"":1,""time"":6417}]",NA,NA,NA,NA,NA,6,#EDC948,#46d3c8,10,10,1,40,0,1556.5999999940395,37,1,620,10,1,practice,NA,NA,NA,NA,NA,NA,NA,NA,NA,NA
audio-instructions,24,185427,0.0-6.0-5.0,voc_e2,12199,"[{""event"":""fullscreenenter"",""trial"":1,""time"":6417}]",NA,1609.7999999970198,static/audio/instructions12.wav,NA,0,NA,NA,NA,NA,NA,NA,NA,NA,NA,NA,NA,NA,NA,NA,NA,NA,NA,NA,NA,NA,NA,NA,NA,NA,NA
audio-instructions,25,193707,0.0-6.0-6.0,voc_e2,12199,"[{""event"":""fullscreenenter"",""trial"":1,""time"":6417}]",NA,680.5,static/audio/instructions13.wav,NA,0,NA,NA,NA,NA,NA,NA,NA,NA,NA,NA,NA,NA,NA,NA,NA,NA,NA,NA,NA,NA,NA,NA,NA,NA,NA
audio-instructions,26,203472,0.0-6.0-7.0,voc_e2,12199,"[{""event"":""fullscreenenter"",""trial"":1,""time"":6417}]",NA,1315.7000000029802,static/audio/instructions14.wav,NA,0,NA,NA,NA,NA,NA,NA,NA,NA,NA,NA,NA,NA,NA,NA,NA,NA,NA,NA,NA,NA,NA,NA,NA,NA,NA
audio-instructions,27,211536,0.0-7.0-0.0,voc_e2,12199,"[{""event"":""fullscreenenter"",""trial"":1,""time"":6417}]",NA,1150,static/audio/instructions15.wav,NA,0,NA,NA,NA,NA,NA,NA,NA,NA,NA,NA,NA,NA,NA,NA,NA,NA,NA,NA,NA,NA,NA,NA,NA,NA,NA
audio-instructions,28,218967,0.0-7.0-1.0,voc_e2,12199,"[{""event"":""fullscreenenter"",""trial"":1,""time"":6417}]",NA,600.4000000059605,static/audio/instructions16.wav,NA,0,NA,NA,NA,NA,NA,NA,NA,NA,NA,NA,NA,NA,NA,NA,NA,NA,NA,NA,NA,NA,NA,NA,NA,NA,NA
audio-instructions,29,227234,0.0-7.0-2.0,voc_e2,12199,"[{""event"":""fullscreenenter"",""trial"":1,""time"":6417}]",NA,587.6000000089407,static/audio/instructions17.wav,NA,0,NA,NA,NA,NA,NA,NA,NA,NA,NA,NA,NA,NA,NA,NA,NA,NA,NA,NA,NA,NA,NA,NA,NA,NA,NA
audio-instructions,30,235616,0.0-7.0-3.0,voc_e2,12199,"[{""event"":""fullscreenenter"",""trial"":1,""time"":6417}]",NA,610.1999999880791,static/audio/instructions18.wav,NA,0,NA,NA,NA,NA,NA,NA,NA,NA,NA,NA,NA,NA,NA,NA,NA,NA,NA,NA,NA,NA,NA,NA,NA,NA,NA
audio-instructions,31,242709,0.0-7.0-4.0,voc_e2,12199,"[{""event"":""fullscreenenter"",""trial"":1,""time"":6417}]",NA,352.79999999701977,static/audio/instructions19.wav,NA,0,NA,NA,NA,NA,NA,NA,NA,NA,NA,NA,NA,NA,NA,NA,NA,NA,NA,NA,NA,NA,NA,NA,NA,NA,NA
fcp-comprehension,32,250993,0.0-7.0-5.0,voc_e2,12199,"[{""event"":""fullscreenenter"",""trial"":1,""time"":6417}]",NA,8281.70000000298,NA,NA,NA,NA,NA,NA,NA,NA,NA,NA,NA,NA,NA,NA,NA,NA,NA,NA,"false,false,false,true",0,NA,NA,NA,NA,NA,NA,NA,NA
audio-instructions,33,261986,0.0-8.0,voc_e2,12199,"[{""event"":""fullscreenenter"",""trial"":1,""time"":6417}]",NA,1769.5,static/audio/ready.wav,NA,0,NA,NA,NA,NA,NA,NA,NA,NA,NA,NA,NA,NA,NA,NA,NA,NA,NA,NA,NA,NA,NA,NA,NA,NA,NA
fcp-trial,34,265773,0.0-9.0-0.0,voc_e2,12199,"[{""event"":""fullscreenenter"",""trial"":1,""time"":6417}]",NA,NA,NA,NA,NA,2,#3386FF,#D89F1C,10,0,1,38,1,1814,37,1,460.29999999701977,10,1,experiment,NA,NA,1,0.7,0.3,2,3,1,1,NA
fcp-trial,35,268320,0.0-10.0-0.0,voc_e2,12199,"[{""event"":""fullscreenenter"",""trial"":1,""time"":6417}]",NA,NA,NA,NA,NA,4,#D8271C,#741CD8,10,0,1,38,1,485.5,39,0,535.9000000059605,0,0,experiment,NA,NA,0,0.9,0.1,0,1,2,1,NA
fcp-trial,36,270867,0.0-11.0-0.0,voc_e2,12199,"[{""event"":""fullscreenenter"",""trial"":1,""time"":6417}]",NA,NA,NA,NA,NA,1,#1CD855,#FA92F8,10,0,1,38,1,734.9000000059605,39,0,292.1000000089407,0,0,experiment,NA,NA,2,0.5,0.5,4,5,3,1,NA
fcp-trial,37,273124,0.0-12.0-0.0,voc_e2,12199,"[{""event"":""fullscreenenter"",""trial"":1,""time"":6417}]",NA,NA,NA,NA,NA,0,#D8271C,#741CD8,10,0,1,38,1,479.5,39,0,267.20000000298023,0,0,experiment,NA,NA,0,0.9,0.1,0,1,4,1,NA
fcp-trial,38,275714,0.0-13.0-0.0,voc_e2,12199,"[{""event"":""fullscreenenter"",""trial"":1,""time"":6417}]",NA,NA,NA,NA,NA,0,#FA92F8,#1CD855,10,0,0,38,1,495.5,37,1,574.5,10,0,experiment,NA,NA,2,0.5,0.5,5,4,5,1,NA
fcp-trial,39,278205,0.0-14.0-0.0,voc_e2,12199,"[{""event"":""fullscreenenter"",""trial"":1,""time"":6417}]",NA,NA,NA,NA,NA,6,#3386FF,#D89F1C,10,0,1,38,1,644.4000000059605,37,1,331.5,10,1,experiment,NA,NA,1,0.7,0.3,2,3,6,1,NA
fcp-trial,40,280849,0.0-15.0-0.0,voc_e2,12199,"[{""event"":""fullscreenenter"",""trial"":1,""time"":6417}]",NA,NA,NA,NA,NA,6,#741CD8,#D8271C,0,10,0,38,1,485.70000000298023,37,1,637.5,0,0,experiment,NA,NA,0,0.1,0.9,1,0,7,1,NA
fcp-trial,41,283497,0.0-16.0-0.0,voc_e2,12199,"[{""event"":""fullscreenenter"",""trial"":1,""time"":6417}]",NA,NA,NA,NA,NA,5,#1CD855,#FA92F8,10,10,1,38,1,723.5999999940395,39,0,401.300000011921,10,0,experiment,NA,NA,2,0.5,0.5,4,5,8,1,NA
fcp-trial,42,285827,0.0-17.0-0.0,voc_e2,12199,"[{""event"":""fullscreenenter"",""trial"":1,""time"":6417}]",NA,NA,NA,NA,NA,4,#FA92F8,#1CD855,10,10,0,38,1,544.5,37,1,275.80000001192093,10,0,experiment,NA,NA,2,0.5,0.5,5,4,9,1,NA
fcp-trial,43,288296,0.0-18.0-0.0,voc_e2,12199,"[{""event"":""fullscreenenter"",""trial"":1,""time"":6417}]",NA,NA,NA,NA,NA,2,#741CD8,#D8271C,0,10,0,38,1,548.9000000059605,39,0,387.40000000596046,10,1,experiment,NA,NA,0,0.1,0.9,1,0,10,1,NA
fcp-trial,44,290643,0.0-19.0-0.0,voc_e2,12199,"[{""event"":""fullscreenenter"",""trial"":1,""time"":6417}]",NA,NA,NA,NA,NA,0,#3386FF,#D89F1C,10,0,1,38,1,508.70000000298023,37,1,329,10,1,experiment,NA,NA,1,0.7,0.3,2,3,11,1,NA
fcp-trial,45,293419,0.0-20.0-0.0,voc_e2,12199,"[{""event"":""fullscreenenter"",""trial"":1,""time"":6417}]",NA,NA,NA,NA,NA,3,#D8271C,#741CD8,10,0,1,38,1,621.2999999970198,37,1,645.7000000029802,10,1,experiment,NA,NA,0,0.9,0.1,0,1,12,1,NA
fcp-trial,46,295869,0.0-21.0-0.0,voc_e2,12199,"[{""event"":""fullscreenenter"",""trial"":1,""time"":6417}]",NA,NA,NA,NA,NA,3,#1CD855,#FA92F8,0,10,1,38,1,461,39,0,480.29999999701977,10,0,experiment,NA,NA,2,0.5,0.5,4,5,13,1,NA
fcp-trial,47,298224,0.0-22.0-0.0,voc_e2,12199,"[{""event"":""fullscreenenter"",""trial"":1,""time"":6417}]",NA,NA,NA,NA,NA,6,#FA92F8,#1CD855,10,10,0,38,1,587.4000000059605,37,1,257,10,0,experiment,NA,NA,2,0.5,0.5,5,4,14,1,NA
fcp-trial,48,300656,0.0-23.0-0.0,voc_e2,12199,"[{""event"":""fullscreenenter"",""trial"":1,""time"":6417}]",NA,NA,NA,NA,NA,4,#D89F1C,#3386FF,0,0,0,38,1,360.3999999910593,39,0,563.4000000059605,0,1,experiment,NA,NA,1,0.3,0.7,3,2,15,1,NA
fcp-trial,49,302755,0.0-24.0-0.0,voc_e2,12199,"[{""event"":""fullscreenenter"",""trial"":1,""time"":6417}]",NA,NA,NA,NA,NA,5,#741CD8,#D8271C,0,10,0,38,1,302.3999999910593,37,1,289.6000000089407,0,0,experiment,NA,NA,0,0.1,0.9,1,0,16,1,NA
fcp-trial,50,305908,0.0-25.0-0.0,voc_e2,12199,"[{""event"":""fullscreenenter"",""trial"":1,""time"":6417}]",NA,NA,NA,NA,NA,1,#D89F1C,#3386FF,0,10,0,38,1,432.29999999701977,39,0,1216,10,1,experiment,NA,NA,1,0.3,0.7,3,2,17,1,NA
fcp-trial,51,308178,0.0-26.0-0.0,voc_e2,12199,"[{""event"":""fullscreenenter"",""trial"":1,""time"":6417}]",NA,NA,NA,NA,NA,5,#D89F1C,#3386FF,10,10,0,38,1,492.70000000298023,39,0,270.40000000596046,10,1,experiment,NA,NA,1,0.3,0.7,3,2,18,1,NA
fcp-trial,52,310542,0.0-27.0-0.0,voc_e2,12199,"[{""event"":""fullscreenenter"",""trial"":1,""time"":6417}]",NA,NA,NA,NA,NA,2,#1CD855,#FA92F8,0,10,1,38,1,373.70000000298023,39,0,480.79999999701977,10,0,experiment,NA,NA,2,0.5,0.5,4,5,19,1,NA
fcp-trial,53,312944,0.0-28.0-0.0,voc_e2,12199,"[{""event"":""fullscreenenter"",""trial"":1,""time"":6417}]",NA,NA,NA,NA,NA,3,#D89F1C,#3386FF,0,10,0,38,1,430.6000000089407,39,0,465.09999999403954,10,1,experiment,NA,NA,1,0.3,0.7,3,2,20,1,NA
fcp-trial,54,315264,0.0-29.0-0.0,voc_e2,12199,"[{""event"":""fullscreenenter"",""trial"":1,""time"":6417}]",NA,NA,NA,NA,NA,1,#D8271C,#741CD8,10,0,1,38,1,403.40000000596046,37,1,404.79999999701977,10,1,experiment,NA,NA,0,0.9,0.1,0,1,21,1,NA
fcp-trial,55,317399,0.0-30.0-0.0,voc_e2,12199,"[{""event"":""fullscreenenter"",""trial"":1,""time"":6417}]",NA,NA,NA,NA,NA,4,#FA92F8,#1CD855,10,10,0,38,1,373.20000000298023,37,1,253.3999999910593,10,0,experiment,NA,NA,2,0.5,0.5,5,4,22,1,NA
fcp-trial,56,319729,0.0-31.0-0.0,voc_e2,12199,"[{""event"":""fullscreenenter"",""trial"":1,""time"":6417}]",NA,NA,NA,NA,NA,0,#3386FF,#D89F1C,10,0,1,38,1,461.80000001192093,37,1,362,10,1,experiment,NA,NA,1,0.7,0.3,2,3,23,1,NA
fcp-trial,57,322059,0.0-32.0-0.0,voc_e2,12199,"[{""event"":""fullscreenenter"",""trial"":1,""time"":6417}]",NA,NA,NA,NA,NA,5,#FA92F8,#1CD855,0,0,0,38,1,391.59999999403954,37,1,428.59999999403954,0,0,experiment,NA,NA,2,0.5,0.5,5,4,24,1,NA
fcp-trial,58,325862,0.0-33.0-0.0,voc_e2,12199,"[{""event"":""fullscreenenter"",""trial"":1,""time"":6417}]",NA,NA,NA,NA,NA,1,#D8271C,#741CD8,0,0,1,38,1,276.09999999403954,37,1,2016.9000000059605,0,1,experiment,NA,NA,0,0.9,0.1,0,1,25,1,NA
fcp-trial,59,328058,0.0-34.0-0.0,voc_e2,12199,"[{""event"":""fullscreenenter"",""trial"":1,""time"":6417}]",NA,NA,NA,NA,NA,6,#D89F1C,#3386FF,0,10,0,38,1,413.29999999701977,39,0,276.5,10,1,experiment,NA,NA,1,0.3,0.7,3,2,26,1,NA
fcp-trial,60,330332,0.0-35.0-0.0,voc_e2,12199,"[{""event"":""fullscreenenter"",""trial"":1,""time"":6417}]",NA,NA,NA,NA,NA,3,#1CD855,#FA92F8,10,0,1,38,1,434.20000000298023,39,0,331.6000000089407,0,0,experiment,NA,NA,2,0.5,0.5,4,5,27,1,NA
fcp-trial,61,332646,0.0-36.0-0.0,voc_e2,12199,"[{""event"":""fullscreenenter"",""trial"":1,""time"":6417}]",NA,NA,NA,NA,NA,1,#3386FF,#D89F1C,10,0,1,38,1,300.40000000596046,37,1,505.90000000596046,10,1,experiment,NA,NA,1,0.7,0.3,2,3,28,1,NA
fcp-trial,62,335205,0.0-37.0-0.0,voc_e2,12199,"[{""event"":""fullscreenenter"",""trial"":1,""time"":6417}]",NA,NA,NA,NA,NA,0,#741CD8,#D8271C,0,10,0,38,1,269,39,0,782.3999999910593,10,1,experiment,NA,NA,0,0.1,0.9,1,0,29,1,NA
fcp-trial,63,337659,0.0-38.0-0.0,voc_e2,12199,"[{""event"":""fullscreenenter"",""trial"":1,""time"":6417}]",NA,NA,NA,NA,NA,5,#D89F1C,#3386FF,0,0,0,38,1,267.79999999701977,39,0,677.1000000089407,0,1,experiment,NA,NA,1,0.3,0.7,3,2,30,1,NA
fcp-trial,64,340476,0.0-39.0-0.0,voc_e2,12199,"[{""event"":""fullscreenenter"",""trial"":1,""time"":6417}]",NA,NA,NA,NA,NA,3,#D8271C,#741CD8,10,0,1,38,1,268.59999999403954,37,1,1041,10,1,experiment,NA,NA,0,0.9,0.1,0,1,31,1,NA
fcp-trial,65,342588,0.0-40.0-0.0,voc_e2,12199,"[{""event"":""fullscreenenter"",""trial"":1,""time"":6417}]",NA,NA,NA,NA,NA,1,#1CD855,#FA92F8,10,0,1,38,1,273.09999999403954,39,0,333.20000000298023,0,0,experiment,NA,NA,2,0.5,0.5,4,5,32,1,NA
fcp-trial,66,345123,0.0-41.0-0.0,voc_e2,12199,"[{""event"":""fullscreenenter"",""trial"":1,""time"":6417}]",NA,NA,NA,NA,NA,3,#D89F1C,#3386FF,0,10,0,38,1,339.3999999910593,39,0,685.2999999970198,10,1,experiment,NA,NA,1,0.3,0.7,3,2,33,1,NA
fcp-trial,67,347308,0.0-42.0-0.0,voc_e2,12199,"[{""event"":""fullscreenenter"",""trial"":1,""time"":6417}]",NA,NA,NA,NA,NA,6,#1CD855,#FA92F8,0,0,1,38,1,347,39,0,330.70000000298023,0,0,experiment,NA,NA,2,0.5,0.5,4,5,34,1,NA
fcp-trial,68,350159,0.0-43.0-0.0,voc_e2,12199,"[{""event"":""fullscreenenter"",""trial"":1,""time"":6417}]",NA,NA,NA,NA,NA,2,#D8271C,#741CD8,10,0,1,38,1,283.5,37,1,1058.2000000029802,10,1,experiment,NA,NA,0,0.9,0.1,0,1,35,1,NA
fcp-trial,69,352498,0.0-44.0-0.0,voc_e2,12199,"[{""event"":""fullscreenenter"",""trial"":1,""time"":6417}]",NA,NA,NA,NA,NA,2,#D89F1C,#3386FF,0,10,0,38,1,342.6000000089407,39,0,488.29999999701977,10,1,experiment,NA,NA,1,0.3,0.7,3,2,36,1,NA
fcp-trial,70,355082,0.0-45.0-0.0,voc_e2,12199,"[{""event"":""fullscreenenter"",""trial"":1,""time"":6417}]",NA,NA,NA,NA,NA,5,#D8271C,#741CD8,10,0,1,38,1,664.5,37,1,414.6000000089407,10,1,experiment,NA,NA,0,0.9,0.1,0,1,37,1,NA
fcp-trial,71,358052,0.0-46.0-0.0,voc_e2,12199,"[{""event"":""fullscreenenter"",""trial"":1,""time"":6417}]",NA,NA,NA,NA,NA,2,#1CD855,#FA92F8,10,0,1,40,0,983.7000000029802,37,1,478.20000000298023,10,1,experiment,NA,NA,2,0.5,0.5,4,5,38,1,NA
fcp-trial,72,361660,0.0-47.0-0.0,voc_e2,12199,"[{""event"":""fullscreenenter"",""trial"":1,""time"":6417}]",NA,NA,NA,NA,NA,4,#3386FF,#D89F1C,10,0,1,38,1,1479.2999999970198,37,1,622.5999999940395,10,1,experiment,NA,NA,1,0.7,0.3,2,3,39,1,NA
fcp-trial,73,367473,0.0-48.0-0.0,voc_e2,12199,"[{""event"":""fullscreenenter"",""trial"":1,""time"":6417}]",NA,NA,NA,NA,NA,0,#FA92F8,#1CD855,10,10,0,38,1,3773,37,1,532.2000000029802,10,0,experiment,NA,NA,2,0.5,0.5,5,4,40,1,NA
fcp-trial,74,369889,0.0-49.0-0.0,voc_e2,12199,"[{""event"":""fullscreenenter"",""trial"":1,""time"":6417}]",NA,NA,NA,NA,NA,4,#741CD8,#D8271C,0,10,0,38,1,647.7999999970198,39,0,261.79999999701977,10,1,experiment,NA,NA,0,0.1,0.9,1,0,41,1,NA
fcp-trial,75,372339,0.0-50.0-0.0,voc_e2,12199,"[{""event"":""fullscreenenter"",""trial"":1,""time"":6417}]",NA,NA,NA,NA,NA,6,#741CD8,#D8271C,0,10,0,38,1,682.2999999970198,39,0,260.09999999403954,10,1,experiment,NA,NA,0,0.1,0.9,1,0,42,1,NA
fcp-trial,76,376081,0.0-51.0-0.0,voc_e2,12199,"[{""event"":""fullscreenenter"",""trial"":1,""time"":6417}]",NA,NA,NA,NA,NA,6,#FA92F8,#1CD855,10,10,0,40,0,1717,39,0,518.2999999970198,10,1,experiment,NA,NA,2,0.5,0.5,5,4,43,1,NA
fcp-trial,77,379040,0.0-52.0-0.0,voc_e2,12199,"[{""event"":""fullscreenenter"",""trial"":1,""time"":6417}]",NA,NA,NA,NA,NA,0,#3386FF,#D89F1C,10,0,1,38,1,963.1999999880791,37,1,487.1000000089407,10,1,experiment,NA,NA,1,0.7,0.3,2,3,44,1,NA
fcp-trial,78,382168,0.0-53.0-0.0,voc_e2,12199,"[{""event"":""fullscreenenter"",""trial"":1,""time"":6417}]",NA,NA,NA,NA,NA,6,#741CD8,#D8271C,0,10,0,38,1,1190.7999999970198,39,0,428.8999999910593,10,1,experiment,NA,NA,0,0.1,0.9,1,0,45,1,NA
fcp-trial,79,385738,0.0-54.0-0.0,voc_e2,12199,"[{""event"":""fullscreenenter"",""trial"":1,""time"":6417}]",NA,NA,NA,NA,NA,4,#FA92F8,#1CD855,10,10,0,40,0,1579.7999999970198,39,0,482.90000000596046,10,1,experiment,NA,NA,2,0.5,0.5,5,4,46,2,NA
fcp-trial,80,388754,0.0-55.0-0.0,voc_e2,12199,"[{""event"":""fullscreenenter"",""trial"":1,""time"":6417}]",NA,NA,NA,NA,NA,6,#D89F1C,#3386FF,0,10,0,38,1,1222.7000000029802,39,0,284.20000000298023,10,1,experiment,NA,NA,1,0.3,0.7,3,2,47,2,NA
fcp-trial,81,391453,0.0-56.0-0.0,voc_e2,12199,"[{""event"":""fullscreenenter"",""trial"":1,""time"":6417}]",NA,NA,NA,NA,NA,1,#D89F1C,#3386FF,0,10,0,38,1,929.5999999940395,39,0,262.3999999910593,10,1,experiment,NA,NA,1,0.3,0.7,3,2,48,2,NA
fcp-trial,82,394195,0.0-57.0-0.0,voc_e2,12199,"[{""event"":""fullscreenenter"",""trial"":1,""time"":6417}]",NA,NA,NA,NA,NA,4,#741CD8,#D8271C,10,10,0,38,1,567.2999999970198,39,0,667.1000000089407,10,1,experiment,NA,NA,0,0.1,0.9,1,0,49,2,NA
fcp-trial,83,396352,0.0-58.0-0.0,voc_e2,12199,"[{""event"":""fullscreenenter"",""trial"":1,""time"":6417}]",NA,NA,NA,NA,NA,5,#D89F1C,#3386FF,0,10,0,38,1,358.30000001192093,39,0,291.40000000596046,10,1,experiment,NA,NA,1,0.3,0.7,3,2,50,2,NA
fcp-trial,84,398664,0.0-59.0-0.0,voc_e2,12199,"[{""event"":""fullscreenenter"",""trial"":1,""time"":6417}]",NA,NA,NA,NA,NA,2,#FA92F8,#1CD855,10,10,0,38,1,508,39,0,294.5,10,1,experiment,NA,NA,2,0.5,0.5,5,4,51,2,NA
fcp-trial,85,400884,0.0-60.0-0.0,voc_e2,12199,"[{""event"":""fullscreenenter"",""trial"":1,""time"":6417}]",NA,NA,NA,NA,NA,0,#FA92F8,#1CD855,0,10,0,38,1,431.3999999910593,39,0,277.40000000596046,10,1,experiment,NA,NA,2,0.5,0.5,5,4,52,2,NA
fcp-trial,86,403216,0.0-61.0-0.0,voc_e2,12199,"[{""event"":""fullscreenenter"",""trial"":1,""time"":6417}]",NA,NA,NA,NA,NA,2,#D89F1C,#3386FF,0,10,0,38,1,470.59999999403954,39,0,353.30000001192093,10,1,experiment,NA,NA,1,0.3,0.7,3,2,53,2,NA
fcp-trial,87,405695,0.0-62.0-0.0,voc_e2,12199,"[{""event"":""fullscreenenter"",""trial"":1,""time"":6417}]",NA,NA,NA,NA,NA,5,#741CD8,#D8271C,0,10,0,38,1,437.29999999701977,39,0,532.4000000059605,10,1,experiment,NA,NA,0,0.1,0.9,1,0,54,2,NA
fcp-trial,88,408022,0.0-63.0-0.0,voc_e2,12199,"[{""event"":""fullscreenenter"",""trial"":1,""time"":6417}]",NA,NA,NA,NA,NA,2,#741CD8,#D8271C,0,10,0,38,1,562.7999999970198,39,0,257.5,10,1,experiment,NA,NA,0,0.1,0.9,1,0,55,2,NA
fcp-trial,89,410424,0.0-64.0-0.0,voc_e2,12199,"[{""event"":""fullscreenenter"",""trial"":1,""time"":6417}]",NA,NA,NA,NA,NA,0,#D8271C,#741CD8,10,0,1,38,1,561.4000000059605,37,1,337.3999999910593,10,1,experiment,NA,NA,0,0.9,0.1,0,1,56,2,NA
fcp-trial,90,412774,0.0-65.0-0.0,voc_e2,12199,"[{""event"":""fullscreenenter"",""trial"":1,""time"":6417}]",NA,NA,NA,NA,NA,1,#1CD855,#FA92F8,10,0,1,38,1,393.40000000596046,37,1,448.6000000089407,10,1,experiment,NA,NA,2,0.5,0.5,4,5,57,2,NA
fcp-trial,91,414919,0.0-66.0-0.0,voc_e2,12199,"[{""event"":""fullscreenenter"",""trial"":1,""time"":6417}]",NA,NA,NA,NA,NA,4,#3386FF,#D89F1C,10,10,1,38,1,389,37,1,250.6000000089407,10,1,experiment,NA,NA,1,0.7,0.3,2,3,58,2,NA
fcp-trial,92,417637,0.0-67.0-0.0,voc_e2,12199,"[{""event"":""fullscreenenter"",""trial"":1,""time"":6417}]",NA,NA,NA,NA,NA,5,#FA92F8,#1CD855,0,10,0,38,1,374.70000000298023,39,0,836.1000000089407,10,1,experiment,NA,NA,2,0.5,0.5,5,4,59,2,NA
fcp-trial,93,420726,0.0-68.0-0.0,voc_e2,12199,"[{""event"":""fullscreenenter"",""trial"":1,""time"":6417}]",NA,NA,NA,NA,NA,3,#3386FF,#D89F1C,0,0,1,38,1,430.29999999701977,37,1,1151.7999999970198,0,1,experiment,NA,NA,1,0.7,0.3,2,3,60,2,NA
fcp-trial,94,423235,0.0-69.0-0.0,voc_e2,12199,"[{""event"":""fullscreenenter"",""trial"":1,""time"":6417}]",NA,NA,NA,NA,NA,1,#D8271C,#741CD8,10,0,1,38,1,450,37,1,549.7999999970198,10,1,experiment,NA,NA,0,0.9,0.1,0,1,61,2,NA
fcp-trial,95,425323,0.0-70.0-0.0,voc_e2,12199,"[{""event"":""fullscreenenter"",""trial"":1,""time"":6417}]",NA,NA,NA,NA,NA,3,#D8271C,#741CD8,10,0,1,38,1,313.20000000298023,37,1,266.20000000298023,10,1,experiment,NA,NA,0,0.9,0.1,0,1,62,2,NA
fcp-trial,96,427756,0.0-71.0-0.0,voc_e2,12199,"[{""event"":""fullscreenenter"",""trial"":1,""time"":6417}]",NA,NA,NA,NA,NA,3,#1CD855,#FA92F8,0,10,1,38,1,352.29999999701977,37,1,570.3000000119209,0,1,experiment,NA,NA,2,0.5,0.5,4,5,63,2,NA
fcp-trial,97,430057,0.0-72.0-0.0,voc_e2,12199,"[{""event"":""fullscreenenter"",""trial"":1,""time"":6417}]",NA,NA,NA,NA,NA,6,#D8271C,#741CD8,10,0,1,38,1,418.20000000298023,37,1,371.40000000596046,10,1,experiment,NA,NA,0,0.9,0.1,0,1,64,2,NA
fcp-trial,98,432310,0.0-73.0-0.0,voc_e2,12199,"[{""event"":""fullscreenenter"",""trial"":1,""time"":6417}]",NA,NA,NA,NA,NA,0,#D89F1C,#3386FF,0,10,0,38,1,404.8999999910593,39,0,341.09999999403954,10,1,experiment,NA,NA,1,0.3,0.7,3,2,65,2,NA
fcp-trial,99,435157,0.0-74.0-0.0,voc_e2,12199,"[{""event"":""fullscreenenter"",""trial"":1,""time"":6417}]",NA,NA,NA,NA,NA,1,#FA92F8,#1CD855,10,0,0,38,1,561.3999999910593,39,0,776.7000000029802,0,1,experiment,NA,NA,2,0.5,0.5,5,4,66,2,NA
fcp-trial,100,437423,0.0-75.0-0.0,voc_e2,12199,"[{""event"":""fullscreenenter"",""trial"":1,""time"":6417}]",NA,NA,NA,NA,NA,5,#D8271C,#741CD8,10,0,1,38,1,407,37,1,351.20000000298023,10,1,experiment,NA,NA,0,0.9,0.1,0,1,67,2,NA
fcp-trial,101,440224,0.0-76.0-0.0,voc_e2,12199,"[{""event"":""fullscreenenter"",""trial"":1,""time"":6417}]",NA,NA,NA,NA,NA,1,#741CD8,#D8271C,0,10,0,38,1,333.79999999701977,39,0,961,10,1,experiment,NA,NA,0,0.1,0.9,1,0,68,2,NA
fcp-trial,102,442721,0.0-77.0-0.0,voc_e2,12199,"[{""event"":""fullscreenenter"",""trial"":1,""time"":6417}]",NA,NA,NA,NA,NA,3,#D89F1C,#3386FF,0,10,0,38,1,276.09999999403954,39,0,713.5,10,1,experiment,NA,NA,1,0.3,0.7,3,2,69,2,NA
fcp-trial,103,445150,0.0-78.0-0.0,voc_e2,12199,"[{""event"":""fullscreenenter"",""trial"":1,""time"":6417}]",NA,NA,NA,NA,NA,3,#FA92F8,#1CD855,10,10,0,38,1,294,39,0,628.3000000119209,10,1,experiment,NA,NA,2,0.5,0.5,5,4,70,2,NA
fcp-trial,104,447222,0.0-79.0-0.0,voc_e2,12199,"[{""event"":""fullscreenenter"",""trial"":1,""time"":6417}]",NA,NA,NA,NA,NA,5,#D89F1C,#3386FF,0,10,0,38,1,233.79999999701977,39,0,331.5,10,1,experiment,NA,NA,1,0.3,0.7,3,2,71,2,NA
fcp-trial,105,449292,0.0-80.0-0.0,voc_e2,12199,"[{""event"":""fullscreenenter"",""trial"":1,""time"":6417}]",NA,NA,NA,NA,NA,2,#D89F1C,#3386FF,0,0,0,38,1,139.30000001192093,39,0,421.70000000298023,0,1,experiment,NA,NA,1,0.3,0.7,3,2,72,2,NA
fcp-trial,106,451566,0.0-81.0-0.0,voc_e2,12199,"[{""event"":""fullscreenenter"",""trial"":1,""time"":6417}]",NA,NA,NA,NA,NA,2,#D8271C,#741CD8,10,0,1,38,1,417.20000000298023,37,1,346.79999999701977,10,1,experiment,NA,NA,0,0.9,0.1,0,1,73,2,NA
fcp-trial,107,453840,0.0-82.0-0.0,voc_e2,12199,"[{""event"":""fullscreenenter"",""trial"":1,""time"":6417}]",NA,NA,NA,NA,NA,4,#D8271C,#741CD8,10,0,1,38,1,474.09999999403954,37,1,293.59999999403954,10,1,experiment,NA,NA,0,0.9,0.1,0,1,74,2,NA
fcp-trial,108,456373,0.0-83.0-0.0,voc_e2,12199,"[{""event"":""fullscreenenter"",""trial"":1,""time"":6417}]",NA,NA,NA,NA,NA,6,#FA92F8,#1CD855,0,10,0,38,1,381.69999998807907,39,0,642.5,10,1,experiment,NA,NA,2,0.5,0.5,5,4,75,2,NA
fcp-trial,109,458696,0.0-84.0-0.0,voc_e2,12199,"[{""event"":""fullscreenenter"",""trial"":1,""time"":6417}]",NA,NA,NA,NA,NA,6,#D89F1C,#3386FF,0,0,0,38,1,390,39,0,424,0,1,experiment,NA,NA,1,0.3,0.7,3,2,76,2,NA
fcp-trial,110,461531,0.0-85.0-0.0,voc_e2,12199,"[{""event"":""fullscreenenter"",""trial"":1,""time"":6417}]",NA,NA,NA,NA,NA,2,#FA92F8,#1CD855,10,0,0,38,1,432.09999999403954,39,0,897.7999999970198,0,1,experiment,NA,NA,2,0.5,0.5,5,4,77,2,NA
fcp-trial,111,463770,0.0-86.0-0.0,voc_e2,12199,"[{""event"":""fullscreenenter"",""trial"":1,""time"":6417}]",NA,NA,NA,NA,NA,0,#D8271C,#741CD8,10,0,1,38,1,447.5,37,1,284.5,10,1,experiment,NA,NA,0,0.9,0.1,0,1,78,2,NA
fcp-trial,112,466211,0.0-87.0-0.0,voc_e2,12199,"[{""event"":""fullscreenenter"",""trial"":1,""time"":6417}]",NA,NA,NA,NA,NA,1,#D89F1C,#3386FF,10,10,0,38,1,296.79999999701977,39,0,634.9000000059605,10,1,experiment,NA,NA,1,0.3,0.7,3,2,79,2,NA
fcp-trial,113,468756,0.0-88.0-0.0,voc_e2,12199,"[{""event"":""fullscreenenter"",""trial"":1,""time"":6417}]",NA,NA,NA,NA,NA,3,#D8271C,#741CD8,10,0,1,38,1,365,37,1,673.3999999910593,10,1,experiment,NA,NA,0,0.9,0.1,0,1,80,2,NA
fcp-trial,114,471100,0.0-89.0-0.0,voc_e2,12199,"[{""event"":""fullscreenenter"",""trial"":1,""time"":6417}]",NA,NA,NA,NA,NA,4,#FA92F8,#1CD855,10,10,0,38,1,365.79999999701977,39,0,470.8999999910593,10,1,experiment,NA,NA,2,0.5,0.5,5,4,81,2,NA
fcp-trial,115,473369,0.0-90.0-0.0,voc_e2,12199,"[{""event"":""fullscreenenter"",""trial"":1,""time"":6417}]",NA,NA,NA,NA,NA,5,#FA92F8,#1CD855,10,10,0,38,1,420.79999999701977,39,0,338.09999999403954,10,1,experiment,NA,NA,2,0.5,0.5,5,4,82,2,NA
fcp-trial,116,475729,0.0-91.0-0.0,voc_e2,12199,"[{""event"":""fullscreenenter"",""trial"":1,""time"":6417}]",NA,NA,NA,NA,NA,4,#D89F1C,#3386FF,0,10,0,38,1,532.4000000059605,39,0,321.80000001192093,10,1,experiment,NA,NA,1,0.3,0.7,3,2,83,2,NA
fcp-trial,117,477980,0.0-92.0-0.0,voc_e2,12199,"[{""event"":""fullscreenenter"",""trial"":1,""time"":6417}]",NA,NA,NA,NA,NA,0,#1CD855,#FA92F8,10,10,1,38,1,357.70000000298023,37,1,383.90000000596046,10,1,experiment,NA,NA,2,0.5,0.5,4,5,84,2,NA
fcp-trial,118,480209,0.0-93.0-0.0,voc_e2,12199,"[{""event"":""fullscreenenter"",""trial"":1,""time"":6417}]",NA,NA,NA,NA,NA,3,#D8271C,#741CD8,10,0,1,38,1,351.59999999403954,37,1,367.40000000596046,10,1,experiment,NA,NA,0,0.9,0.1,0,1,85,2,NA
fcp-trial,119,482438,0.0-94.0-0.0,voc_e2,12199,"[{""event"":""fullscreenenter"",""trial"":1,""time"":6417}]",NA,NA,NA,NA,NA,5,#D8271C,#741CD8,10,0,1,38,1,346.6000000089407,37,1,370.8999999910593,10,1,experiment,NA,NA,0,0.9,0.1,0,1,86,2,NA
fcp-trial,120,484950,0.0-95.0-0.0,voc_e2,12199,"[{""event"":""fullscreenenter"",""trial"":1,""time"":6417}]",NA,NA,NA,NA,NA,2,#3386FF,#D89F1C,10,0,1,38,1,571.7000000029802,37,1,432.800000011921,10,1,experiment,NA,NA,1,0.7,0.3,2,3,87,2,NA
fcp-trial,121,487302,0.0-96.0-0.0,voc_e2,12199,"[{""event"":""fullscreenenter"",""trial"":1,""time"":6417}]",NA,NA,NA,NA,NA,0,#D8271C,#741CD8,10,0,1,38,1,341.59999999403954,37,1,503.5,10,1,experiment,NA,NA,0,0.9,0.1,0,1,88,2,NA
fcp-trial,122,489812,0.0-97.0-0.0,voc_e2,12199,"[{""event"":""fullscreenenter"",""trial"":1,""time"":6417}]",NA,NA,NA,NA,NA,5,#1CD855,#FA92F8,10,0,1,38,1,292,37,1,710.9000000059605,10,1,experiment,NA,NA,2,0.5,0.5,4,5,89,2,NA
fcp-trial,123,492105,0.0-98.0-0.0,voc_e2,12199,"[{""event"":""fullscreenenter"",""trial"":1,""time"":6417}]",NA,NA,NA,NA,NA,1,#3386FF,#D89F1C,10,10,1,38,1,363,37,1,423.79999999701977,10,1,experiment,NA,NA,1,0.7,0.3,2,3,90,2,NA
fcp-trial,124,494526,0.0-99.0-0.0,voc_e2,12199,"[{""event"":""fullscreenenter"",""trial"":1,""time"":6417}]",NA,NA,NA,NA,NA,1,#FA92F8,#1CD855,10,10,0,38,1,495.29999999701977,39,0,414.300000011921,10,1,experiment,NA,NA,2,0.5,0.5,5,4,91,3,NA
fcp-trial,125,496729,0.0-100.0-0.0,voc_e2,12199,"[{""event"":""fullscreenenter"",""trial"":1,""time"":6417}]",NA,NA,NA,NA,NA,4,#FA92F8,#1CD855,10,0,0,38,1,361,39,0,336.70000000298023,0,1,experiment,NA,NA,2,0.5,0.5,5,4,92,3,NA
fcp-trial,126,498998,0.0-101.0-0.0,voc_e2,12199,"[{""event"":""fullscreenenter"",""trial"":1,""time"":6417}]",NA,NA,NA,NA,NA,4,#741CD8,#D8271C,0,10,0,38,1,336.5,37,1,423.20000000298023,0,0,experiment,NA,NA,0,0.1,0.9,1,0,93,3,NA
fcp-trial,127,502188,0.0-102.0-0.0,voc_e2,12199,"[{""event"":""fullscreenenter"",""trial"":1,""time"":6417}]",NA,NA,NA,NA,NA,2,#FA92F8,#1CD855,0,0,0,38,1,269.8999999910593,39,0,1411.7000000029802,0,1,experiment,NA,NA,2,0.5,0.5,5,4,94,3,NA
fcp-trial,128,504322,0.0-103.0-0.0,voc_e2,12199,"[{""event"":""fullscreenenter"",""trial"":1,""time"":6417}]",NA,NA,NA,NA,NA,3,#D89F1C,#3386FF,0,10,0,38,1,278.29999999701977,39,0,348.59999999403954,10,1,experiment,NA,NA,1,0.3,0.7,3,2,95,3,NA
fcp-trial,129,506591,0.0-104.0-0.0,voc_e2,12199,"[{""event"":""fullscreenenter"",""trial"":1,""time"":6417}]",NA,NA,NA,NA,NA,2,#741CD8,#D8271C,0,10,0,38,1,352.59999999403954,39,0,409.90000000596046,10,1,experiment,NA,NA,0,0.1,0.9,1,0,96,3,NA
fcp-trial,130,508805,0.0-105.0-0.0,voc_e2,12199,"[{""event"":""fullscreenenter"",""trial"":1,""time"":6417}]",NA,NA,NA,NA,NA,0,#FA92F8,#1CD855,10,10,0,38,1,341.30000001192093,39,0,366.09999999403954,10,1,experiment,NA,NA,2,0.5,0.5,5,4,97,3,NA
fcp-trial,131,511345,0.0-106.0-0.0,voc_e2,12199,"[{""event"":""fullscreenenter"",""trial"":1,""time"":6417}]",NA,NA,NA,NA,NA,1,#741CD8,#D8271C,0,10,0,38,1,355.1000000089407,39,0,676,10,1,experiment,NA,NA,0,0.1,0.9,1,0,98,3,NA
fcp-trial,132,513507,0.0-107.0-0.0,voc_e2,12199,"[{""event"":""fullscreenenter"",""trial"":1,""time"":6417}]",NA,NA,NA,NA,NA,6,#3386FF,#D89F1C,10,10,1,38,1,315.19999998807907,37,1,337.1000000089407,10,1,experiment,NA,NA,1,0.7,0.3,2,3,99,3,NA
fcp-trial,133,516368,0.0-108.0-0.0,voc_e2,12199,"[{""event"":""fullscreenenter"",""trial"":1,""time"":6417}]",NA,NA,NA,NA,NA,3,#FA92F8,#1CD855,0,0,0,38,1,287.79999999701977,39,0,1065.6000000089407,0,1,experiment,NA,NA,2,0.5,0.5,5,4,100,3,NA
fcp-trial,134,518834,0.0-109.0-0.0,voc_e2,12199,"[{""event"":""fullscreenenter"",""trial"":1,""time"":6417}]",NA,NA,NA,NA,NA,0,#D89F1C,#3386FF,0,10,0,38,1,327.19999998807907,39,0,632.2999999970198,10,1,experiment,NA,NA,1,0.3,0.7,3,2,101,3,NA
fcp-trial,135,521038,0.0-110.0-0.0,voc_e2,12199,"[{""event"":""fullscreenenter"",""trial"":1,""time"":6417}]",NA,NA,NA,NA,NA,6,#D8271C,#741CD8,10,0,1,38,1,385,37,1,311.1000000089407,10,1,experiment,NA,NA,0,0.9,0.1,0,1,102,3,NA
fcp-trial,136,523352,0.0-111.0-0.0,voc_e2,12199,"[{""event"":""fullscreenenter"",""trial"":1,""time"":6417}]",NA,NA,NA,NA,NA,4,#3386FF,#D89F1C,10,10,1,38,1,387,37,1,418.6000000089407,10,1,experiment,NA,NA,1,0.7,0.3,2,3,103,3,NA
fcp-trial,137,525580,0.0-112.0-0.0,voc_e2,12199,"[{""event"":""fullscreenenter"",""trial"":1,""time"":6417}]",NA,NA,NA,NA,NA,5,#3386FF,#D89F1C,10,0,1,38,1,342.59999999403954,37,1,377.1000000089407,10,1,experiment,NA,NA,1,0.7,0.3,2,3,104,3,NA
fcp-trial,138,527695,0.0-113.0-0.0,voc_e2,12199,"[{""event"":""fullscreenenter"",""trial"":1,""time"":6417}]",NA,NA,NA,NA,NA,6,#1CD855,#FA92F8,10,10,1,38,1,289.29999999701977,37,1,320.90000000596046,10,1,experiment,NA,NA,2,0.5,0.5,4,5,105,3,NA
audio-instructions,139,534854,0.0-114.0,voc_e2,12199,"[{""event"":""fullscreenenter"",""trial"":1,""time"":6417}]",NA,1715.2000000029802,static/audio/pause.wav,NA,0,NA,NA,NA,NA,NA,NA,NA,NA,NA,NA,NA,NA,NA,NA,NA,NA,NA,NA,NA,NA,NA,NA,NA,NA,NA
fcp-trial,140,537376,0.0-115.0-0.0,voc_e2,12199,"[{""event"":""fullscreenenter"",""trial"":1,""time"":6417}]",NA,NA,NA,NA,NA,1,#D89F1C,#3386FF,10,10,0,38,1,728.5999999940395,39,0,283.3999999910593,10,1,experiment,NA,NA,1,0.3,0.7,3,2,106,3,NA
fcp-trial,141,539517,0.0-116.0-0.0,voc_e2,12199,"[{""event"":""fullscreenenter"",""trial"":1,""time"":6417}]",NA,NA,NA,NA,NA,0,#1CD855,#FA92F8,10,0,1,38,1,312.19999998807907,37,1,314.90000000596046,10,1,experiment,NA,NA,2,0.5,0.5,4,5,107,3,NA
fcp-trial,142,541635,0.0-117.0-0.0,voc_e2,12199,"[{""event"":""fullscreenenter"",""trial"":1,""time"":6417}]",NA,NA,NA,NA,NA,0,#D89F1C,#3386FF,0,10,0,38,1,287.40000000596046,39,0,317.19999998807907,10,1,experiment,NA,NA,1,0.3,0.7,3,2,108,3,NA
fcp-trial,143,543732,0.0-118.0-0.0,voc_e2,12199,"[{""event"":""fullscreenenter"",""trial"":1,""time"":6417}]",NA,NA,NA,NA,NA,6,#FA92F8,#1CD855,10,10,0,38,1,287.3999999910593,39,0,292.20000000298023,10,1,experiment,NA,NA,2,0.5,0.5,5,4,109,3,NA
fcp-trial,144,545847,0.0-119.0-0.0,voc_e2,12199,"[{""event"":""fullscreenenter"",""trial"":1,""time"":6417}]",NA,NA,NA,NA,NA,6,#741CD8,#D8271C,10,10,0,38,1,292.09999999403954,39,0,300.40000000596046,10,1,experiment,NA,NA,0,0.1,0.9,1,0,110,3,NA
fcp-trial,145,548046,0.0-120.0-0.0,voc_e2,12199,"[{""event"":""fullscreenenter"",""trial"":1,""time"":6417}]",NA,NA,NA,NA,NA,3,#D8271C,#741CD8,10,0,1,38,1,357.79999999701977,37,1,321.40000000596046,10,1,experiment,NA,NA,0,0.9,0.1,0,1,111,3,NA
fcp-trial,146,550197,0.0-121.0-0.0,voc_e2,12199,"[{""event"":""fullscreenenter"",""trial"":1,""time"":6417}]",NA,NA,NA,NA,NA,3,#FA92F8,#1CD855,0,0,0,38,1,319.5,39,0,318.40000000596046,0,1,experiment,NA,NA,2,0.5,0.5,5,4,112,3,NA
fcp-trial,147,552345,0.0-122.0-0.0,voc_e2,12199,"[{""event"":""fullscreenenter"",""trial"":1,""time"":6417}]",NA,NA,NA,NA,NA,2,#D89F1C,#3386FF,0,10,0,38,1,324.70000000298023,39,0,313.8999999910593,10,1,experiment,NA,NA,1,0.3,0.7,3,2,113,3,NA
fcp-trial,148,554576,0.0-123.0-0.0,voc_e2,12199,"[{""event"":""fullscreenenter"",""trial"":1,""time"":6417}]",NA,NA,NA,NA,NA,1,#1CD855,#FA92F8,10,10,1,38,1,404.3999999910593,37,1,305.5,10,1,experiment,NA,NA,2,0.5,0.5,4,5,114,3,NA
fcp-trial,149,556743,0.0-124.0-0.0,voc_e2,12199,"[{""event"":""fullscreenenter"",""trial"":1,""time"":6417}]",NA,NA,NA,NA,NA,1,#741CD8,#D8271C,0,10,0,38,1,216.90000000596046,37,1,425.20000000298023,0,0,experiment,NA,NA,0,0.1,0.9,1,0,115,3,NA
fcp-trial,150,559073,0.0-125.0-0.0,voc_e2,12199,"[{""event"":""fullscreenenter"",""trial"":1,""time"":6417}]",NA,NA,NA,NA,NA,5,#D8271C,#741CD8,10,0,1,38,1,509.3999999910593,37,1,309.29999999701977,10,1,experiment,NA,NA,0,0.9,0.1,0,1,116,3,NA
fcp-trial,151,561274,0.0-126.0-0.0,voc_e2,12199,"[{""event"":""fullscreenenter"",""trial"":1,""time"":6417}]",NA,NA,NA,NA,NA,4,#D89F1C,#3386FF,0,10,0,38,1,416.5,39,0,252.29999999701977,10,1,experiment,NA,NA,1,0.3,0.7,3,2,117,3,NA
fcp-trial,152,563464,0.0-127.0-0.0,voc_e2,12199,"[{""event"":""fullscreenenter"",""trial"":1,""time"":6417}]",NA,NA,NA,NA,NA,2,#D8271C,#741CD8,10,0,1,38,1,348.6000000089407,37,1,324.79999999701977,10,1,experiment,NA,NA,0,0.9,0.1,0,1,118,3,NA
fcp-trial,153,565705,0.0-128.0-0.0,voc_e2,12199,"[{""event"":""fullscreenenter"",""trial"":1,""time"":6417}]",NA,NA,NA,NA,NA,4,#FA92F8,#1CD855,0,10,0,38,1,306.09999999403954,39,0,427,10,1,experiment,NA,NA,2,0.5,0.5,5,4,119,3,NA
fcp-trial,154,567888,0.0-129.0-0.0,voc_e2,12199,"[{""event"":""fullscreenenter"",""trial"":1,""time"":6417}]",NA,NA,NA,NA,NA,5,#3386FF,#D89F1C,10,0,1,38,1,261.09999999403954,37,1,414.8999999910593,10,1,experiment,NA,NA,1,0.7,0.3,2,3,120,3,NA
fcp-trial,155,570224,0.0-130.0-0.0,voc_e2,12199,"[{""event"":""fullscreenenter"",""trial"":1,""time"":6417}]",NA,NA,NA,NA,NA,5,#FA92F8,#1CD855,0,10,0,38,1,375.40000000596046,39,0,451.79999999701977,10,1,experiment,NA,NA,2,0.5,0.5,5,4,121,3,NA
fcp-trial,156,572298,0.0-131.0-0.0,voc_e2,12199,"[{""event"":""fullscreenenter"",""trial"":1,""time"":6417}]",NA,NA,NA,NA,NA,2,#1CD855,#FA92F8,10,10,1,38,1,307.20000000298023,37,1,260.20000000298023,10,1,experiment,NA,NA,2,0.5,0.5,4,5,122,3,NA
fcp-trial,157,574566,0.0-132.0-0.0,voc_e2,12199,"[{""event"":""fullscreenenter"",""trial"":1,""time"":6417}]",NA,NA,NA,NA,NA,0,#741CD8,#D8271C,0,10,0,38,1,292.29999999701977,39,0,464.90000000596046,10,1,experiment,NA,NA,0,0.1,0.9,1,0,123,3,NA
fcp-trial,158,576754,0.0-133.0-0.0,voc_e2,12199,"[{""event"":""fullscreenenter"",""trial"":1,""time"":6417}]",NA,NA,NA,NA,NA,6,#3386FF,#D89F1C,10,0,1,38,1,348.29999999701977,37,1,330.19999998807907,10,1,experiment,NA,NA,1,0.7,0.3,2,3,124,3,NA
fcp-trial,159,578837,0.0-134.0-0.0,voc_e2,12199,"[{""event"":""fullscreenenter"",""trial"":1,""time"":6417}]",NA,NA,NA,NA,NA,4,#741CD8,#D8271C,0,10,0,38,1,305.8999999910593,39,0,269.70000000298023,10,1,experiment,NA,NA,0,0.1,0.9,1,0,125,3,NA
fcp-trial,160,581152,0.0-135.0-0.0,voc_e2,12199,"[{""event"":""fullscreenenter"",""trial"":1,""time"":6417}]",NA,NA,NA,NA,NA,3,#3386FF,#D89F1C,10,0,1,38,1,334.8999999910593,37,1,471.5,10,1,experiment,NA,NA,1,0.7,0.3,2,3,126,3,NA
fcp-trial,161,583319,0.0-136.0-0.0,voc_e2,12199,"[{""event"":""fullscreenenter"",""trial"":1,""time"":6417}]",NA,NA,NA,NA,NA,0,#741CD8,#D8271C,10,10,0,38,1,340.3999999910593,39,0,317.59999999403954,10,1,experiment,NA,NA,0,0.1,0.9,1,0,127,3,NA
fcp-trial,162,585512,0.0-137.0-0.0,voc_e2,12199,"[{""event"":""fullscreenenter"",""trial"":1,""time"":6417}]",NA,NA,NA,NA,NA,3,#1CD855,#FA92F8,10,0,1,38,1,367.20000000298023,37,1,318.6000000089407,10,1,experiment,NA,NA,2,0.5,0.5,4,5,128,3,NA
fcp-trial,163,587731,0.0-138.0-0.0,voc_e2,12199,"[{""event"":""fullscreenenter"",""trial"":1,""time"":6417}]",NA,NA,NA,NA,NA,2,#D89F1C,#3386FF,10,10,0,38,1,441.20000000298023,39,0,271.3999999910593,10,1,experiment,NA,NA,1,0.3,0.7,3,2,129,3,NA
fcp-trial,164,590164,0.0-139.0-0.0,voc_e2,12199,"[{""event"":""fullscreenenter"",""trial"":1,""time"":6417}]",NA,NA,NA,NA,NA,5,#741CD8,#D8271C,0,10,0,38,1,358.20000000298023,39,0,568,10,1,experiment,NA,NA,0,0.1,0.9,1,0,130,3,NA
fcp-trial,165,592611,0.0-140.0-0.0,voc_e2,12199,"[{""event"":""fullscreenenter"",""trial"":1,""time"":6417}]",NA,NA,NA,NA,NA,0,#FA92F8,#1CD855,0,10,0,38,1,417,39,0,522.0999999940395,10,1,experiment,NA,NA,2,0.5,0.5,5,4,131,3,NA
fcp-trial,166,595280,0.0-141.0-0.0,voc_e2,12199,"[{""event"":""fullscreenenter"",""trial"":1,""time"":6417}]",NA,NA,NA,NA,NA,6,#741CD8,#D8271C,0,10,0,38,1,346.59999999403954,39,0,816.7000000029802,10,1,experiment,NA,NA,0,0.1,0.9,1,0,132,3,NA
fcp-trial,167,597630,0.0-142.0-0.0,voc_e2,12199,"[{""event"":""fullscreenenter"",""trial"":1,""time"":6417}]",NA,NA,NA,NA,NA,2,#FA92F8,#1CD855,0,0,0,38,1,473.19999998807907,39,0,368.699999988079,0,1,experiment,NA,NA,2,0.5,0.5,5,4,133,3,NA
fcp-trial,168,601666,0.0-143.0-0.0,voc_e2,12199,"[{""event"":""fullscreenenter"",""trial"":1,""time"":6417}]",NA,NA,NA,NA,NA,6,#3386FF,#D89F1C,0,0,1,38,1,414,37,1,2116.29999999702,0,1,experiment,NA,NA,1,0.7,0.3,2,3,134,3,NA
fcp-trial,169,603809,0.0-144.0-0.0,voc_e2,12199,"[{""event"":""fullscreenenter"",""trial"":1,""time"":6417}]",NA,NA,NA,NA,NA,4,#FA92F8,#1CD855,0,0,0,38,1,348.5,39,0,285,0,1,experiment,NA,NA,2,0.5,0.5,5,4,135,3,NA
fcp-trial,170,606181,0.0-145.0-0.0,voc_e2,12199,"[{""event"":""fullscreenenter"",""trial"":1,""time"":6417}]",NA,NA,NA,NA,NA,1,#1CD855,#FA92F8,0,0,1,38,1,286.90000000596046,37,1,575.7999999970198,0,1,experiment,NA,NA,2,0.5,0.5,4,5,136,4,NA
fcp-trial,171,608685,0.0-146.0-0.0,voc_e2,12199,"[{""event"":""fullscreenenter"",""trial"":1,""time"":6417}]",NA,NA,NA,NA,NA,2,#D8271C,#741CD8,10,0,1,38,1,298.29999999701977,37,1,696.5999999940395,10,1,experiment,NA,NA,0,0.9,0.1,0,1,137,4,NA
fcp-trial,172,610872,0.0-147.0-0.0,voc_e2,12199,"[{""event"":""fullscreenenter"",""trial"":1,""time"":6417}]",NA,NA,NA,NA,NA,5,#D89F1C,#3386FF,0,0,0,38,1,300,39,0,379.59999999403954,0,1,experiment,NA,NA,1,0.3,0.7,3,2,138,4,NA
fcp-trial,173,613357,0.0-148.0-0.0,voc_e2,12199,"[{""event"":""fullscreenenter"",""trial"":1,""time"":6417}]",NA,NA,NA,NA,NA,5,#1CD855,#FA92F8,0,10,1,38,1,687.3999999910593,37,1,289.6000000089407,0,1,experiment,NA,NA,2,0.5,0.5,4,5,139,4,NA
fcp-trial,174,615702,0.0-149.0-0.0,voc_e2,12199,"[{""event"":""fullscreenenter"",""trial"":1,""time"":6417}]",NA,NA,NA,NA,NA,4,#3386FF,#D89F1C,0,0,1,38,1,441.70000000298023,37,1,395.3999999910593,0,1,experiment,NA,NA,1,0.7,0.3,2,3,140,4,NA
fcp-trial,175,617939,0.0-150.0-0.0,voc_e2,12199,"[{""event"":""fullscreenenter"",""trial"":1,""time"":6417}]",NA,NA,NA,NA,NA,3,#D89F1C,#3386FF,0,10,0,38,1,385.5,39,0,345.79999999701977,10,1,experiment,NA,NA,1,0.3,0.7,3,2,141,4,NA
fcp-trial,176,620183,0.0-151.0-0.0,voc_e2,12199,"[{""event"":""fullscreenenter"",""trial"":1,""time"":6417}]",NA,NA,NA,NA,NA,4,#D8271C,#741CD8,0,0,1,38,1,417.8999999910593,37,1,318.19999998807907,0,1,experiment,NA,NA,0,0.9,0.1,0,1,142,4,NA
fcp-trial,177,622365,0.0-152.0-0.0,voc_e2,12199,"[{""event"":""fullscreenenter"",""trial"":1,""time"":6417}]",NA,NA,NA,NA,NA,6,#FA92F8,#1CD855,0,0,0,38,1,338.40000000596046,39,0,336.79999999701977,0,1,experiment,NA,NA,2,0.5,0.5,5,4,143,4,NA
fcp-trial,178,624552,0.0-153.0-0.0,voc_e2,12199,"[{""event"":""fullscreenenter"",""trial"":1,""time"":6417}]",NA,NA,NA,NA,NA,3,#D8271C,#741CD8,10,0,1,38,1,355.6000000089407,37,1,322.29999999701977,10,1,experiment,NA,NA,0,0.9,0.1,0,1,144,4,NA
fcp-trial,179,627076,0.0-154.0-0.0,voc_e2,12199,"[{""event"":""fullscreenenter"",""trial"":1,""time"":6417}]",NA,NA,NA,NA,NA,1,#741CD8,#D8271C,0,0,0,38,1,367.70000000298023,39,0,648.8000000119209,0,1,experiment,NA,NA,0,0.1,0.9,1,0,145,4,NA
fcp-trial,180,629277,0.0-155.0-0.0,voc_e2,12199,"[{""event"":""fullscreenenter"",""trial"":1,""time"":6417}]",NA,NA,NA,NA,NA,0,#3386FF,#D89F1C,10,0,1,38,1,365,37,1,325.59999999403954,10,1,experiment,NA,NA,1,0.7,0.3,2,3,146,4,NA
fcp-trial,181,631826,0.0-156.0-0.0,voc_e2,12199,"[{""event"":""fullscreenenter"",""trial"":1,""time"":6417}]",NA,NA,NA,NA,NA,1,#3386FF,#D89F1C,10,10,1,38,1,721,37,1,319.29999999701977,10,1,experiment,NA,NA,1,0.7,0.3,2,3,147,4,NA
fcp-trial,182,634356,0.0-157.0-0.0,voc_e2,12199,"[{""event"":""fullscreenenter"",""trial"":1,""time"":6417}]",NA,NA,NA,NA,NA,5,#D8271C,#741CD8,10,0,1,38,1,319.69999998807907,37,1,702.9000000059605,10,1,experiment,NA,NA,0,0.9,0.1,0,1,148,4,NA
fcp-trial,183,636584,0.0-158.0-0.0,voc_e2,12199,"[{""event"":""fullscreenenter"",""trial"":1,""time"":6417}]",NA,NA,NA,NA,NA,2,#FA92F8,#1CD855,10,0,0,38,1,318.20000000298023,39,0,403.09999999403954,0,1,experiment,NA,NA,2,0.5,0.5,5,4,149,4,NA
fcp-trial,184,638790,0.0-159.0-0.0,voc_e2,12199,"[{""event"":""fullscreenenter"",""trial"":1,""time"":6417}]",NA,NA,NA,NA,NA,6,#3386FF,#D89F1C,10,0,1,38,1,349.09999999403954,37,1,347,10,1,experiment,NA,NA,1,0.7,0.3,2,3,150,4,NA
fcp-trial,185,640926,0.0-160.0-0.0,voc_e2,12199,"[{""event"":""fullscreenenter"",""trial"":1,""time"":6417}]",NA,NA,NA,NA,NA,3,#741CD8,#D8271C,0,10,0,38,1,342.1000000089407,39,0,286.5,10,1,experiment,NA,NA,0,0.1,0.9,1,0,151,4,NA
fcp-trial,186,643113,0.0-161.0-0.0,voc_e2,12199,"[{""event"":""fullscreenenter"",""trial"":1,""time"":6417}]",NA,NA,NA,NA,NA,4,#D89F1C,#3386FF,0,0,0,38,1,393.8999999910593,39,0,284.70000000298023,0,1,experiment,NA,NA,1,0.3,0.7,3,2,152,4,NA
fcp-trial,187,645273,0.0-162.0-0.0,voc_e2,12199,"[{""event"":""fullscreenenter"",""trial"":1,""time"":6417}]",NA,NA,NA,NA,NA,1,#D8271C,#741CD8,10,0,1,38,1,318.70000000298023,37,1,331.5,10,1,experiment,NA,NA,0,0.9,0.1,0,1,153,4,NA
fcp-trial,188,647748,0.0-163.0-0.0,voc_e2,12199,"[{""event"":""fullscreenenter"",""trial"":1,""time"":6417}]",NA,NA,NA,NA,NA,5,#FA92F8,#1CD855,10,10,0,38,1,75.20000000298023,39,0,891.5,10,1,experiment,NA,NA,2,0.5,0.5,5,4,154,4,NA
fcp-trial,189,649895,0.0-164.0-0.0,voc_e2,12199,"[{""event"":""fullscreenenter"",""trial"":1,""time"":6417}]",NA,NA,NA,NA,NA,1,#3386FF,#D89F1C,0,0,1,38,1,295.20000000298023,37,1,344.09999999403954,0,1,experiment,NA,NA,1,0.7,0.3,2,3,155,4,NA
fcp-trial,190,652089,0.0-165.0-0.0,voc_e2,12199,"[{""event"":""fullscreenenter"",""trial"":1,""time"":6417}]",NA,NA,NA,NA,NA,0,#3386FF,#D89F1C,10,10,1,38,1,282.5,37,1,402.5,10,1,experiment,NA,NA,1,0.7,0.3,2,3,156,4,NA
fcp-trial,191,654267,0.0-166.0-0.0,voc_e2,12199,"[{""event"":""fullscreenenter"",""trial"":1,""time"":6417}]",NA,NA,NA,NA,NA,3,#FA92F8,#1CD855,10,10,0,38,1,341.1000000089407,39,0,327.20000000298023,10,1,experiment,NA,NA,2,0.5,0.5,5,4,157,4,NA
fcp-trial,192,656689,0.0-167.0-0.0,voc_e2,12199,"[{""event"":""fullscreenenter"",""trial"":1,""time"":6417}]",NA,NA,NA,NA,NA,4,#D8271C,#741CD8,10,0,1,38,1,550.7999999970198,37,1,364.699999988079,10,1,experiment,NA,NA,0,0.9,0.1,0,1,158,4,NA
fcp-trial,193,658651,0.0-168.0-0.0,voc_e2,12199,"[{""event"":""fullscreenenter"",""trial"":1,""time"":6417}]",NA,NA,NA,NA,NA,6,#D8271C,#741CD8,10,0,1,38,1,90.3999999910593,39,0,361,0,0,experiment,NA,NA,0,0.9,0.1,0,1,159,4,NA
fcp-trial,194,660749,0.0-169.0-0.0,voc_e2,12199,"[{""event"":""fullscreenenter"",""trial"":1,""time"":6417}]",NA,NA,NA,NA,NA,3,#D89F1C,#3386FF,0,10,0,38,1,282.59999999403954,39,0,310.5,10,1,experiment,NA,NA,1,0.3,0.7,3,2,160,4,NA
fcp-trial,195,663219,0.0-170.0-0.0,voc_e2,12199,"[{""event"":""fullscreenenter"",""trial"":1,""time"":6417}]",NA,NA,NA,NA,NA,0,#1CD855,#FA92F8,10,0,1,38,1,306.70000000298023,37,1,655.0999999940395,10,1,experiment,NA,NA,2,0.5,0.5,4,5,161,4,NA
fcp-trial,196,665298,0.0-171.0-0.0,voc_e2,12199,"[{""event"":""fullscreenenter"",""trial"":1,""time"":6417}]",NA,NA,NA,NA,NA,1,#FA92F8,#1CD855,10,0,0,38,1,226.59999999403954,39,0,343.5,0,1,experiment,NA,NA,2,0.5,0.5,5,4,162,4,NA
fcp-trial,197,667700,0.0-172.0-0.0,voc_e2,12199,"[{""event"":""fullscreenenter"",""trial"":1,""time"":6417}]",NA,NA,NA,NA,NA,2,#D8271C,#741CD8,10,10,1,38,1,359.09999999403954,37,1,534.8999999910593,10,1,experiment,NA,NA,0,0.9,0.1,0,1,163,4,NA
fcp-trial,198,669873,0.0-173.0-0.0,voc_e2,12199,"[{""event"":""fullscreenenter"",""trial"":1,""time"":6417}]",NA,NA,NA,NA,NA,0,#741CD8,#D8271C,0,10,0,38,1,372.5,39,0,292.20000000298023,10,1,experiment,NA,NA,0,0.1,0.9,1,0,164,4,NA
fcp-trial,199,672299,0.0-174.0-0.0,voc_e2,12199,"[{""event"":""fullscreenenter"",""trial"":1,""time"":6417}]",NA,NA,NA,NA,NA,2,#3386FF,#D89F1C,0,0,1,38,1,357.40000000596046,37,1,560.8000000119209,0,1,experiment,NA,NA,1,0.7,0.3,2,3,165,4,NA
fcp-trial,200,675190,0.0-175.0-0.0,voc_e2,12199,"[{""event"":""fullscreenenter"",""trial"":1,""time"":6417}]",NA,NA,NA,NA,NA,4,#FA92F8,#1CD855,0,0,0,38,1,285.80000001192093,39,0,1097.800000011921,0,1,experiment,NA,NA,2,0.5,0.5,5,4,166,4,NA
fcp-trial,201,677399,0.0-176.0-0.0,voc_e2,12199,"[{""event"":""fullscreenenter"",""trial"":1,""time"":6417}]",NA,NA,NA,NA,NA,5,#3386FF,#D89F1C,10,10,1,38,1,386.29999999701977,39,0,314.40000000596046,10,0,experiment,NA,NA,1,0.7,0.3,2,3,167,4,NA
fcp-trial,202,679621,0.0-177.0-0.0,voc_e2,12199,"[{""event"":""fullscreenenter"",""trial"":1,""time"":6417}]",NA,NA,NA,NA,NA,6,#FA92F8,#1CD855,0,10,0,38,1,358,39,0,356,10,1,experiment,NA,NA,2,0.5,0.5,5,4,168,4,NA
fcp-trial,203,681789,0.0-178.0-0.0,voc_e2,12199,"[{""event"":""fullscreenenter"",""trial"":1,""time"":6417}]",NA,NA,NA,NA,NA,1,#741CD8,#D8271C,0,10,0,38,1,337.79999999701977,39,0,321.40000000596046,10,1,experiment,NA,NA,0,0.1,0.9,1,0,169,4,NA
fcp-trial,204,684050,0.0-179.0-0.0,voc_e2,12199,"[{""event"":""fullscreenenter"",""trial"":1,""time"":6417}]",NA,NA,NA,NA,NA,4,#3386FF,#D89F1C,0,0,1,38,1,436.69999998807907,39,0,317,0,0,experiment,NA,NA,1,0.7,0.3,2,3,170,4,NA
fcp-trial,205,686343,0.0-180.0-0.0,voc_e2,12199,"[{""event"":""fullscreenenter"",""trial"":1,""time"":6417}]",NA,NA,NA,NA,NA,6,#1CD855,#FA92F8,0,0,1,38,1,373,37,1,411.199999988079,0,1,experiment,NA,NA,2,0.5,0.5,4,5,171,4,NA
fcp-trial,206,688545,0.0-181.0-0.0,voc_e2,12199,"[{""event"":""fullscreenenter"",""trial"":1,""time"":6417}]",NA,NA,NA,NA,NA,3,#1CD855,#FA92F8,0,10,1,38,1,346.1000000089407,37,1,347.09999999403954,0,1,experiment,NA,NA,2,0.5,0.5,4,5,172,4,NA
fcp-trial,207,690781,0.0-182.0-0.0,voc_e2,12199,"[{""event"":""fullscreenenter"",""trial"":1,""time"":6417}]",NA,NA,NA,NA,NA,3,#741CD8,#D8271C,0,10,0,38,1,413.79999999701977,39,0,315.20000000298023,10,1,experiment,NA,NA,0,0.1,0.9,1,0,173,4,NA
fcp-trial,208,693174,0.0-183.0-0.0,voc_e2,12199,"[{""event"":""fullscreenenter"",""trial"":1,""time"":6417}]",NA,NA,NA,NA,NA,0,#FA92F8,#1CD855,0,0,0,38,1,484.59999999403954,39,0,402.40000000596046,0,1,experiment,NA,NA,2,0.5,0.5,5,4,174,4,NA
fcp-trial,209,695284,0.0-184.0-0.0,voc_e2,12199,"[{""event"":""fullscreenenter"",""trial"":1,""time"":6417}]",NA,NA,NA,NA,NA,6,#3386FF,#D89F1C,10,10,1,38,1,208.79999999701977,39,0,392.79999999701977,10,0,experiment,NA,NA,1,0.7,0.3,2,3,175,4,NA
fcp-trial,210,697492,0.0-185.0-0.0,voc_e2,12199,"[{""event"":""fullscreenenter"",""trial"":1,""time"":6417}]",NA,NA,NA,NA,NA,5,#FA92F8,#1CD855,0,0,0,38,1,412.8999999910593,39,0,286.79999999701977,0,1,experiment,NA,NA,2,0.5,0.5,5,4,176,4,NA
fcp-trial,211,699725,0.0-186.0-0.0,voc_e2,12199,"[{""event"":""fullscreenenter"",""trial"":1,""time"":6417}]",NA,NA,NA,NA,NA,3,#D89F1C,#3386FF,0,0,0,38,1,355,39,0,372.29999999701977,0,1,experiment,NA,NA,1,0.3,0.7,3,2,177,4,NA
fcp-trial,212,702108,0.0-187.0-0.0,voc_e2,12199,"[{""event"":""fullscreenenter"",""trial"":1,""time"":6417}]",NA,NA,NA,NA,NA,0,#D8271C,#741CD8,10,10,1,38,1,258,37,1,617.2999999970198,10,1,experiment,NA,NA,0,0.9,0.1,0,1,178,4,NA
fcp-trial,213,704867,0.0-188.0-0.0,voc_e2,12199,"[{""event"":""fullscreenenter"",""trial"":1,""time"":6417}]",NA,NA,NA,NA,NA,2,#3386FF,#D89F1C,10,0,1,38,1,369.59999999403954,39,0,881.1999999880791,0,0,experiment,NA,NA,1,0.7,0.3,2,3,179,4,NA
fcp-trial,214,707326,0.0-189.0-0.0,voc_e2,12199,"[{""event"":""fullscreenenter"",""trial"":1,""time"":6417}]",NA,NA,NA,NA,NA,2,#D8271C,#741CD8,10,0,1,38,1,654.7000000029802,37,1,296.29999999701977,10,1,experiment,NA,NA,0,0.9,0.1,0,1,180,4,NA
fcp-trial,215,709506,0.0-190.0-0.0,voc_e2,12199,"[{""event"":""fullscreenenter"",""trial"":1,""time"":6417}]",NA,NA,NA,NA,NA,4,#FA92F8,#1CD855,10,0,0,38,1,375.20000000298023,39,0,296.6000000089407,0,1,experiment,NA,NA,2,0.5,0.5,5,4,181,5,NA
fcp-trial,216,711738,0.0-191.0-0.0,voc_e2,12199,"[{""event"":""fullscreenenter"",""trial"":1,""time"":6417}]",NA,NA,NA,NA,NA,1,#D89F1C,#3386FF,0,10,0,38,1,439.70000000298023,39,0,285.29999999701977,10,1,experiment,NA,NA,1,0.3,0.7,3,2,182,5,NA
fcp-trial,217,714170,0.0-192.0-0.0,voc_e2,12199,"[{""event"":""fullscreenenter"",""trial"":1,""time"":6417}]",NA,NA,NA,NA,NA,6,#D8271C,#741CD8,10,0,1,38,1,659.7000000029802,37,1,264.59999999403954,10,1,experiment,NA,NA,0,0.9,0.1,0,1,183,5,NA
fcp-trial,218,716445,0.0-193.0-0.0,voc_e2,12199,"[{""event"":""fullscreenenter"",""trial"":1,""time"":6417}]",NA,NA,NA,NA,NA,0,#D89F1C,#3386FF,0,10,0,38,1,445.1000000089407,39,0,321.29999999701977,10,1,experiment,NA,NA,1,0.3,0.7,3,2,184,5,NA
fcp-trial,219,719159,0.0-194.0-0.0,voc_e2,12199,"[{""event"":""fullscreenenter"",""trial"":1,""time"":6417}]",NA,NA,NA,NA,NA,4,#D8271C,#741CD8,10,0,1,38,1,633.8999999910593,37,1,571.4000000059605,10,1,experiment,NA,NA,0,0.9,0.1,0,1,185,5,NA
fcp-trial,220,721376,0.0-195.0-0.0,voc_e2,12199,"[{""event"":""fullscreenenter"",""trial"":1,""time"":6417}]",NA,NA,NA,NA,NA,1,#FA92F8,#1CD855,0,0,0,38,1,426.59999999403954,39,0,279.29999999701977,0,1,experiment,NA,NA,2,0.5,0.5,5,4,186,5,NA
fcp-trial,221,723706,0.0-196.0-0.0,voc_e2,12199,"[{""event"":""fullscreenenter"",""trial"":1,""time"":6417}]",NA,NA,NA,NA,NA,5,#3386FF,#D89F1C,10,0,1,38,1,475.79999999701977,37,1,345.29999999701977,10,1,experiment,NA,NA,1,0.7,0.3,2,3,187,5,NA
fcp-trial,222,725946,0.0-197.0-0.0,voc_e2,12199,"[{""event"":""fullscreenenter"",""trial"":1,""time"":6417}]",NA,NA,NA,NA,NA,5,#D8271C,#741CD8,10,0,1,38,1,433.20000000298023,37,1,295.90000000596046,10,1,experiment,NA,NA,0,0.9,0.1,0,1,188,5,NA
fcp-trial,223,728315,0.0-198.0-0.0,voc_e2,12199,"[{""event"":""fullscreenenter"",""trial"":1,""time"":6417}]",NA,NA,NA,NA,NA,2,#1CD855,#FA92F8,0,10,1,38,1,529,37,1,329.3999999910593,0,1,experiment,NA,NA,2,0.5,0.5,4,5,189,5,NA
fcp-trial,224,730662,0.0-199.0-0.0,voc_e2,12199,"[{""event"":""fullscreenenter"",""trial"":1,""time"":6417}]",NA,NA,NA,NA,NA,6,#D8271C,#741CD8,10,0,1,38,1,500.20000000298023,37,1,339.29999999701977,10,1,experiment,NA,NA,0,0.9,0.1,0,1,190,5,NA
fcp-trial,225,733093,0.0-200.0-0.0,voc_e2,12199,"[{""event"":""fullscreenenter"",""trial"":1,""time"":6417}]",NA,NA,NA,NA,NA,5,#D89F1C,#3386FF,10,0,0,38,1,552.2999999970198,39,0,372.70000000298023,0,1,experiment,NA,NA,1,0.3,0.7,3,2,191,5,NA
fcp-trial,226,735487,0.0-201.0-0.0,voc_e2,12199,"[{""event"":""fullscreenenter"",""trial"":1,""time"":6417}]",NA,NA,NA,NA,NA,2,#D8271C,#741CD8,10,0,1,38,1,575.4000000059605,37,1,311,10,1,experiment,NA,NA,0,0.9,0.1,0,1,192,5,NA
fcp-trial,227,738594,0.0-202.0-0.0,voc_e2,12199,"[{""event"":""fullscreenenter"",""trial"":1,""time"":6417}]",NA,NA,NA,NA,NA,6,#1CD855,#FA92F8,10,0,1,40,0,841.8000000119209,39,0,758.7999999970198,0,0,experiment,NA,NA,2,0.5,0.5,4,5,193,5,NA
fcp-trial,228,741358,0.0-203.0-0.0,voc_e2,12199,"[{""event"":""fullscreenenter"",""trial"":1,""time"":6417}]",NA,NA,NA,NA,NA,3,#FA92F8,#1CD855,10,10,0,38,1,917.8000000119209,39,0,335.70000000298023,10,1,experiment,NA,NA,2,0.5,0.5,5,4,194,5,NA
fcp-trial,229,744005,0.0-204.0-0.0,voc_e2,12199,"[{""event"":""fullscreenenter"",""trial"":1,""time"":6417}]",NA,NA,NA,NA,NA,3,#3386FF,#D89F1C,10,0,1,38,1,845.2999999970198,37,1,295.20000000298023,10,1,experiment,NA,NA,1,0.7,0.3,2,3,195,5,NA
fcp-trial,230,747363,0.0-205.0-0.0,voc_e2,12199,"[{""event"":""fullscreenenter"",""trial"":1,""time"":6417}]",NA,NA,NA,NA,NA,1,#D89F1C,#3386FF,0,10,0,38,1,1524.0999999940395,39,0,325.79999999701977,10,1,experiment,NA,NA,1,0.3,0.7,3,2,196,5,NA
fcp-trial,231,750134,0.0-206.0-0.0,voc_e2,12199,"[{""event"":""fullscreenenter"",""trial"":1,""time"":6417}]",NA,NA,NA,NA,NA,5,#D8271C,#741CD8,10,0,1,38,1,971.9000000059605,37,1,290.69999998807907,10,1,experiment,NA,NA,0,0.9,0.1,0,1,197,5,NA
fcp-trial,232,753248,0.0-207.0-0.0,voc_e2,12199,"[{""event"":""fullscreenenter"",""trial"":1,""time"":6417}]",NA,NA,NA,NA,NA,1,#FA92F8,#1CD855,0,0,0,38,1,823.2999999970198,39,0,783.2999999970198,0,1,experiment,NA,NA,2,0.5,0.5,5,4,198,5,NA
fcp-trial,233,755786,0.0-208.0-0.0,voc_e2,12199,"[{""event"":""fullscreenenter"",""trial"":1,""time"":6417}]",NA,NA,NA,NA,NA,0,#1CD855,#FA92F8,0,10,1,38,1,740.3000000119209,37,1,288.90000000596046,0,1,experiment,NA,NA,2,0.5,0.5,4,5,199,5,NA
fcp-trial,234,758579,0.0-209.0-0.0,voc_e2,12199,"[{""event"":""fullscreenenter"",""trial"":1,""time"":6417}]",NA,NA,NA,NA,NA,6,#3386FF,#D89F1C,0,10,1,38,1,576.7000000029802,37,1,707.5,0,1,experiment,NA,NA,1,0.7,0.3,2,3,200,5,NA
fcp-trial,235,762080,0.0-210.0-0.0,voc_e2,12199,"[{""event"":""fullscreenenter"",""trial"":1,""time"":6417}]",NA,NA,NA,NA,NA,2,#FA92F8,#1CD855,0,0,0,38,1,1285.2000000029802,39,0,710.9000000059605,0,1,experiment,NA,NA,2,0.5,0.5,5,4,201,5,NA
fcp-trial,236,764783,0.0-211.0-0.0,voc_e2,12199,"[{""event"":""fullscreenenter"",""trial"":1,""time"":6417}]",NA,NA,NA,NA,NA,0,#741CD8,#D8271C,10,10,0,38,1,540.5999999940395,39,0,655.7999999970198,10,1,experiment,NA,NA,0,0.1,0.9,1,0,202,5,NA
fcp-trial,237,767561,0.0-212.0-0.0,voc_e2,12199,"[{""event"":""fullscreenenter"",""trial"":1,""time"":6417}]",NA,NA,NA,NA,NA,2,#D89F1C,#3386FF,0,0,0,38,1,650.2000000029802,39,0,619.9000000059605,0,1,experiment,NA,NA,1,0.3,0.7,3,2,203,5,NA
fcp-trial,238,770055,0.0-213.0-0.0,voc_e2,12199,"[{""event"":""fullscreenenter"",""trial"":1,""time"":6417}]",NA,NA,NA,NA,NA,0,#3386FF,#D89F1C,10,0,1,38,1,690.4000000059605,37,1,297.20000000298023,10,1,experiment,NA,NA,1,0.7,0.3,2,3,204,5,NA
fcp-trial,239,773742,0.0-214.0-0.0,voc_e2,12199,"[{""event"":""fullscreenenter"",""trial"":1,""time"":6417}]",NA,NA,NA,NA,NA,4,#1CD855,#FA92F8,10,0,1,38,1,749.9000000059605,37,1,1430.5999999940395,10,1,experiment,NA,NA,2,0.5,0.5,4,5,205,5,NA
fcp-trial,240,776159,0.0-215.0-0.0,voc_e2,12199,"[{""event"":""fullscreenenter"",""trial"":1,""time"":6417}]",NA,NA,NA,NA,NA,1,#741CD8,#D8271C,0,10,0,38,1,577,39,0,331.8999999910593,10,1,experiment,NA,NA,0,0.1,0.9,1,0,206,5,NA
fcp-trial,241,779074,0.0-216.0-0.0,voc_e2,12199,"[{""event"":""fullscreenenter"",""trial"":1,""time"":6417}]",NA,NA,NA,NA,NA,4,#D89F1C,#3386FF,0,10,0,38,1,824.4000000059605,39,0,582.7999999970198,10,1,experiment,NA,NA,1,0.3,0.7,3,2,207,5,NA
fcp-trial,242,782003,0.0-217.0-0.0,voc_e2,12199,"[{""event"":""fullscreenenter"",""trial"":1,""time"":6417}]",NA,NA,NA,NA,NA,5,#FA92F8,#1CD855,10,10,0,38,1,575.3000000119209,39,0,846.6999999880791,10,1,experiment,NA,NA,2,0.5,0.5,5,4,208,5,NA
fcp-trial,243,784583,0.0-218.0-0.0,voc_e2,12199,"[{""event"":""fullscreenenter"",""trial"":1,""time"":6417}]",NA,NA,NA,NA,NA,3,#D8271C,#741CD8,10,0,1,38,1,739.7999999970198,37,1,333,10,1,experiment,NA,NA,0,0.9,0.1,0,1,209,5,NA
fcp-trial,244,787132,0.0-219.0-0.0,voc_e2,12199,"[{""event"":""fullscreenenter"",""trial"":1,""time"":6417}]",NA,NA,NA,NA,NA,4,#741CD8,#D8271C,0,10,0,38,1,640.7000000029802,39,0,400.29999999701977,10,1,experiment,NA,NA,0,0.1,0.9,1,0,210,5,NA
audio-instructions,245,793480,0.0-220.0,voc_e2,12199,"[{""event"":""fullscreenenter"",""trial"":1,""time"":6417}]",NA,846.2000000029802,static/audio/pause.wav,NA,0,NA,NA,NA,NA,NA,NA,NA,NA,NA,NA,NA,NA,NA,NA,NA,NA,NA,NA,NA,NA,NA,NA,NA,NA,NA
fcp-trial,246,796072,0.0-221.0-0.0,voc_e2,12199,"[{""event"":""fullscreenenter"",""trial"":1,""time"":6417}]",NA,NA,NA,NA,NA,4,#3386FF,#D89F1C,10,10,1,38,1,790.8999999910593,37,1,266.5,10,1,experiment,NA,NA,1,0.7,0.3,2,3,211,5,NA
fcp-trial,247,798670,0.0-222.0-0.0,voc_e2,12199,"[{""event"":""fullscreenenter"",""trial"":1,""time"":6417}]",NA,NA,NA,NA,NA,3,#741CD8,#D8271C,0,10,0,38,1,543.7999999970198,39,0,535.0999999940395,10,1,experiment,NA,NA,0,0.1,0.9,1,0,212,5,NA
fcp-trial,248,800901,0.0-223.0-0.0,voc_e2,12199,"[{""event"":""fullscreenenter"",""trial"":1,""time"":6417}]",NA,NA,NA,NA,NA,1,#3386FF,#D89F1C,10,10,1,38,1,452.8999999910593,37,1,253.8999999910593,10,1,experiment,NA,NA,1,0.7,0.3,2,3,213,5,NA
fcp-trial,249,803201,0.0-224.0-0.0,voc_e2,12199,"[{""event"":""fullscreenenter"",""trial"":1,""time"":6417}]",NA,NA,NA,NA,NA,2,#3386FF,#D89F1C,10,0,1,38,1,489.90000000596046,37,1,297.6000000089407,10,1,experiment,NA,NA,1,0.7,0.3,2,3,214,5,NA
fcp-trial,250,805551,0.0-225.0-0.0,voc_e2,12199,"[{""event"":""fullscreenenter"",""trial"":1,""time"":6417}]",NA,NA,NA,NA,NA,2,#741CD8,#D8271C,0,10,0,38,1,572.1000000089407,39,0,251.79999999701977,10,1,experiment,NA,NA,0,0.1,0.9,1,0,215,5,NA
fcp-trial,251,807972,0.0-226.0-0.0,voc_e2,12199,"[{""event"":""fullscreenenter"",""trial"":1,""time"":6417}]",NA,NA,NA,NA,NA,4,#1CD855,#FA92F8,0,0,1,38,1,488.09999999403954,37,1,416.5,0,1,experiment,NA,NA,2,0.5,0.5,4,5,216,5,NA
fcp-trial,252,810550,0.0-227.0-0.0,voc_e2,12199,"[{""event"":""fullscreenenter"",""trial"":1,""time"":6417}]",NA,NA,NA,NA,NA,6,#D8271C,#741CD8,10,0,1,38,1,478.5,37,1,582.6999999880791,10,1,experiment,NA,NA,0,0.9,0.1,0,1,217,5,NA
fcp-trial,253,813180,0.0-228.0-0.0,voc_e2,12199,"[{""event"":""fullscreenenter"",""trial"":1,""time"":6417}]",NA,NA,NA,NA,NA,3,#3386FF,#D89F1C,10,10,1,38,1,551,37,1,554.2000000029802,10,1,experiment,NA,NA,1,0.7,0.3,2,3,218,5,NA
fcp-trial,254,815562,0.0-229.0-0.0,voc_e2,12199,"[{""event"":""fullscreenenter"",""trial"":1,""time"":6417}]",NA,NA,NA,NA,NA,5,#1CD855,#FA92F8,10,10,1,38,1,571.2000000029802,39,0,288.59999999403954,10,0,experiment,NA,NA,2,0.5,0.5,4,5,219,5,NA
fcp-trial,255,818044,0.0-230.0-0.0,voc_e2,12199,"[{""event"":""fullscreenenter"",""trial"":1,""time"":6417}]",NA,NA,NA,NA,NA,1,#741CD8,#D8271C,0,0,0,38,1,612,39,0,340.1000000089407,0,1,experiment,NA,NA,0,0.1,0.9,1,0,220,5,NA
fcp-trial,256,820426,0.0-231.0-0.0,voc_e2,12199,"[{""event"":""fullscreenenter"",""trial"":1,""time"":6417}]",NA,NA,NA,NA,NA,5,#D8271C,#741CD8,10,0,1,38,1,554.3000000119209,37,1,305.8999999910593,10,1,experiment,NA,NA,0,0.9,0.1,0,1,221,5,NA
fcp-trial,257,822881,0.0-232.0-0.0,voc_e2,12199,"[{""event"":""fullscreenenter"",""trial"":1,""time"":6417}]",NA,NA,NA,NA,NA,6,#1CD855,#FA92F8,10,10,1,38,1,638.7999999970198,37,1,302.5,10,1,experiment,NA,NA,2,0.5,0.5,4,5,222,5,NA
fcp-trial,258,826046,0.0-233.0-0.0,voc_e2,12199,"[{""event"":""fullscreenenter"",""trial"":1,""time"":6417}]",NA,NA,NA,NA,NA,6,#3386FF,#D89F1C,0,0,1,40,0,1375.2999999970198,37,1,282.70000000298023,0,1,experiment,NA,NA,1,0.7,0.3,2,3,223,5,NA
fcp-trial,259,829482,0.0-234.0-0.0,voc_e2,12199,"[{""event"":""fullscreenenter"",""trial"":1,""time"":6417}]",NA,NA,NA,NA,NA,4,#741CD8,#D8271C,10,10,0,38,1,1197.6000000089407,39,0,726.1000000089407,10,1,experiment,NA,NA,0,0.1,0.9,1,0,224,5,NA
fcp-trial,260,832369,0.0-235.0-0.0,voc_e2,12199,"[{""event"":""fullscreenenter"",""trial"":1,""time"":6417}]",NA,NA,NA,NA,NA,0,#3386FF,#D89F1C,10,0,1,38,1,828.7000000029802,37,1,548.2000000029802,10,1,experiment,NA,NA,1,0.7,0.3,2,3,225,5,NA
fcp-trial,261,834888,0.0-236.0-0.0,voc_e2,12199,"[{""event"":""fullscreenenter"",""trial"":1,""time"":6417}]",NA,NA,NA,NA,NA,1,#1CD855,#FA92F8,0,0,1,38,1,661.7999999970198,37,1,347,0,1,experiment,NA,NA,2,0.5,0.5,4,5,226,6,NA
fcp-trial,262,837270,0.0-237.0-0.0,voc_e2,12199,"[{""event"":""fullscreenenter"",""trial"":1,""time"":6417}]",NA,NA,NA,NA,NA,0,#D8271C,#741CD8,0,0,1,38,1,551.4000000059605,39,0,320.20000000298023,0,0,experiment,NA,NA,0,0.9,0.1,0,1,227,6,NA
fcp-trial,263,841016,0.0-238.0-0.0,voc_e2,12199,"[{""event"":""fullscreenenter"",""trial"":1,""time"":6417}]",NA,NA,NA,NA,NA,5,#3386FF,#D89F1C,0,10,1,40,0,1891.7999999970198,37,1,344.90000000596046,0,1,experiment,NA,NA,1,0.7,0.3,2,3,228,6,NA
fcp-trial,264,843711,0.0-239.0-0.0,voc_e2,12199,"[{""event"":""fullscreenenter"",""trial"":1,""time"":6417}]",NA,NA,NA,NA,NA,0,#FA92F8,#1CD855,0,0,0,38,1,859.6999999880791,39,0,324.59999999403954,0,1,experiment,NA,NA,2,0.5,0.5,5,4,229,6,NA
fcp-trial,265,846373,0.0-240.0-0.0,voc_e2,12199,"[{""event"":""fullscreenenter"",""trial"":1,""time"":6417}]",NA,NA,NA,NA,NA,3,#1CD855,#FA92F8,0,0,1,38,1,539.3999999910593,37,1,614.0999999940395,0,1,experiment,NA,NA,2,0.5,0.5,4,5,230,6,NA
fcp-trial,266,848765,0.0-241.0-0.0,voc_e2,12199,"[{""event"":""fullscreenenter"",""trial"":1,""time"":6417}]",NA,NA,NA,NA,NA,2,#FA92F8,#1CD855,10,0,0,38,1,455.80000001192093,39,0,423.29999999701977,0,1,experiment,NA,NA,2,0.5,0.5,5,4,231,6,NA
fcp-trial,267,851781,0.0-242.0-0.0,voc_e2,12199,"[{""event"":""fullscreenenter"",""trial"":1,""time"":6417}]",NA,NA,NA,NA,NA,0,#741CD8,#D8271C,0,10,0,38,1,1144.6000000089407,39,0,364.09999999403954,10,1,experiment,NA,NA,0,0.1,0.9,1,0,232,6,NA
fcp-trial,268,854771,0.0-243.0-0.0,voc_e2,12199,"[{""event"":""fullscreenenter"",""trial"":1,""time"":6417}]",NA,NA,NA,NA,NA,5,#3386FF,#D89F1C,10,0,1,40,0,1191.5,37,1,291,10,1,experiment,NA,NA,1,0.7,0.3,2,3,233,6,NA
fcp-trial,269,857785,0.0-244.0-0.0,voc_e2,12199,"[{""event"":""fullscreenenter"",""trial"":1,""time"":6417}]",NA,NA,NA,NA,NA,5,#1CD855,#FA92F8,10,0,1,40,0,897.8999999910593,37,1,606.1000000089407,10,1,experiment,NA,NA,2,0.5,0.5,4,5,234,6,NA
fcp-trial,270,861232,0.0-245.0-0.0,voc_e2,12199,"[{""event"":""fullscreenenter"",""trial"":1,""time"":6417}]",NA,NA,NA,NA,NA,6,#D8271C,#741CD8,10,10,1,40,0,1425.7000000029802,39,0,512.1000000089407,10,0,experiment,NA,NA,0,0.9,0.1,0,1,235,6,NA
fcp-trial,271,864289,0.0-246.0-0.0,voc_e2,12199,"[{""event"":""fullscreenenter"",""trial"":1,""time"":6417}]",NA,NA,NA,NA,NA,3,#D89F1C,#3386FF,10,0,0,38,1,864,39,0,686.7999999970198,0,1,experiment,NA,NA,1,0.3,0.7,3,2,236,6,NA
fcp-trial,272,866924,0.0-247.0-0.0,voc_e2,12199,"[{""event"":""fullscreenenter"",""trial"":1,""time"":6417}]",NA,NA,NA,NA,NA,6,#FA92F8,#1CD855,0,0,0,40,0,779.2000000029802,39,0,347.69999998807907,0,1,experiment,NA,NA,2,0.5,0.5,5,4,237,6,NA
fcp-trial,273,869995,0.0-248.0-0.0,voc_e2,12199,"[{""event"":""fullscreenenter"",""trial"":1,""time"":6417}]",NA,NA,NA,NA,NA,0,#3386FF,#D89F1C,10,10,1,38,1,983.3999999910593,37,1,580.2000000029802,10,1,experiment,NA,NA,1,0.7,0.3,2,3,238,6,NA
fcp-trial,274,873296,0.0-249.0-0.0,voc_e2,12199,"[{""event"":""fullscreenenter"",""trial"":1,""time"":6417}]",NA,NA,NA,NA,NA,5,#741CD8,#D8271C,0,10,0,40,0,1234.7000000029802,37,1,559.7000000029802,0,0,experiment,NA,NA,0,0.1,0.9,1,0,239,6,NA
fcp-trial,275,876900,0.0-250.0-0.0,voc_e2,12199,"[{""event"":""fullscreenenter"",""trial"":1,""time"":6417}]",NA,NA,NA,NA,NA,1,#3386FF,#D89F1C,10,0,1,38,1,790.4000000059605,37,1,1300.2000000029802,10,1,experiment,NA,NA,1,0.7,0.3,2,3,240,6,NA
fcp-trial,276,879534,0.0-251.0-0.0,voc_e2,12199,"[{""event"":""fullscreenenter"",""trial"":1,""time"":6417}]",NA,NA,NA,NA,NA,2,#741CD8,#D8271C,0,10,0,38,1,812.0999999940395,39,0,312.5,10,1,experiment,NA,NA,0,0.1,0.9,1,0,241,6,NA
fcp-trial,277,882159,0.0-252.0-0.0,voc_e2,12199,"[{""event"":""fullscreenenter"",""trial"":1,""time"":6417}]",NA,NA,NA,NA,NA,1,#1CD855,#FA92F8,0,10,1,38,1,769.7999999970198,39,0,348.69999998807907,10,0,experiment,NA,NA,2,0.5,0.5,4,5,242,6,NA
fcp-trial,278,884708,0.0-253.0-0.0,voc_e2,12199,"[{""event"":""fullscreenenter"",""trial"":1,""time"":6417}]",NA,NA,NA,NA,NA,4,#741CD8,#D8271C,0,10,0,38,1,759.7000000029802,39,0,276.5,10,1,experiment,NA,NA,0,0.1,0.9,1,0,243,6,NA
fcp-trial,279,887731,0.0-254.0-0.0,voc_e2,12199,"[{""event"":""fullscreenenter"",""trial"":1,""time"":6417}]",NA,NA,NA,NA,NA,4,#D89F1C,#3386FF,0,10,0,40,0,1169.2999999970198,39,0,346.09999999403954,10,1,experiment,NA,NA,1,0.3,0.7,3,2,244,6,NA
fcp-trial,280,891054,0.0-255.0-0.0,voc_e2,12199,"[{""event"":""fullscreenenter"",""trial"":1,""time"":6417}]",NA,NA,NA,NA,NA,2,#1CD855,#FA92F8,0,10,1,38,1,1105.5,37,1,709.3000000119209,0,1,experiment,NA,NA,2,0.5,0.5,4,5,245,6,NA
fcp-trial,281,893494,0.0-256.0-0.0,voc_e2,12199,"[{""event"":""fullscreenenter"",""trial"":1,""time"":6417}]",NA,NA,NA,NA,NA,1,#D8271C,#741CD8,10,0,1,38,1,659.5,37,1,272.79999999701977,10,1,experiment,NA,NA,0,0.9,0.1,0,1,246,6,NA
fcp-trial,282,896699,0.0-257.0-0.0,voc_e2,12199,"[{""event"":""fullscreenenter"",""trial"":1,""time"":6417}]",NA,NA,NA,NA,NA,2,#3386FF,#D89F1C,10,10,1,38,1,776.2999999970198,37,1,922.0999999940396,10,1,experiment,NA,NA,1,0.7,0.3,2,3,247,6,NA
fcp-trial,283,899553,0.0-258.0-0.0,voc_e2,12199,"[{""event"":""fullscreenenter"",""trial"":1,""time"":6417}]",NA,NA,NA,NA,NA,3,#741CD8,#D8271C,0,10,0,38,1,866.8000000119209,39,0,479.300000011921,10,1,experiment,NA,NA,0,0.1,0.9,1,0,248,6,NA
fcp-trial,284,902257,0.0-259.0-0.0,voc_e2,12199,"[{""event"":""fullscreenenter"",""trial"":1,""time"":6417}]",NA,NA,NA,NA,NA,0,#1CD855,#FA92F8,0,0,1,38,1,824,37,1,371.6000000089407,0,1,experiment,NA,NA,2,0.5,0.5,4,5,249,6,NA
fcp-trial,285,904779,0.0-260.0-0.0,voc_e2,12199,"[{""event"":""fullscreenenter"",""trial"":1,""time"":6417}]",NA,NA,NA,NA,NA,4,#1CD855,#FA92F8,10,10,1,38,1,630.5999999940395,39,0,386.1000000089407,10,0,experiment,NA,NA,2,0.5,0.5,4,5,250,6,NA
fcp-trial,286,907362,0.0-261.0-0.0,voc_e2,12199,"[{""event"":""fullscreenenter"",""trial"":1,""time"":6417}]",NA,NA,NA,NA,NA,3,#FA92F8,#1CD855,10,0,0,38,1,762.6000000089407,37,1,312.5,10,0,experiment,NA,NA,2,0.5,0.5,5,4,251,6,NA
fcp-trial,287,910523,0.0-262.0-0.0,voc_e2,12199,"[{""event"":""fullscreenenter"",""trial"":1,""time"":6417}]",NA,NA,NA,NA,NA,6,#D89F1C,#3386FF,0,10,0,40,0,1182.699999988079,37,1,466.90000000596046,0,0,experiment,NA,NA,1,0.3,0.7,3,2,252,6,NA
fcp-trial,288,913990,0.0-263.0-0.0,voc_e2,12199,"[{""event"":""fullscreenenter"",""trial"":1,""time"":6417}]",NA,NA,NA,NA,NA,5,#741CD8,#D8271C,0,10,0,38,1,1593,39,0,365.40000000596046,10,1,experiment,NA,NA,0,0.1,0.9,1,0,253,6,NA
fcp-trial,289,916555,0.0-264.0-0.0,voc_e2,12199,"[{""event"":""fullscreenenter"",""trial"":1,""time"":6417}]",NA,NA,NA,NA,NA,3,#D8271C,#741CD8,10,10,1,38,1,801.4000000059605,37,1,255.9000000059605,10,1,experiment,NA,NA,0,0.9,0.1,0,1,254,6,NA
fcp-trial,290,919133,0.0-265.0-0.0,voc_e2,12199,"[{""event"":""fullscreenenter"",""trial"":1,""time"":6417}]",NA,NA,NA,NA,NA,4,#D89F1C,#3386FF,0,10,0,38,1,781.4000000059605,39,0,287.1000000089407,10,1,experiment,NA,NA,1,0.3,0.7,3,2,255,6,NA
fcp-trial,291,921475,0.0-266.0-0.0,voc_e2,12199,"[{""event"":""fullscreenenter"",""trial"":1,""time"":6417}]",NA,NA,NA,NA,NA,2,#FA92F8,#1CD855,0,0,0,38,1,530.0999999940395,37,1,303.6000000089407,0,0,experiment,NA,NA,2,0.5,0.5,5,4,256,6,NA
fcp-trial,292,923861,0.0-267.0-0.0,voc_e2,12199,"[{""event"":""fullscreenenter"",""trial"":1,""time"":6417}]",NA,NA,NA,NA,NA,6,#FA92F8,#1CD855,0,0,0,38,1,497.09999999403954,37,1,379.09999999403954,0,0,experiment,NA,NA,2,0.5,0.5,5,4,257,6,NA
fcp-trial,293,926641,0.0-268.0-0.0,voc_e2,12199,"[{""event"":""fullscreenenter"",""trial"":1,""time"":6417}]",NA,NA,NA,NA,NA,0,#D8271C,#741CD8,10,0,1,38,1,956.2000000029802,37,1,315.29999999701977,10,1,experiment,NA,NA,0,0.9,0.1,0,1,258,6,NA
fcp-trial,294,929477,0.0-269.0-0.0,voc_e2,12199,"[{""event"":""fullscreenenter"",""trial"":1,""time"":6417}]",NA,NA,NA,NA,NA,5,#3386FF,#D89F1C,10,0,1,40,0,867.5,39,0,460.3999999910593,0,0,experiment,NA,NA,1,0.7,0.3,2,3,259,6,NA
fcp-trial,295,932358,0.0-270.0-0.0,voc_e2,12199,"[{""event"":""fullscreenenter"",""trial"":1,""time"":6417}]",NA,NA,NA,NA,NA,3,#D89F1C,#3386FF,0,0,0,40,0,1069,37,1,305.79999999701977,0,0,experiment,NA,NA,1,0.3,0.7,3,2,260,6,NA
fcp-trial,296,935384,0.0-271.0-0.0,voc_e2,12199,"[{""event"":""fullscreenenter"",""trial"":1,""time"":6417}]",NA,NA,NA,NA,NA,4,#1CD855,#FA92F8,0,10,1,40,0,1077,37,1,441.59999999403954,0,1,experiment,NA,NA,2,0.5,0.5,4,5,261,6,NA
fcp-trial,297,938269,0.0-272.0-0.0,voc_e2,12199,"[{""event"":""fullscreenenter"",""trial"":1,""time"":6417}]",NA,NA,NA,NA,NA,0,#3386FF,#D89F1C,10,0,1,38,1,996.3999999910593,37,1,377.20000000298023,10,1,experiment,NA,NA,1,0.7,0.3,2,3,262,6,NA
fcp-trial,298,941580,0.0-273.0-0.0,voc_e2,12199,"[{""event"":""fullscreenenter"",""trial"":1,""time"":6417}]",NA,NA,NA,NA,NA,6,#741CD8,#D8271C,0,10,0,40,0,1044.9000000059605,37,1,757.9000000059605,0,0,experiment,NA,NA,0,0.1,0.9,1,0,263,6,NA
fcp-trial,299,944512,0.0-274.0-0.0,voc_e2,12199,"[{""event"":""fullscreenenter"",""trial"":1,""time"":6417}]",NA,NA,NA,NA,NA,0,#1CD855,#FA92F8,10,0,1,38,1,1080.0999999940395,37,1,343.5,10,1,experiment,NA,NA,2,0.5,0.5,4,5,264,6,NA
fcp-trial,300,947055,0.0-275.0-0.0,voc_e2,12199,"[{""event"":""fullscreenenter"",""trial"":1,""time"":6417}]",NA,NA,NA,NA,NA,2,#D8271C,#741CD8,0,0,1,38,1,750.2999999970198,37,1,283.40000000596046,0,1,experiment,NA,NA,0,0.9,0.1,0,1,265,6,NA
fcp-trial,301,950398,0.0-276.0-0.0,voc_e2,12199,"[{""event"":""fullscreenenter"",""trial"":1,""time"":6417}]",NA,NA,NA,NA,NA,3,#1CD855,#FA92F8,10,10,1,38,1,1210.8999999910593,39,0,624.5999999940395,10,0,experiment,NA,NA,2,0.5,0.5,4,5,266,6,NA
fcp-trial,302,953346,0.0-277.0-0.0,voc_e2,12199,"[{""event"":""fullscreenenter"",""trial"":1,""time"":6417}]",NA,NA,NA,NA,NA,2,#3386FF,#D89F1C,10,0,1,38,1,763.5,37,1,678.4000000059605,10,1,experiment,NA,NA,1,0.7,0.3,2,3,267,6,NA
fcp-trial,303,955918,0.0-278.0-0.0,voc_e2,12199,"[{""event"":""fullscreenenter"",""trial"":1,""time"":6417}]",NA,NA,NA,NA,NA,1,#741CD8,#D8271C,0,10,0,38,1,801.7000000029802,39,0,262.8999999910593,10,1,experiment,NA,NA,0,0.1,0.9,1,0,268,6,NA
fcp-trial,304,958858,0.0-279.0-0.0,voc_e2,12199,"[{""event"":""fullscreenenter"",""trial"":1,""time"":6417}]",NA,NA,NA,NA,NA,5,#FA92F8,#1CD855,0,10,0,40,0,1170.5999999940395,37,1,261.5,0,0,experiment,NA,NA,2,0.5,0.5,5,4,269,6,NA
fcp-trial,305,961971,0.0-280.0-0.0,voc_e2,12199,"[{""event"":""fullscreenenter"",""trial"":1,""time"":6417}]",NA,NA,NA,NA,NA,6,#D89F1C,#3386FF,0,0,0,40,0,911,37,1,694.8000000119209,0,0,experiment,NA,NA,1,0.3,0.7,3,2,270,6,NA
fcp-trial,306,964840,0.0-281.0-0.0,voc_e2,12199,"[{""event"":""fullscreenenter"",""trial"":1,""time"":6417}]",NA,NA,NA,NA,NA,1,#1CD855,#FA92F8,0,0,1,38,1,791.5,37,1,567,0,1,experiment,NA,NA,2,0.5,0.5,4,5,271,7,NA
fcp-trial,307,967641,0.0-282.0-0.0,voc_e2,12199,"[{""event"":""fullscreenenter"",""trial"":1,""time"":6417}]",NA,NA,NA,NA,NA,1,#3386FF,#D89F1C,10,0,1,38,1,676.7000000029802,37,1,617.2000000029802,10,1,experiment,NA,NA,1,0.7,0.3,2,3,272,7,NA
fcp-trial,308,970664,0.0-283.0-0.0,voc_e2,12199,"[{""event"":""fullscreenenter"",""trial"":1,""time"":6417}]",NA,NA,NA,NA,NA,4,#D8271C,#741CD8,10,0,1,38,1,1087.7999999970198,37,1,428.3999999910593,10,1,experiment,NA,NA,0,0.9,0.1,0,1,273,7,NA
fcp-trial,309,973522,0.0-284.0-0.0,voc_e2,12199,"[{""event"":""fullscreenenter"",""trial"":1,""time"":6417}]",NA,NA,NA,NA,NA,5,#3386FF,#D89F1C,10,0,1,40,0,932.8999999910593,39,0,415.59999999403954,0,0,experiment,NA,NA,1,0.7,0.3,2,3,274,7,NA
fcp-trial,310,976296,0.0-285.0-0.0,voc_e2,12199,"[{""event"":""fullscreenenter"",""trial"":1,""time"":6417}]",NA,NA,NA,NA,NA,1,#D8271C,#741CD8,10,0,1,38,1,966.5,37,1,300.40000000596046,10,1,experiment,NA,NA,0,0.9,0.1,0,1,275,7,NA
fcp-trial,311,979135,0.0-286.0-0.0,voc_e2,12199,"[{""event"":""fullscreenenter"",""trial"":1,""time"":6417}]",NA,NA,NA,NA,NA,3,#D8271C,#741CD8,10,0,1,38,1,979.3000000119209,37,1,350.09999999403954,10,1,experiment,NA,NA,0,0.9,0.1,0,1,276,7,NA
fcp-trial,312,981720,0.0-287.0-0.0,voc_e2,12199,"[{""event"":""fullscreenenter"",""trial"":1,""time"":6417}]",NA,NA,NA,NA,NA,1,#3386FF,#D89F1C,10,10,1,38,1,769,37,1,310.6000000089407,10,1,experiment,NA,NA,1,0.7,0.3,2,3,277,7,NA
fcp-trial,313,984583,0.0-288.0-0.0,voc_e2,12199,"[{""event"":""fullscreenenter"",""trial"":1,""time"":6417}]",NA,NA,NA,NA,NA,6,#D89F1C,#3386FF,0,10,0,40,0,1044.3999999910593,39,0,311.59999999403954,10,1,experiment,NA,NA,1,0.3,0.7,3,2,278,7,NA
fcp-trial,314,987578,0.0-289.0-0.0,voc_e2,12199,"[{""event"":""fullscreenenter"",""trial"":1,""time"":6417}]",NA,NA,NA,NA,NA,0,#3386FF,#D89F1C,10,10,1,38,1,1043.5,37,1,444.199999988079,10,1,experiment,NA,NA,1,0.7,0.3,2,3,279,7,NA
fcp-trial,315,990892,0.0-290.0-0.0,voc_e2,12199,"[{""event"":""fullscreenenter"",""trial"":1,""time"":6417}]",NA,NA,NA,NA,NA,1,#FA92F8,#1CD855,0,0,0,38,1,1540.4000000059605,39,0,265.70000000298023,0,1,experiment,NA,NA,2,0.5,0.5,5,4,280,7,NA
fcp-trial,316,993778,0.0-291.0-0.0,voc_e2,12199,"[{""event"":""fullscreenenter"",""trial"":1,""time"":6417}]",NA,NA,NA,NA,NA,4,#D8271C,#741CD8,10,0,1,38,1,1116.300000011921,37,1,262.29999999701977,10,1,experiment,NA,NA,0,0.9,0.1,0,1,281,7,NA
fcp-trial,317,996906,0.0-292.0-0.0,voc_e2,12199,"[{""event"":""fullscreenenter"",""trial"":1,""time"":6417}]",NA,NA,NA,NA,NA,2,#FA92F8,#1CD855,10,10,0,38,1,851.2999999970198,39,0,769.4000000059605,10,1,experiment,NA,NA,2,0.5,0.5,5,4,282,7,NA
fcp-trial,318,999871,0.0-293.0-0.0,voc_e2,12199,"[{""event"":""fullscreenenter"",""trial"":1,""time"":6417}]",NA,NA,NA,NA,NA,2,#D8271C,#741CD8,10,10,1,38,1,840.3999999910593,37,1,617.7999999970198,10,1,experiment,NA,NA,0,0.9,0.1,0,1,283,7,NA
fcp-trial,319,1002679,0.0-294.0-0.0,voc_e2,12199,"[{""event"":""fullscreenenter"",""trial"":1,""time"":6417}]",NA,NA,NA,NA,NA,4,#D89F1C,#3386FF,0,10,0,38,1,1016.3999999910593,39,0,284.79999999701977,10,1,experiment,NA,NA,1,0.3,0.7,3,2,284,7,NA
fcp-trial,320,1005419,0.0-295.0-0.0,voc_e2,12199,"[{""event"":""fullscreenenter"",""trial"":1,""time"":6417}]",NA,NA,NA,NA,NA,3,#FA92F8,#1CD855,0,10,0,40,0,892.4000000059605,37,1,339,0,0,experiment,NA,NA,2,0.5,0.5,5,4,285,7,NA
fcp-trial,321,1007737,0.0-296.0-0.0,voc_e2,12199,"[{""event"":""fullscreenenter"",""trial"":1,""time"":6417}]",NA,NA,NA,NA,NA,3,#D89F1C,#3386FF,10,10,0,38,1,544,39,0,265.6000000089407,10,1,experiment,NA,NA,1,0.3,0.7,3,2,286,7,NA
fcp-trial,322,1010899,0.0-297.0-0.0,voc_e2,12199,"[{""event"":""fullscreenenter"",""trial"":1,""time"":6417}]",NA,NA,NA,NA,NA,4,#FA92F8,#1CD855,10,0,0,40,0,1052.0999999940395,37,1,601.3999999910593,10,0,experiment,NA,NA,2,0.5,0.5,5,4,287,7,NA
fcp-trial,323,1013501,0.0-298.0-0.0,voc_e2,12199,"[{""event"":""fullscreenenter"",""trial"":1,""time"":6417}]",NA,NA,NA,NA,NA,6,#741CD8,#D8271C,0,10,0,38,1,796.2999999970198,39,0,295.69999998807907,10,1,experiment,NA,NA,0,0.1,0.9,1,0,288,7,NA
fcp-trial,324,1016439,0.0-299.0-0.0,voc_e2,12199,"[{""event"":""fullscreenenter"",""trial"":1,""time"":6417}]",NA,NA,NA,NA,NA,0,#1CD855,#FA92F8,0,10,1,38,1,1148.5,39,0,281.40000000596046,10,0,experiment,NA,NA,2,0.5,0.5,4,5,289,7,NA
fcp-trial,325,1019211,0.0-300.0-0.0,voc_e2,12199,"[{""event"":""fullscreenenter"",""trial"":1,""time"":6417}]",NA,NA,NA,NA,NA,6,#FA92F8,#1CD855,0,10,0,40,0,996.2999999970198,37,1,268.3999999910593,0,0,experiment,NA,NA,2,0.5,0.5,5,4,290,7,NA
fcp-trial,326,1021729,0.0-301.0-0.0,voc_e2,12199,"[{""event"":""fullscreenenter"",""trial"":1,""time"":6417}]",NA,NA,NA,NA,NA,2,#3386FF,#D89F1C,10,0,1,38,1,757.5999999940395,37,1,253.5,10,1,experiment,NA,NA,1,0.7,0.3,2,3,291,7,NA
fcp-trial,327,1024588,0.0-302.0-0.0,voc_e2,12199,"[{""event"":""fullscreenenter"",""trial"":1,""time"":6417}]",NA,NA,NA,NA,NA,5,#FA92F8,#1CD855,0,10,0,40,0,824.0999999940395,39,0,526.6999999880791,10,1,experiment,NA,NA,2,0.5,0.5,5,4,292,7,NA
fcp-trial,328,1027328,0.0-303.0-0.0,voc_e2,12199,"[{""event"":""fullscreenenter"",""trial"":1,""time"":6417}]",NA,NA,NA,NA,NA,0,#D8271C,#741CD8,10,0,1,38,1,965.4000000059605,37,1,263.79999999701977,10,1,experiment,NA,NA,0,0.9,0.1,0,1,293,7,NA
fcp-trial,329,1030539,0.0-304.0-0.0,voc_e2,12199,"[{""event"":""fullscreenenter"",""trial"":1,""time"":6417}]",NA,NA,NA,NA,NA,5,#741CD8,#D8271C,0,10,0,38,1,1302.2000000029802,39,0,402.40000000596046,10,1,experiment,NA,NA,0,0.1,0.9,1,0,294,7,NA
fcp-trial,330,1033507,0.0-305.0-0.0,voc_e2,12199,"[{""event"":""fullscreenenter"",""trial"":1,""time"":6417}]",NA,NA,NA,NA,NA,5,#1CD855,#FA92F8,0,10,1,40,0,955.7999999970198,37,1,503.199999988079,0,1,experiment,NA,NA,2,0.5,0.5,4,5,295,7,NA
fcp-trial,331,1037050,0.0-306.0-0.0,voc_e2,12199,"[{""event"":""fullscreenenter"",""trial"":1,""time"":6417}]",NA,NA,NA,NA,NA,4,#D89F1C,#3386FF,0,0,0,38,1,1775.4000000059605,39,0,261.29999999701977,0,1,experiment,NA,NA,1,0.3,0.7,3,2,296,7,NA
fcp-trial,332,1039872,0.0-307.0-0.0,voc_e2,12199,"[{""event"":""fullscreenenter"",""trial"":1,""time"":6417}]",NA,NA,NA,NA,NA,4,#741CD8,#D8271C,0,10,0,38,1,959.8999999910593,39,0,351.09999999403954,10,1,experiment,NA,NA,0,0.1,0.9,1,0,297,7,NA
fcp-trial,333,1043840,0.0-308.0-0.0,voc_e2,12199,"[{""event"":""fullscreenenter"",""trial"":1,""time"":6417}]",NA,NA,NA,NA,NA,4,#FA92F8,#1CD855,10,10,0,40,0,2093.5,39,0,369,10,1,experiment,NA,NA,2,0.5,0.5,5,4,298,7,NA
fcp-trial,334,1048019,0.0-309.0-0.0,voc_e2,12199,"[{""event"":""fullscreenenter"",""trial"":1,""time"":6417}]",NA,NA,NA,NA,NA,2,#D89F1C,#3386FF,0,10,0,38,1,2402.4000000059605,39,0,269.1000000089407,10,1,experiment,NA,NA,1,0.3,0.7,3,2,299,7,NA
fcp-trial,335,1052088,0.0-310.0-0.0,voc_e2,12199,"[{""event"":""fullscreenenter"",""trial"":1,""time"":6417}]",NA,NA,NA,NA,NA,5,#741CD8,#D8271C,0,10,0,38,1,2005.2999999970198,39,0,554.6000000089407,10,1,experiment,NA,NA,0,0.1,0.9,1,0,300,7,NA
fcp-trial,336,1054680,0.0-311.0-0.0,voc_e2,12199,"[{""event"":""fullscreenenter"",""trial"":1,""time"":6417}]",NA,NA,NA,NA,NA,2,#741CD8,#D8271C,0,10,0,38,1,812.0999999940395,39,0,271.20000000298023,10,1,experiment,NA,NA,0,0.1,0.9,1,0,301,7,NA
fcp-trial,337,1058961,0.0-312.0-0.0,voc_e2,12199,"[{""event"":""fullscreenenter"",""trial"":1,""time"":6417}]",NA,NA,NA,NA,NA,1,#D89F1C,#3386FF,0,10,0,38,1,2158.7000000029802,39,0,613.7000000029802,10,1,experiment,NA,NA,1,0.3,0.7,3,2,302,7,NA
fcp-trial,338,1061765,0.0-313.0-0.0,voc_e2,12199,"[{""event"":""fullscreenenter"",""trial"":1,""time"":6417}]",NA,NA,NA,NA,NA,3,#1CD855,#FA92F8,0,0,1,40,0,918.7999999970198,39,0,378.40000000596046,0,0,experiment,NA,NA,2,0.5,0.5,4,5,303,7,NA
fcp-trial,339,1064820,0.0-314.0-0.0,voc_e2,12199,"[{""event"":""fullscreenenter"",""trial"":1,""time"":6417}]",NA,NA,NA,NA,NA,2,#FA92F8,#1CD855,10,10,0,40,0,1133.5999999940395,37,1,412.8999999910593,10,0,experiment,NA,NA,2,0.5,0.5,5,4,304,7,NA
fcp-trial,340,1067492,0.0-315.0-0.0,voc_e2,12199,"[{""event"":""fullscreenenter"",""trial"":1,""time"":6417}]",NA,NA,NA,NA,NA,3,#D8271C,#741CD8,0,0,1,38,1,827,37,1,333.70000000298023,0,1,experiment,NA,NA,0,0.9,0.1,0,1,305,7,NA
fcp-trial,341,1070244,0.0-316.0-0.0,voc_e2,12199,"[{""event"":""fullscreenenter"",""trial"":1,""time"":6417}]",NA,NA,NA,NA,NA,5,#D89F1C,#3386FF,0,10,0,40,0,921.7999999970198,39,0,322.79999999701977,10,1,experiment,NA,NA,1,0.3,0.7,3,2,306,7,NA
fcp-trial,342,1073616,0.0-317.0-0.0,voc_e2,12199,"[{""event"":""fullscreenenter"",""trial"":1,""time"":6417}]",NA,NA,NA,NA,NA,0,#1CD855,#FA92F8,10,0,1,38,1,1213,37,1,650,10,1,experiment,NA,NA,2,0.5,0.5,4,5,307,7,NA
fcp-trial,343,1076741,0.0-318.0-0.0,voc_e2,12199,"[{""event"":""fullscreenenter"",""trial"":1,""time"":6417}]",NA,NA,NA,NA,NA,6,#741CD8,#D8271C,0,10,0,38,1,1347.2000000029802,39,0,267.69999998807907,10,1,experiment,NA,NA,0,0.1,0.9,1,0,308,7,NA
fcp-trial,344,1079589,0.0-319.0-0.0,voc_e2,12199,"[{""event"":""fullscreenenter"",""trial"":1,""time"":6417}]",NA,NA,NA,NA,NA,1,#1CD855,#FA92F8,10,0,1,38,1,969.4000000059605,37,1,370.70000000298023,10,1,experiment,NA,NA,2,0.5,0.5,4,5,309,7,NA
fcp-trial,345,1082517,0.0-320.0-0.0,voc_e2,12199,"[{""event"":""fullscreenenter"",""trial"":1,""time"":6417}]",NA,NA,NA,NA,NA,0,#D89F1C,#3386FF,10,10,0,38,1,1138.9000000059605,39,0,282.20000000298023,10,1,experiment,NA,NA,1,0.3,0.7,3,2,310,7,NA
fcp-trial,346,1085548,0.0-321.0-0.0,voc_e2,12199,"[{""event"":""fullscreenenter"",""trial"":1,""time"":6417}]",NA,NA,NA,NA,NA,3,#D89F1C,#3386FF,10,10,0,40,0,1101.9000000059605,37,1,422.5,10,0,experiment,NA,NA,1,0.3,0.7,3,2,311,7,NA
fcp-trial,347,1088477,0.0-322.0-0.0,voc_e2,12199,"[{""event"":""fullscreenenter"",""trial"":1,""time"":6417}]",NA,NA,NA,NA,NA,6,#1CD855,#FA92F8,0,0,1,40,0,879.3000000119209,37,1,542.2000000029802,0,1,experiment,NA,NA,2,0.5,0.5,4,5,312,7,NA
fcp-trial,348,1091298,0.0-323.0-0.0,voc_e2,12199,"[{""event"":""fullscreenenter"",""trial"":1,""time"":6417}]",NA,NA,NA,NA,NA,0,#D8271C,#741CD8,10,10,1,38,1,927.2999999970198,37,1,386,10,1,experiment,NA,NA,0,0.9,0.1,0,1,313,7,NA
fcp-trial,349,1094129,0.0-324.0-0.0,voc_e2,12199,"[{""event"":""fullscreenenter"",""trial"":1,""time"":6417}]",NA,NA,NA,NA,NA,6,#3386FF,#D89F1C,10,0,1,40,0,1003,37,1,319,10,1,experiment,NA,NA,1,0.7,0.3,2,3,314,7,NA
fcp-trial,350,1097695,0.0-325.0-0.0,voc_e2,12199,"[{""event"":""fullscreenenter"",""trial"":1,""time"":6417}]",NA,NA,NA,NA,NA,1,#D8271C,#741CD8,10,0,1,38,1,1789.4000000059605,37,1,268.5,10,1,experiment,NA,NA,0,0.9,0.1,0,1,315,7,NA
audio-instructions,351,1104810,0.0-326.0,voc_e2,12199,"[{""event"":""fullscreenenter"",""trial"":1,""time"":6417}]",NA,421.09999999403954,static/audio/finished.wav,NA,0,NA,NA,NA,NA,NA,NA,NA,NA,NA,NA,NA,NA,NA,NA,NA,NA,NA,NA,NA,NA,NA,NA,NA,NA,NA
audio-instructions,352,1116645,0.0-327.0-0.0,voc_e2,12199,"[{""event"":""fullscreenenter"",""trial"":1,""time"":6417}]",NA,996.1000000089408,static/audio/explicit1.wav,NA,0,NA,NA,NA,NA,NA,NA,NA,NA,NA,NA,NA,NA,NA,NA,NA,NA,NA,NA,NA,NA,NA,NA,NA,NA,NA
audio-instructions,353,1124702,0.0-327.0-1.0,voc_e2,12199,"[{""event"":""fullscreenenter"",""trial"":1,""time"":6417}]",NA,461.8999999910593,static/audio/explicit2.wav,NA,0,NA,NA,NA,NA,NA,NA,NA,NA,NA,NA,NA,NA,NA,NA,NA,NA,NA,NA,NA,NA,NA,NA,NA,NA,NA
image-slider-response,354,1127930,0.0-328.0,voc_e2,12199,"[{""event"":""fullscreenenter"",""trial"":1,""time"":6417}]",NA,3224.70000000298,static/img/machines/machine1.png,NA,NA,NA,NA,NA,NA,NA,NA,NA,NA,NA,NA,NA,NA,NA,NA,explicit,NA,NA,NA,NA,NA,NA,NA,NA,NA,9
image-slider-response,355,1131687,0.0-329.0,voc_e2,12199,"[{""event"":""fullscreenenter"",""trial"":1,""time"":6417}]",NA,3754.5,static/img/machines/machine5.png,NA,NA,NA,NA,NA,NA,NA,NA,NA,NA,NA,NA,NA,NA,NA,NA,explicit,NA,NA,NA,NA,NA,NA,NA,NA,NA,4
image-slider-response,356,1135472,0.0-330.0,voc_e2,12199,"[{""event"":""fullscreenenter"",""trial"":1,""time"":6417}]",NA,3783.199999988079,static/img/machines/machine4.png,NA,NA,NA,NA,NA,NA,NA,NA,NA,NA,NA,NA,NA,NA,NA,NA,explicit,NA,NA,NA,NA,NA,NA,NA,NA,NA,3
image-slider-response,357,1138867,0.0-331.0,voc_e2,12199,"[{""event"":""fullscreenenter"",""trial"":1,""time"":6417}]",NA,3392.5,static/img/machines/machine2.png,NA,NA,NA,NA,NA,NA,NA,NA,NA,NA,NA,NA,NA,NA,NA,NA,explicit,NA,NA,NA,NA,NA,NA,NA,NA,NA,2
image-slider-response,358,1144193,0.0-332.0,voc_e2,12199,"[{""event"":""fullscreenenter"",""trial"":1,""time"":6417}]",NA,5322.79999999702,static/img/machines/machine6.png,NA,NA,NA,NA,NA,NA,NA,NA,NA,NA,NA,NA,NA,NA,NA,NA,explicit,NA,NA,NA,NA,NA,NA,NA,NA,NA,6
image-slider-response,359,1151045,0.0-333.0,voc_e2,12199,"[{""event"":""fullscreenenter"",""trial"":1,""time"":6417}]",NA,6849.5,static/img/machines/machine3.png,NA,NA,NA,NA,NA,NA,NA,NA,NA,NA,NA,NA,NA,NA,NA,NA,explicit,NA,NA,NA,NA,NA,NA,NA,NA,NA,7
