trial_type,trial_index,time_elapsed,internal_node_id,task_version,subject_id,interactions,success,rt,stimulus,key_press,button_pressed,offer,arcade_color_L,arcade_color_R,arcade_outcome_L,arcade_outcome_R,correct,stage_1_key,stage_1_choice,stage_1_rt,stage_2_key,stage_2_choice,stage_2_rt,stage_3_outcome,accuracy,phase,responses,num_errors,context,reward_prob_L,reward_prob_R,arcade_id_L,arcade_id_R,trial,block,response
pavlovia,0,12,0.0-0.0,voc_e2,12148,[],NA,NA,NA,NA,NA,NA,NA,NA,NA,NA,NA,NA,NA,NA,NA,NA,NA,NA,NA,NA,NA,NA,NA,NA,NA,NA,NA,NA,NA,NA
fullscreen,1,3024,0.0-1.0,voc_e2,12148,"[{""event"":""fullscreenenter"",""trial"":1,""time"":2044}]",TRUE,NA,NA,NA,NA,NA,NA,NA,NA,NA,NA,NA,NA,NA,NA,NA,NA,NA,NA,NA,NA,NA,NA,NA,NA,NA,NA,NA,NA,NA
audio-keyboard-response,2,7540,0.0-2.0,voc_e2,12148,"[{""event"":""fullscreenenter"",""trial"":1,""time"":2044}]",NA,4480,static/audio/beep_loop.wav,32,NA,NA,NA,NA,NA,NA,NA,NA,NA,NA,NA,NA,NA,NA,NA,NA,NA,NA,NA,NA,NA,NA,NA,NA,NA,NA
audio-test,3,9481,0.0-3.0,voc_e2,12148,"[{""event"":""fullscreenenter"",""trial"":1,""time"":2044}]",NA,NA,static/audio/turtle.wav,NA,3,NA,NA,NA,NA,NA,NA,NA,NA,NA,NA,NA,NA,NA,NA,NA,NA,NA,NA,NA,NA,NA,NA,NA,NA,NA
audio-test,4,11827,0.0-4.0,voc_e2,12148,"[{""event"":""fullscreenenter"",""trial"":1,""time"":2044}]",NA,NA,static/audio/shark.wav,NA,2,NA,NA,NA,NA,NA,NA,NA,NA,NA,NA,NA,NA,NA,NA,NA,NA,NA,NA,NA,NA,NA,NA,NA,NA,NA
audio-instructions,5,19585,0.0-5.0-0.0,voc_e2,12148,"[{""event"":""fullscreenenter"",""trial"":1,""time"":2044}]",NA,1975.600000023842,static/audio/instructions1.wav,NA,0,NA,NA,NA,NA,NA,NA,NA,NA,NA,NA,NA,NA,NA,NA,NA,NA,NA,NA,NA,NA,NA,NA,NA,NA,NA
audio-instructions,6,28196,0.0-5.0-1.0,voc_e2,12148,"[{""event"":""fullscreenenter"",""trial"":1,""time"":2044}]",NA,1868.0999999642372,static/audio/instructions2.wav,NA,0,NA,NA,NA,NA,NA,NA,NA,NA,NA,NA,NA,NA,NA,NA,NA,NA,NA,NA,NA,NA,NA,NA,NA,NA,NA
audio-instructions,7,34996,0.0-5.0-2.0,voc_e2,12148,"[{""event"":""fullscreenenter"",""trial"":1,""time"":2044}]",NA,997.5,static/audio/instructions3.wav,NA,0,NA,NA,NA,NA,NA,NA,NA,NA,NA,NA,NA,NA,NA,NA,NA,NA,NA,NA,NA,NA,NA,NA,NA,NA,NA
audio-instructions,8,49838,0.0-5.0-3.0,voc_e2,12148,"[{""event"":""fullscreenenter"",""trial"":1,""time"":2044}]",NA,1616,static/audio/instructions4.wav,NA,0,NA,NA,NA,NA,NA,NA,NA,NA,NA,NA,NA,NA,NA,NA,NA,NA,NA,NA,NA,NA,NA,NA,NA,NA,NA
audio-instructions,9,60667,0.0-5.0-4.0,voc_e2,12148,"[{""event"":""fullscreenenter"",""trial"":1,""time"":2044}]",NA,1441.600000023842,static/audio/instructions5.wav,NA,0,NA,NA,NA,NA,NA,NA,NA,NA,NA,NA,NA,NA,NA,NA,NA,NA,NA,NA,NA,NA,NA,NA,NA,NA,NA
fcp-practice,10,69085,0.0-5.0-5.0-0.0,voc_e2,12148,"[{""event"":""fullscreenenter"",""trial"":1,""time"":2044}]",NA,NA,NA,NA,NA,NA,#EDC948,#46d3c8,10,0,1,null,null,null,37,1,6903.800000011921,10,1,practice,NA,NA,NA,NA,NA,NA,NA,NA,NA,NA
fcp-practice,11,71851,0.0-5.0-5.0-1.0,voc_e2,12148,"[{""event"":""fullscreenenter"",""trial"":1,""time"":2044}]",NA,NA,NA,NA,NA,NA,#EDC948,#46d3c8,10,0,1,null,null,null,37,1,1260.600000023842,10,1,practice,NA,NA,NA,NA,NA,NA,NA,NA,NA,NA
fcp-practice,12,74044,0.0-5.0-5.0-2.0,voc_e2,12148,"[{""event"":""fullscreenenter"",""trial"":1,""time"":2044}]",NA,NA,NA,NA,NA,NA,#EDC948,#46d3c8,0,10,1,null,null,null,37,1,685.6999999880791,0,1,practice,NA,NA,NA,NA,NA,NA,NA,NA,NA,NA
fcp-practice,13,76036,0.0-5.0-5.0-3.0,voc_e2,12148,"[{""event"":""fullscreenenter"",""trial"":1,""time"":2044}]",NA,NA,NA,NA,NA,NA,#EDC948,#46d3c8,10,0,1,null,null,null,37,1,485,10,1,practice,NA,NA,NA,NA,NA,NA,NA,NA,NA,NA
fcp-practice,14,81318,0.0-5.0-5.0-4.0,voc_e2,12148,"[{""event"":""fullscreenenter"",""trial"":1,""time"":2044}]",NA,NA,NA,NA,NA,NA,#EDC948,#46d3c8,10,0,1,null,null,null,37,1,3776.800000011921,10,1,practice,NA,NA,NA,NA,NA,NA,NA,NA,NA,NA
audio-instructions,15,101417,0.0-5.0-6.0,voc_e2,12148,"[{""event"":""fullscreenenter"",""trial"":1,""time"":2044}]",NA,2090.400000035763,static/audio/instructions6.wav,NA,0,NA,NA,NA,NA,NA,NA,NA,NA,NA,NA,NA,NA,NA,NA,NA,NA,NA,NA,NA,NA,NA,NA,NA,NA,NA
audio-instructions,16,122537,0.0-5.0-7.0,voc_e2,12148,"[{""event"":""fullscreenenter"",""trial"":1,""time"":2044}]",NA,1920.300000011921,static/audio/instructions7.wav,NA,0,NA,NA,NA,NA,NA,NA,NA,NA,NA,NA,NA,NA,NA,NA,NA,NA,NA,NA,NA,NA,NA,NA,NA,NA,NA
audio-instructions,17,133853,0.0-5.0-8.0,voc_e2,12148,"[{""event"":""fullscreenenter"",""trial"":1,""time"":2044}]",NA,1844.0999999642372,static/audio/instructions8.wav,NA,0,NA,NA,NA,NA,NA,NA,NA,NA,NA,NA,NA,NA,NA,NA,NA,NA,NA,NA,NA,NA,NA,NA,NA,NA,NA
fcp-comprehension,18,143606,0.0-5.0-9.0,voc_e2,12148,"[{""event"":""fullscreenenter"",""trial"":1,""time"":2044}]",NA,9749.80000001192,NA,NA,NA,NA,NA,NA,NA,NA,NA,NA,NA,NA,NA,NA,NA,NA,NA,NA,"false,true",1,NA,NA,NA,NA,NA,NA,NA,NA
audio-instructions,19,149654,0.0-5.1-0.1,voc_e2,12148,"[{""event"":""fullscreenenter"",""trial"":1,""time"":2044}]",NA,1266.399999976158,static/audio/instructions1.wav,NA,0,NA,NA,NA,NA,NA,NA,NA,NA,NA,NA,NA,NA,NA,NA,NA,NA,NA,NA,NA,NA,NA,NA,NA,NA,NA
audio-instructions,20,157568,0.0-5.1-1.1,voc_e2,12148,"[{""event"":""fullscreenenter"",""trial"":1,""time"":2044}]",NA,1170.2999999523165,static/audio/instructions2.wav,NA,0,NA,NA,NA,NA,NA,NA,NA,NA,NA,NA,NA,NA,NA,NA,NA,NA,NA,NA,NA,NA,NA,NA,NA,NA,NA
audio-instructions,21,164389,0.0-5.1-2.1,voc_e2,12148,"[{""event"":""fullscreenenter"",""trial"":1,""time"":2044}]",NA,1015.0999999642372,static/audio/instructions3.wav,NA,0,NA,NA,NA,NA,NA,NA,NA,NA,NA,NA,NA,NA,NA,NA,NA,NA,NA,NA,NA,NA,NA,NA,NA,NA,NA
audio-instructions,22,178600,0.0-5.1-3.1,voc_e2,12148,"[{""event"":""fullscreenenter"",""trial"":1,""time"":2044}]",NA,986.5,static/audio/instructions4.wav,NA,0,NA,NA,NA,NA,NA,NA,NA,NA,NA,NA,NA,NA,NA,NA,NA,NA,NA,NA,NA,NA,NA,NA,NA,NA,NA
audio-instructions,23,188449,0.0-5.1-4.1,voc_e2,12148,"[{""event"":""fullscreenenter"",""trial"":1,""time"":2044}]",NA,462.199999988079,static/audio/instructions5.wav,NA,0,NA,NA,NA,NA,NA,NA,NA,NA,NA,NA,NA,NA,NA,NA,NA,NA,NA,NA,NA,NA,NA,NA,NA,NA,NA
fcp-practice,24,190690,0.0-5.1-5.1-0.1,voc_e2,12148,"[{""event"":""fullscreenenter"",""trial"":1,""time"":2044}]",NA,NA,NA,NA,NA,NA,#EDC948,#46d3c8,10,0,1,null,null,null,37,1,732.6999999880791,10,1,practice,NA,NA,NA,NA,NA,NA,NA,NA,NA,NA
fcp-practice,25,192474,0.0-5.1-5.1-1.1,voc_e2,12148,"[{""event"":""fullscreenenter"",""trial"":1,""time"":2044}]",NA,NA,NA,NA,NA,NA,#EDC948,#46d3c8,10,0,1,null,null,null,37,1,278.10000002384186,10,1,practice,NA,NA,NA,NA,NA,NA,NA,NA,NA,NA
fcp-practice,26,194481,0.0-5.1-5.1-2.1,voc_e2,12148,"[{""event"":""fullscreenenter"",""trial"":1,""time"":2044}]",NA,NA,NA,NA,NA,NA,#EDC948,#46d3c8,0,10,1,null,null,null,37,1,501.199999988079,0,1,practice,NA,NA,NA,NA,NA,NA,NA,NA,NA,NA
fcp-practice,27,197140,0.0-5.1-5.1-3.1,voc_e2,12148,"[{""event"":""fullscreenenter"",""trial"":1,""time"":2044}]",NA,NA,NA,NA,NA,NA,#EDC948,#46d3c8,10,0,1,null,null,null,37,1,1150.800000011921,10,1,practice,NA,NA,NA,NA,NA,NA,NA,NA,NA,NA
fcp-practice,28,200571,0.0-5.1-5.1-4.1,voc_e2,12148,"[{""event"":""fullscreenenter"",""trial"":1,""time"":2044}]",NA,NA,NA,NA,NA,NA,#EDC948,#46d3c8,10,0,1,null,null,null,37,1,1924.5999999642372,10,1,practice,NA,NA,NA,NA,NA,NA,NA,NA,NA,NA
audio-instructions,29,220050,0.0-5.1-6.1,voc_e2,12148,"[{""event"":""fullscreenenter"",""trial"":1,""time"":2044}]",NA,1471.100000023842,static/audio/instructions6.wav,NA,0,NA,NA,NA,NA,NA,NA,NA,NA,NA,NA,NA,NA,NA,NA,NA,NA,NA,NA,NA,NA,NA,NA,NA,NA,NA
audio-instructions,30,240395,0.0-5.1-7.1,voc_e2,12148,"[{""event"":""fullscreenenter"",""trial"":1,""time"":2044}]",NA,1144.600000023842,static/audio/instructions7.wav,NA,0,NA,NA,NA,NA,NA,NA,NA,NA,NA,NA,NA,NA,NA,NA,NA,NA,NA,NA,NA,NA,NA,NA,NA,NA,NA
audio-instructions,31,250382,0.0-5.1-8.1,voc_e2,12148,"[{""event"":""fullscreenenter"",""trial"":1,""time"":2044}]",NA,512.8999999761581,static/audio/instructions8.wav,NA,0,NA,NA,NA,NA,NA,NA,NA,NA,NA,NA,NA,NA,NA,NA,NA,NA,NA,NA,NA,NA,NA,NA,NA,NA,NA
fcp-comprehension,32,263886,0.0-5.1-9.1,voc_e2,12148,"[{""event"":""fullscreenenter"",""trial"":1,""time"":2044}]",NA,13502.899999976158,NA,NA,NA,NA,NA,NA,NA,NA,NA,NA,NA,NA,NA,NA,NA,NA,NA,NA,"true,true",0,NA,NA,NA,NA,NA,NA,NA,NA
audio-instructions,33,271908,0.0-6.0-0.0,voc_e2,12148,"[{""event"":""fullscreenenter"",""trial"":1,""time"":2044}]",NA,2476.099999964237,static/audio/instructions9.wav,NA,0,NA,NA,NA,NA,NA,NA,NA,NA,NA,NA,NA,NA,NA,NA,NA,NA,NA,NA,NA,NA,NA,NA,NA,NA,NA
audio-instructions,34,284810,0.0-6.0-1.0,voc_e2,12148,"[{""event"":""fullscreenenter"",""trial"":1,""time"":2044}]",NA,786,static/audio/instructions10.wav,NA,0,NA,NA,NA,NA,NA,NA,NA,NA,NA,NA,NA,NA,NA,NA,NA,NA,NA,NA,NA,NA,NA,NA,NA,NA,NA
fcp-trial,35,293149,0.0-6.0-2.0,voc_e2,12148,"[{""event"":""fullscreenenter"",""trial"":1,""time"":2044}]",NA,NA,NA,NA,NA,0,#EDC948,#46d3c8,10,10,1,38,1,4954,39,0,1868,10,0,practice,NA,NA,NA,NA,NA,NA,NA,NA,NA,NA
audio-instructions,36,305029,0.0-6.0-3.0,voc_e2,12148,"[{""event"":""fullscreenenter"",""trial"":1,""time"":2044}]",NA,871.8000000119209,static/audio/instructions11.wav,NA,0,NA,NA,NA,NA,NA,NA,NA,NA,NA,NA,NA,NA,NA,NA,NA,NA,NA,NA,NA,NA,NA,NA,NA,NA,NA
fcp-trial,37,309226,0.0-6.0-4.0,voc_e2,12148,"[{""event"":""fullscreenenter"",""trial"":1,""time"":2044}]",NA,NA,NA,NA,NA,6,#EDC948,#46d3c8,10,10,1,40,0,1396.5,39,0,1290.899999976158,10,0,practice,NA,NA,NA,NA,NA,NA,NA,NA,NA,NA
audio-instructions,38,328934,0.0-6.0-5.0,voc_e2,12148,"[{""event"":""fullscreenenter"",""trial"":1,""time"":2044}]",NA,1016.1999999880792,static/audio/instructions12.wav,NA,0,NA,NA,NA,NA,NA,NA,NA,NA,NA,NA,NA,NA,NA,NA,NA,NA,NA,NA,NA,NA,NA,NA,NA,NA,NA
audio-instructions,39,337936,0.0-6.0-6.0,voc_e2,12148,"[{""event"":""fullscreenenter"",""trial"":1,""time"":2044}]",NA,1404.7999999523165,static/audio/instructions13.wav,NA,0,NA,NA,NA,NA,NA,NA,NA,NA,NA,NA,NA,NA,NA,NA,NA,NA,NA,NA,NA,NA,NA,NA,NA,NA,NA
audio-instructions,40,347123,0.0-6.0-7.0,voc_e2,12148,"[{""event"":""fullscreenenter"",""trial"":1,""time"":2044}]",NA,736.3000000119209,static/audio/instructions14.wav,NA,0,NA,NA,NA,NA,NA,NA,NA,NA,NA,NA,NA,NA,NA,NA,NA,NA,NA,NA,NA,NA,NA,NA,NA,NA,NA
audio-instructions,41,355052,0.0-7.0-0.0,voc_e2,12148,"[{""event"":""fullscreenenter"",""trial"":1,""time"":2044}]",NA,1017,static/audio/instructions15.wav,NA,0,NA,NA,NA,NA,NA,NA,NA,NA,NA,NA,NA,NA,NA,NA,NA,NA,NA,NA,NA,NA,NA,NA,NA,NA,NA
audio-instructions,42,362761,0.0-7.0-1.0,voc_e2,12148,"[{""event"":""fullscreenenter"",""trial"":1,""time"":2044}]",NA,881.5,static/audio/instructions16.wav,NA,0,NA,NA,NA,NA,NA,NA,NA,NA,NA,NA,NA,NA,NA,NA,NA,NA,NA,NA,NA,NA,NA,NA,NA,NA,NA
audio-instructions,43,371451,0.0-7.0-2.0,voc_e2,12148,"[{""event"":""fullscreenenter"",""trial"":1,""time"":2044}]",NA,1011.1999999880792,static/audio/instructions17.wav,NA,0,NA,NA,NA,NA,NA,NA,NA,NA,NA,NA,NA,NA,NA,NA,NA,NA,NA,NA,NA,NA,NA,NA,NA,NA,NA
audio-instructions,44,379928,0.0-7.0-3.0,voc_e2,12148,"[{""event"":""fullscreenenter"",""trial"":1,""time"":2044}]",NA,709.3000000119209,static/audio/instructions18.wav,NA,0,NA,NA,NA,NA,NA,NA,NA,NA,NA,NA,NA,NA,NA,NA,NA,NA,NA,NA,NA,NA,NA,NA,NA,NA,NA
audio-instructions,45,387043,0.0-7.0-4.0,voc_e2,12148,"[{""event"":""fullscreenenter"",""trial"":1,""time"":2044}]",NA,374,static/audio/instructions19.wav,NA,0,NA,NA,NA,NA,NA,NA,NA,NA,NA,NA,NA,NA,NA,NA,NA,NA,NA,NA,NA,NA,NA,NA,NA,NA,NA
fcp-comprehension,46,407743,0.0-7.0-5.0,voc_e2,12148,"[{""event"":""fullscreenenter"",""trial"":1,""time"":2044}]",NA,20697.69999998808,NA,NA,NA,NA,NA,NA,NA,NA,NA,NA,NA,NA,NA,NA,NA,NA,NA,NA,"false,false,false,true",0,NA,NA,NA,NA,NA,NA,NA,NA
audio-instructions,47,419954,0.0-8.0,voc_e2,12148,"[{""event"":""fullscreenenter"",""trial"":1,""time"":2044}]",NA,2991.900000035763,static/audio/ready.wav,NA,0,NA,NA,NA,NA,NA,NA,NA,NA,NA,NA,NA,NA,NA,NA,NA,NA,NA,NA,NA,NA,NA,NA,NA,NA,NA
fcp-trial,48,426428,0.0-9.0-0.0,voc_e2,12148,"[{""event"":""fullscreenenter"",""trial"":1,""time"":2044}]",NA,NA,NA,NA,NA,0,#FA92F8,#1CD855,0,10,0,38,1,2082.7999999523163,39,0,2880.2999999523163,10,1,experiment,NA,NA,0,0.1,0.9,1,0,1,1,NA
fcp-trial,49,431988,0.0-10.0-0.0,voc_e2,12148,"[{""event"":""fullscreenenter"",""trial"":1,""time"":2044}]",NA,NA,NA,NA,NA,3,#FA92F8,#1CD855,0,10,0,40,0,2553.599999964237,37,1,1498.0999999642372,0,0,experiment,NA,NA,0,0.1,0.9,1,0,2,1,NA
fcp-trial,50,435982,0.0-11.0-0.0,voc_e2,12148,"[{""event"":""fullscreenenter"",""trial"":1,""time"":2044}]",NA,NA,NA,NA,NA,5,#D8271C,#741CD8,10,10,1,38,1,1934.800000011921,39,0,549.6000000238419,10,0,experiment,NA,NA,2,0.5,0.5,4,5,3,1,NA
fcp-trial,51,439537,0.0-12.0-0.0,voc_e2,12148,"[{""event"":""fullscreenenter"",""trial"":1,""time"":2044}]",NA,NA,NA,NA,NA,1,#D8271C,#741CD8,10,0,1,38,1,1595.199999988079,39,0,452.7999999523163,0,0,experiment,NA,NA,2,0.5,0.5,4,5,4,1,NA
fcp-trial,52,444260,0.0-13.0-0.0,voc_e2,12148,"[{""event"":""fullscreenenter"",""trial"":1,""time"":2044}]",NA,NA,NA,NA,NA,2,#3386FF,#D89F1C,10,0,0,38,1,2034.3999999761581,37,1,1178.699999988079,10,0,experiment,NA,NA,1,0.3,0.7,3,2,5,1,NA
fcp-trial,53,448228,0.0-14.0-0.0,voc_e2,12148,"[{""event"":""fullscreenenter"",""trial"":1,""time"":2044}]",NA,NA,NA,NA,NA,5,#FA92F8,#1CD855,0,10,0,38,1,1873.699999988079,39,0,585.3999999761581,10,1,experiment,NA,NA,0,0.1,0.9,1,0,6,1,NA
fcp-trial,54,451648,0.0-15.0-0.0,voc_e2,12148,"[{""event"":""fullscreenenter"",""trial"":1,""time"":2044}]",NA,NA,NA,NA,NA,6,#741CD8,#D8271C,0,0,0,38,1,1074.699999988079,37,1,836.9000000357628,0,0,experiment,NA,NA,2,0.5,0.5,5,4,7,1,NA
fcp-trial,55,454796,0.0-16.0-0.0,voc_e2,12148,"[{""event"":""fullscreenenter"",""trial"":1,""time"":2044}]",NA,NA,NA,NA,NA,0,#3386FF,#D89F1C,10,10,0,38,1,1027.1000000238419,37,1,609.8000000119209,10,0,experiment,NA,NA,1,0.3,0.7,3,2,8,1,NA
fcp-trial,56,457444,0.0-17.0-0.0,voc_e2,12148,"[{""event"":""fullscreenenter"",""trial"":1,""time"":2044}]",NA,NA,NA,NA,NA,3,#741CD8,#D8271C,0,0,0,38,1,722.2999999523163,39,0,416,0,1,experiment,NA,NA,2,0.5,0.5,5,4,9,1,NA
fcp-trial,57,460482,0.0-18.0-0.0,voc_e2,12148,"[{""event"":""fullscreenenter"",""trial"":1,""time"":2044}]",NA,NA,NA,NA,NA,4,#D8271C,#741CD8,10,0,1,38,1,1020.5,37,1,509.9000000357628,10,1,experiment,NA,NA,2,0.5,0.5,4,5,10,1,NA
fcp-trial,58,463412,0.0-19.0-0.0,voc_e2,12148,"[{""event"":""fullscreenenter"",""trial"":1,""time"":2044}]",NA,NA,NA,NA,NA,1,#FA92F8,#1CD855,0,10,0,38,1,1015.8000000119209,39,0,403.89999997615814,10,1,experiment,NA,NA,0,0.1,0.9,1,0,11,1,NA
fcp-trial,59,466293,0.0-20.0-0.0,voc_e2,12148,"[{""event"":""fullscreenenter"",""trial"":1,""time"":2044}]",NA,NA,NA,NA,NA,5,#D89F1C,#3386FF,10,0,1,38,1,976.5999999642372,39,0,397.199999988079,0,0,experiment,NA,NA,1,0.7,0.3,2,3,12,1,NA
fcp-trial,60,469854,0.0-21.0-0.0,voc_e2,12148,"[{""event"":""fullscreenenter"",""trial"":1,""time"":2044}]",NA,NA,NA,NA,NA,1,#D89F1C,#3386FF,10,10,1,38,1,1632.699999988079,39,0,421,10,0,experiment,NA,NA,1,0.7,0.3,2,3,13,1,NA
fcp-trial,61,473089,0.0-22.0-0.0,voc_e2,12148,"[{""event"":""fullscreenenter"",""trial"":1,""time"":2044}]",NA,NA,NA,NA,NA,2,#D8271C,#741CD8,0,0,1,38,1,1003.1999999880791,37,1,724.1999999880791,0,1,experiment,NA,NA,2,0.5,0.5,4,5,14,1,NA
fcp-trial,62,476420,0.0-23.0-0.0,voc_e2,12148,"[{""event"":""fullscreenenter"",""trial"":1,""time"":2044}]",NA,NA,NA,NA,NA,4,#1CD855,#FA92F8,10,0,1,38,1,1391.3999999761581,37,1,431.699999988079,10,1,experiment,NA,NA,0,0.9,0.1,0,1,15,1,NA
fcp-trial,63,479204,0.0-24.0-0.0,voc_e2,12148,"[{""event"":""fullscreenenter"",""trial"":1,""time"":2044}]",NA,NA,NA,NA,NA,2,#FA92F8,#1CD855,0,10,0,38,1,836.2999999523163,39,0,439.800000011921,10,1,experiment,NA,NA,0,0.1,0.9,1,0,16,1,NA
fcp-trial,64,481930,0.0-25.0-0.0,voc_e2,12148,"[{""event"":""fullscreenenter"",""trial"":1,""time"":2044}]",NA,NA,NA,NA,NA,4,#D89F1C,#3386FF,10,0,1,38,1,863.5,39,0,354.5,0,0,experiment,NA,NA,1,0.7,0.3,2,3,17,1,NA
fcp-trial,65,484528,0.0-26.0-0.0,voc_e2,12148,"[{""event"":""fullscreenenter"",""trial"":1,""time"":2044}]",NA,NA,NA,NA,NA,3,#D89F1C,#3386FF,10,0,1,38,1,709.1999999880791,39,0,379.5,0,0,experiment,NA,NA,1,0.7,0.3,2,3,18,1,NA
fcp-trial,66,487567,0.0-27.0-0.0,voc_e2,12148,"[{""event"":""fullscreenenter"",""trial"":1,""time"":2044}]",NA,NA,NA,NA,NA,0,#D8271C,#741CD8,0,10,1,38,1,534,39,0,998.5,10,0,experiment,NA,NA,2,0.5,0.5,4,5,19,1,NA
fcp-trial,67,490385,0.0-28.0-0.0,voc_e2,12148,"[{""event"":""fullscreenenter"",""trial"":1,""time"":2044}]",NA,NA,NA,NA,NA,6,#D89F1C,#3386FF,10,0,1,38,1,826.1999999880791,39,0,484.89999997615814,0,0,experiment,NA,NA,1,0.7,0.3,2,3,20,1,NA
fcp-trial,68,493004,0.0-29.0-0.0,voc_e2,12148,"[{""event"":""fullscreenenter"",""trial"":1,""time"":2044}]",NA,NA,NA,NA,NA,6,#1CD855,#FA92F8,10,0,1,38,1,673.5,37,1,438.5999999642372,10,1,experiment,NA,NA,0,0.9,0.1,0,1,21,1,NA
fcp-trial,69,496653,0.0-30.0-0.0,voc_e2,12148,"[{""event"":""fullscreenenter"",""trial"":1,""time"":2044}]",NA,NA,NA,NA,NA,0,#3386FF,#D89F1C,0,0,0,38,1,1806.800000011921,39,0,335.5999999642372,0,1,experiment,NA,NA,1,0.3,0.7,3,2,22,1,NA
fcp-trial,70,499722,0.0-31.0-0.0,voc_e2,12148,"[{""event"":""fullscreenenter"",""trial"":1,""time"":2044}]",NA,NA,NA,NA,NA,3,#3386FF,#D89F1C,0,10,0,38,1,1141.2000000476837,39,0,420.7000000476837,10,1,experiment,NA,NA,1,0.3,0.7,3,2,23,1,NA
fcp-trial,71,502504,0.0-32.0-0.0,voc_e2,12148,"[{""event"":""fullscreenenter"",""trial"":1,""time"":2044}]",NA,NA,NA,NA,NA,1,#1CD855,#FA92F8,10,10,1,38,1,886.6000000238419,37,1,388.199999988079,10,1,experiment,NA,NA,0,0.9,0.1,0,1,24,1,NA
fcp-trial,72,505010,0.0-33.0-0.0,voc_e2,12148,"[{""event"":""fullscreenenter"",""trial"":1,""time"":2044}]",NA,NA,NA,NA,NA,2,#D89F1C,#3386FF,0,0,1,38,1,572.6000000238419,39,0,426.5,0,0,experiment,NA,NA,1,0.7,0.3,2,3,25,1,NA
fcp-trial,73,507764,0.0-34.0-0.0,voc_e2,12148,"[{""event"":""fullscreenenter"",""trial"":1,""time"":2044}]",NA,NA,NA,NA,NA,6,#FA92F8,#1CD855,10,10,0,38,1,653.3999999761581,39,0,592.8000000119209,10,1,experiment,NA,NA,0,0.1,0.9,1,0,26,1,NA
fcp-trial,74,510221,0.0-35.0-0.0,voc_e2,12148,"[{""event"":""fullscreenenter"",""trial"":1,""time"":2044}]",NA,NA,NA,NA,NA,2,#1CD855,#FA92F8,10,0,1,38,1,574,37,1,375.9000000357628,10,1,experiment,NA,NA,0,0.9,0.1,0,1,27,1,NA
fcp-trial,75,512972,0.0-36.0-0.0,voc_e2,12148,"[{""event"":""fullscreenenter"",""trial"":1,""time"":2044}]",NA,NA,NA,NA,NA,4,#D89F1C,#3386FF,0,0,1,38,1,844.6000000238419,39,0,399.5,0,0,experiment,NA,NA,1,0.7,0.3,2,3,28,1,NA
fcp-trial,76,516513,0.0-37.0-0.0,voc_e2,12148,"[{""event"":""fullscreenenter"",""trial"":1,""time"":2044}]",NA,NA,NA,NA,NA,1,#3386FF,#D89F1C,10,10,0,38,1,860,37,1,1173.399999976158,10,0,experiment,NA,NA,1,0.3,0.7,3,2,29,1,NA
fcp-trial,77,520179,0.0-38.0-0.0,voc_e2,12148,"[{""event"":""fullscreenenter"",""trial"":1,""time"":2044}]",NA,NA,NA,NA,NA,4,#741CD8,#D8271C,0,0,0,38,1,701.6000000238419,37,1,1453.9000000357628,0,0,experiment,NA,NA,2,0.5,0.5,5,4,30,1,NA
fcp-trial,78,523255,0.0-39.0-0.0,voc_e2,12148,"[{""event"":""fullscreenenter"",""trial"":1,""time"":2044}]",NA,NA,NA,NA,NA,5,#FA92F8,#1CD855,0,10,0,38,1,882.5,39,0,687.1000000238419,10,1,experiment,NA,NA,0,0.1,0.9,1,0,31,1,NA
fcp-trial,79,526362,0.0-40.0-0.0,voc_e2,12148,"[{""event"":""fullscreenenter"",""trial"":1,""time"":2044}]",NA,NA,NA,NA,NA,5,#741CD8,#D8271C,0,10,0,38,1,1063.800000011921,37,1,533.5,0,0,experiment,NA,NA,2,0.5,0.5,5,4,32,1,NA
fcp-trial,80,528904,0.0-41.0-0.0,voc_e2,12148,"[{""event"":""fullscreenenter"",""trial"":1,""time"":2044}]",NA,NA,NA,NA,NA,4,#1CD855,#FA92F8,10,0,1,38,1,669.8999999761581,37,1,364.800000011921,10,1,experiment,NA,NA,0,0.9,0.1,0,1,33,1,NA
fcp-trial,81,531504,0.0-42.0-0.0,voc_e2,12148,"[{""event"":""fullscreenenter"",""trial"":1,""time"":2044}]",NA,NA,NA,NA,NA,6,#D89F1C,#3386FF,0,0,1,38,1,511.69999998807907,37,1,580.6999999880791,0,1,experiment,NA,NA,1,0.7,0.3,2,3,34,1,NA
fcp-trial,82,534251,0.0-43.0-0.0,voc_e2,12148,"[{""event"":""fullscreenenter"",""trial"":1,""time"":2044}]",NA,NA,NA,NA,NA,3,#FA92F8,#1CD855,10,10,0,38,1,772,39,0,466.10000002384186,10,1,experiment,NA,NA,0,0.1,0.9,1,0,35,1,NA
fcp-trial,83,536771,0.0-44.0-0.0,voc_e2,12148,"[{""event"":""fullscreenenter"",""trial"":1,""time"":2044}]",NA,NA,NA,NA,NA,3,#D8271C,#741CD8,10,10,1,38,1,693.9000000357628,37,1,317.4000000357628,10,1,experiment,NA,NA,2,0.5,0.5,4,5,36,1,NA
fcp-trial,84,539536,0.0-45.0-0.0,voc_e2,12148,"[{""event"":""fullscreenenter"",""trial"":1,""time"":2044}]",NA,NA,NA,NA,NA,1,#741CD8,#D8271C,10,10,0,38,1,843.6000000238419,39,0,414.10000002384186,10,1,experiment,NA,NA,2,0.5,0.5,5,4,37,1,NA
fcp-trial,85,542287,0.0-46.0-0.0,voc_e2,12148,"[{""event"":""fullscreenenter"",""trial"":1,""time"":2044}]",NA,NA,NA,NA,NA,5,#D89F1C,#3386FF,0,0,1,38,1,728.1000000238419,39,0,515.5,0,0,experiment,NA,NA,1,0.7,0.3,2,3,38,1,NA
fcp-trial,86,544922,0.0-47.0-0.0,voc_e2,12148,"[{""event"":""fullscreenenter"",""trial"":1,""time"":2044}]",NA,NA,NA,NA,NA,0,#FA92F8,#1CD855,0,10,0,38,1,794.6000000238419,39,0,332.89999997615814,10,1,experiment,NA,NA,0,0.1,0.9,1,0,39,1,NA
fcp-trial,87,548031,0.0-48.0-0.0,voc_e2,12148,"[{""event"":""fullscreenenter"",""trial"":1,""time"":2044}]",NA,NA,NA,NA,NA,0,#D8271C,#741CD8,10,10,1,38,1,676.6999999880791,37,1,924.600000023842,10,1,experiment,NA,NA,2,0.5,0.5,4,5,40,1,NA
fcp-trial,88,552488,0.0-49.0-0.0,voc_e2,12148,"[{""event"":""fullscreenenter"",""trial"":1,""time"":2044}]",NA,NA,NA,NA,NA,6,#741CD8,#D8271C,10,10,0,40,0,1905,39,0,1042.199999988079,10,1,experiment,NA,NA,2,0.5,0.5,5,4,41,1,NA
fcp-trial,89,556059,0.0-50.0-0.0,voc_e2,12148,"[{""event"":""fullscreenenter"",""trial"":1,""time"":2044}]",NA,NA,NA,NA,NA,2,#741CD8,#D8271C,0,10,0,38,1,1444.5,39,0,618,10,1,experiment,NA,NA,2,0.5,0.5,5,4,42,1,NA
fcp-trial,90,559130,0.0-51.0-0.0,voc_e2,12148,"[{""event"":""fullscreenenter"",""trial"":1,""time"":2044}]",NA,NA,NA,NA,NA,3,#741CD8,#D8271C,10,10,0,38,1,807.8000000119209,39,0,754.8000000119209,10,1,experiment,NA,NA,2,0.5,0.5,5,4,43,1,NA
fcp-trial,91,561759,0.0-52.0-0.0,voc_e2,12148,"[{""event"":""fullscreenenter"",""trial"":1,""time"":2044}]",NA,NA,NA,NA,NA,1,#1CD855,#FA92F8,10,0,1,38,1,726.3999999761581,37,1,392.5999999642372,10,1,experiment,NA,NA,0,0.9,0.1,0,1,44,1,NA
fcp-trial,92,564379,0.0-53.0-0.0,voc_e2,12148,"[{""event"":""fullscreenenter"",""trial"":1,""time"":2044}]",NA,NA,NA,NA,NA,6,#1CD855,#FA92F8,10,0,1,38,1,633.1000000238419,37,1,478.60000002384186,10,1,experiment,NA,NA,0,0.9,0.1,0,1,45,1,NA
fcp-trial,93,567521,0.0-54.0-0.0,voc_e2,12148,"[{""event"":""fullscreenenter"",""trial"":1,""time"":2044}]",NA,NA,NA,NA,NA,3,#3386FF,#D89F1C,10,0,0,38,1,1219.8999999761581,37,1,413.39999997615814,10,0,experiment,NA,NA,1,0.3,0.7,3,2,46,2,NA
fcp-trial,94,570114,0.0-55.0-0.0,voc_e2,12148,"[{""event"":""fullscreenenter"",""trial"":1,""time"":2044}]",NA,NA,NA,NA,NA,0,#1CD855,#FA92F8,10,0,1,38,1,745,37,1,341,10,1,experiment,NA,NA,0,0.9,0.1,0,1,47,2,NA
fcp-trial,95,572822,0.0-56.0-0.0,voc_e2,12148,"[{""event"":""fullscreenenter"",""trial"":1,""time"":2044}]",NA,NA,NA,NA,NA,1,#741CD8,#D8271C,0,0,0,38,1,632.3000000119209,39,0,566.6999999880791,0,1,experiment,NA,NA,2,0.5,0.5,5,4,48,2,NA
fcp-trial,96,576061,0.0-57.0-0.0,voc_e2,12148,"[{""event"":""fullscreenenter"",""trial"":1,""time"":2044}]",NA,NA,NA,NA,NA,3,#FA92F8,#1CD855,0,10,0,38,1,1305.199999988079,39,0,426.10000002384186,10,1,experiment,NA,NA,0,0.1,0.9,1,0,49,2,NA
fcp-trial,97,579790,0.0-58.0-0.0,voc_e2,12148,"[{""event"":""fullscreenenter"",""trial"":1,""time"":2044}]",NA,NA,NA,NA,NA,4,#D8271C,#741CD8,0,0,1,38,1,1770.9000000357628,37,1,451.800000011921,0,1,experiment,NA,NA,2,0.5,0.5,4,5,50,2,NA
fcp-trial,98,584311,0.0-59.0-0.0,voc_e2,12148,"[{""event"":""fullscreenenter"",""trial"":1,""time"":2044}]",NA,NA,NA,NA,NA,6,#3386FF,#D89F1C,0,0,0,40,0,2157.800000011921,37,1,855.1000000238419,0,0,experiment,NA,NA,1,0.3,0.7,3,2,51,2,NA
fcp-trial,99,587995,0.0-60.0-0.0,voc_e2,12148,"[{""event"":""fullscreenenter"",""trial"":1,""time"":2044}]",NA,NA,NA,NA,NA,5,#3386FF,#D89F1C,0,10,0,38,1,1777.9000000357628,37,1,397.60000002384186,0,0,experiment,NA,NA,1,0.3,0.7,3,2,52,2,NA
fcp-trial,100,591097,0.0-61.0-0.0,voc_e2,12148,"[{""event"":""fullscreenenter"",""trial"":1,""time"":2044}]",NA,NA,NA,NA,NA,2,#FA92F8,#1CD855,0,10,0,38,1,1220,39,0,374.5,10,1,experiment,NA,NA,0,0.1,0.9,1,0,53,2,NA
fcp-trial,101,594100,0.0-62.0-0.0,voc_e2,12148,"[{""event"":""fullscreenenter"",""trial"":1,""time"":2044}]",NA,NA,NA,NA,NA,2,#D89F1C,#3386FF,10,10,1,38,1,972.8000000119209,39,0,521.6999999880791,10,0,experiment,NA,NA,1,0.7,0.3,2,3,54,2,NA
fcp-trial,102,596668,0.0-63.0-0.0,voc_e2,12148,"[{""event"":""fullscreenenter"",""trial"":1,""time"":2044}]",NA,NA,NA,NA,NA,6,#D8271C,#741CD8,0,0,1,38,1,645.3999999761581,37,1,412.800000011921,0,1,experiment,NA,NA,2,0.5,0.5,4,5,55,2,NA
fcp-trial,103,599113,0.0-64.0-0.0,voc_e2,12148,"[{""event"":""fullscreenenter"",""trial"":1,""time"":2044}]",NA,NA,NA,NA,NA,4,#1CD855,#FA92F8,10,0,1,38,1,603.8999999761581,37,1,331.5,10,1,experiment,NA,NA,0,0.9,0.1,0,1,56,2,NA
fcp-trial,104,601539,0.0-65.0-0.0,voc_e2,12148,"[{""event"":""fullscreenenter"",""trial"":1,""time"":2044}]",NA,NA,NA,NA,NA,1,#D89F1C,#3386FF,10,0,1,38,1,635.8000000119209,39,0,282.39999997615814,0,0,experiment,NA,NA,1,0.7,0.3,2,3,57,2,NA
fcp-trial,105,604280,0.0-66.0-0.0,voc_e2,12148,"[{""event"":""fullscreenenter"",""trial"":1,""time"":2044}]",NA,NA,NA,NA,NA,4,#3386FF,#D89F1C,0,0,0,38,1,446.80000001192093,37,1,787.0999999642372,0,0,experiment,NA,NA,1,0.3,0.7,3,2,58,2,NA
fcp-trial,106,607072,0.0-67.0-0.0,voc_e2,12148,"[{""event"":""fullscreenenter"",""trial"":1,""time"":2044}]",NA,NA,NA,NA,NA,5,#D8271C,#741CD8,10,0,1,38,1,717.6999999880791,37,1,565.8999999761581,10,1,experiment,NA,NA,2,0.5,0.5,4,5,59,2,NA
fcp-trial,107,610044,0.0-68.0-0.0,voc_e2,12148,"[{""event"":""fullscreenenter"",""trial"":1,""time"":2044}]",NA,NA,NA,NA,NA,5,#FA92F8,#1CD855,0,10,0,38,1,1142.7999999523163,39,0,320.60000002384186,10,1,experiment,NA,NA,0,0.1,0.9,1,0,60,2,NA
fcp-trial,108,614280,0.0-69.0-0.0,voc_e2,12148,"[{""event"":""fullscreenenter"",""trial"":1,""time"":2044}]",NA,NA,NA,NA,NA,2,#D8271C,#741CD8,10,10,1,38,1,755.5,37,1,1970.399999976158,10,1,experiment,NA,NA,2,0.5,0.5,4,5,61,2,NA
fcp-trial,109,616828,0.0-70.0-0.0,voc_e2,12148,"[{""event"":""fullscreenenter"",""trial"":1,""time"":2044}]",NA,NA,NA,NA,NA,0,#D89F1C,#3386FF,10,10,1,38,1,698.8000000119209,39,0,339.2999999523163,10,0,experiment,NA,NA,1,0.7,0.3,2,3,62,2,NA
fcp-trial,110,620009,0.0-71.0-0.0,voc_e2,12148,"[{""event"":""fullscreenenter"",""trial"":1,""time"":2044}]",NA,NA,NA,NA,NA,0,#D8271C,#741CD8,10,0,1,38,1,1260.2999999523163,37,1,411,10,1,experiment,NA,NA,2,0.5,0.5,4,5,63,2,NA
fcp-trial,111,623898,0.0-72.0-0.0,voc_e2,12148,"[{""event"":""fullscreenenter"",""trial"":1,""time"":2044}]",NA,NA,NA,NA,NA,5,#D8271C,#741CD8,0,10,1,38,1,1762.3999999761581,37,1,616.1999999880791,0,1,experiment,NA,NA,2,0.5,0.5,4,5,64,2,NA
fcp-trial,112,626700,0.0-73.0-0.0,voc_e2,12148,"[{""event"":""fullscreenenter"",""trial"":1,""time"":2044}]",NA,NA,NA,NA,NA,2,#741CD8,#D8271C,10,0,0,38,1,885.8000000119209,39,0,407.4000000357628,0,1,experiment,NA,NA,2,0.5,0.5,5,4,65,2,NA
fcp-trial,113,629333,0.0-74.0-0.0,voc_e2,12148,"[{""event"":""fullscreenenter"",""trial"":1,""time"":2044}]",NA,NA,NA,NA,NA,0,#741CD8,#D8271C,10,10,0,38,1,767.2999999523163,39,0,357.30000001192093,10,1,experiment,NA,NA,2,0.5,0.5,5,4,66,2,NA
fcp-trial,114,632245,0.0-75.0-0.0,voc_e2,12148,"[{""event"":""fullscreenenter"",""trial"":1,""time"":2044}]",NA,NA,NA,NA,NA,1,#3386FF,#D89F1C,0,10,0,38,1,1071.300000011921,37,1,331.80000001192093,0,0,experiment,NA,NA,1,0.3,0.7,3,2,67,2,NA
fcp-trial,115,635821,0.0-76.0-0.0,voc_e2,12148,"[{""event"":""fullscreenenter"",""trial"":1,""time"":2044}]",NA,NA,NA,NA,NA,2,#FA92F8,#1CD855,0,10,0,38,1,1669.5,39,0,394.9000000357628,10,1,experiment,NA,NA,0,0.1,0.9,1,0,68,2,NA
fcp-trial,116,638567,0.0-77.0-0.0,voc_e2,12148,"[{""event"":""fullscreenenter"",""trial"":1,""time"":2044}]",NA,NA,NA,NA,NA,3,#1CD855,#FA92F8,0,0,1,38,1,727.1000000238419,37,1,511,0,1,experiment,NA,NA,0,0.9,0.1,0,1,69,2,NA
fcp-trial,117,642678,0.0-78.0-0.0,voc_e2,12148,"[{""event"":""fullscreenenter"",""trial"":1,""time"":2044}]",NA,NA,NA,NA,NA,1,#D8271C,#741CD8,10,10,1,38,1,1861.300000011921,37,1,739.1999999880791,10,1,experiment,NA,NA,2,0.5,0.5,4,5,70,2,NA
fcp-trial,118,645838,0.0-79.0-0.0,voc_e2,12148,"[{""event"":""fullscreenenter"",""trial"":1,""time"":2044}]",NA,NA,NA,NA,NA,6,#FA92F8,#1CD855,0,0,0,38,1,897.1999999880791,39,0,754.1000000238419,0,1,experiment,NA,NA,0,0.1,0.9,1,0,71,2,NA
fcp-trial,119,652718,0.0-80.0-0.0,voc_e2,12148,"[{""event"":""fullscreenenter"",""trial"":1,""time"":2044}]",NA,NA,NA,NA,NA,6,#D89F1C,#3386FF,10,0,1,40,0,3747.399999976158,39,0,1623.699999988079,0,0,experiment,NA,NA,1,0.7,0.3,2,3,72,2,NA
fcp-trial,120,657050,0.0-81.0-0.0,voc_e2,12148,"[{""event"":""fullscreenenter"",""trial"":1,""time"":2044}]",NA,NA,NA,NA,NA,4,#3386FF,#D89F1C,10,10,0,38,1,2364.7000000476837,37,1,458.10000002384186,10,0,experiment,NA,NA,1,0.3,0.7,3,2,73,2,NA
fcp-trial,121,661073,0.0-82.0-0.0,voc_e2,12148,"[{""event"":""fullscreenenter"",""trial"":1,""time"":2044}]",NA,NA,NA,NA,NA,6,#D8271C,#741CD8,10,10,1,40,0,1982.800000011921,39,0,531.6999999880791,10,0,experiment,NA,NA,2,0.5,0.5,4,5,74,2,NA
fcp-trial,122,664268,0.0-83.0-0.0,voc_e2,12148,"[{""event"":""fullscreenenter"",""trial"":1,""time"":2044}]",NA,NA,NA,NA,NA,4,#1CD855,#FA92F8,10,0,1,38,1,1319.6000000238419,37,1,365.300000011921,10,1,experiment,NA,NA,0,0.9,0.1,0,1,75,2,NA
fcp-trial,123,668081,0.0-84.0-0.0,voc_e2,12148,"[{""event"":""fullscreenenter"",""trial"":1,""time"":2044}]",NA,NA,NA,NA,NA,3,#3386FF,#D89F1C,0,10,0,38,1,1954.9000000357628,37,1,349.10000002384186,0,0,experiment,NA,NA,1,0.3,0.7,3,2,76,2,NA
fcp-trial,124,670840,0.0-85.0-0.0,voc_e2,12148,"[{""event"":""fullscreenenter"",""trial"":1,""time"":2044}]",NA,NA,NA,NA,NA,0,#FA92F8,#1CD855,10,10,0,38,1,877.6999999880791,39,0,374.10000002384186,10,1,experiment,NA,NA,0,0.1,0.9,1,0,77,2,NA
fcp-trial,125,674063,0.0-86.0-0.0,voc_e2,12148,"[{""event"":""fullscreenenter"",""trial"":1,""time"":2044}]",NA,NA,NA,NA,NA,3,#741CD8,#D8271C,10,0,0,38,1,1077.300000011921,37,1,637.6999999880791,10,0,experiment,NA,NA,2,0.5,0.5,5,4,78,2,NA
fcp-trial,126,677027,0.0-87.0-0.0,voc_e2,12148,"[{""event"":""fullscreenenter"",""trial"":1,""time"":2044}]",NA,NA,NA,NA,NA,1,#1CD855,#FA92F8,10,0,1,38,1,1087.3999999761581,37,1,368.10000002384186,10,1,experiment,NA,NA,0,0.9,0.1,0,1,79,2,NA
fcp-trial,127,679724,0.0-88.0-0.0,voc_e2,12148,"[{""event"":""fullscreenenter"",""trial"":1,""time"":2044}]",NA,NA,NA,NA,NA,4,#D8271C,#741CD8,0,0,1,38,1,769.9000000357628,39,0,420.0999999642372,0,0,experiment,NA,NA,2,0.5,0.5,4,5,80,2,NA
fcp-trial,128,683034,0.0-89.0-0.0,voc_e2,12148,"[{""event"":""fullscreenenter"",""trial"":1,""time"":2044}]",NA,NA,NA,NA,NA,5,#3386FF,#D89F1C,0,0,0,38,1,1435.699999988079,37,1,365.60000002384186,0,0,experiment,NA,NA,1,0.3,0.7,3,2,81,2,NA
fcp-trial,129,685673,0.0-90.0-0.0,voc_e2,12148,"[{""event"":""fullscreenenter"",""trial"":1,""time"":2044}]",NA,NA,NA,NA,NA,5,#1CD855,#FA92F8,10,10,1,38,1,701.6999999880791,37,1,427.89999997615814,10,1,experiment,NA,NA,0,0.9,0.1,0,1,82,2,NA
fcp-trial,130,689175,0.0-91.0-0.0,voc_e2,12148,"[{""event"":""fullscreenenter"",""trial"":1,""time"":2044}]",NA,NA,NA,NA,NA,0,#3386FF,#D89F1C,10,10,0,38,1,1461.4000000357628,37,1,534,10,0,experiment,NA,NA,1,0.3,0.7,3,2,83,2,NA
fcp-trial,131,691835,0.0-92.0-0.0,voc_e2,12148,"[{""event"":""fullscreenenter"",""trial"":1,""time"":2044}]",NA,NA,NA,NA,NA,2,#D89F1C,#3386FF,0,0,1,38,1,453,39,0,698.4000000357628,0,0,experiment,NA,NA,1,0.7,0.3,2,3,84,2,NA
fcp-trial,132,695161,0.0-93.0-0.0,voc_e2,12148,"[{""event"":""fullscreenenter"",""trial"":1,""time"":2044}]",NA,NA,NA,NA,NA,5,#3386FF,#D89F1C,0,10,0,38,1,1141.199999988079,39,0,674.5,10,1,experiment,NA,NA,1,0.3,0.7,3,2,85,2,NA
fcp-trial,133,699674,0.0-94.0-0.0,voc_e2,12148,"[{""event"":""fullscreenenter"",""trial"":1,""time"":2044}]",NA,NA,NA,NA,NA,2,#3386FF,#D89F1C,0,0,0,38,1,2692,39,0,314.30000001192093,0,1,experiment,NA,NA,1,0.3,0.7,3,2,86,2,NA
fcp-trial,134,703670,0.0-95.0-0.0,voc_e2,12148,"[{""event"":""fullscreenenter"",""trial"":1,""time"":2044}]",NA,NA,NA,NA,NA,3,#D8271C,#741CD8,0,10,1,38,1,960.1000000238419,37,1,1528.199999988079,0,1,experiment,NA,NA,2,0.5,0.5,4,5,87,2,NA
fcp-trial,135,706791,0.0-96.0-0.0,voc_e2,12148,"[{""event"":""fullscreenenter"",""trial"":1,""time"":2044}]",NA,NA,NA,NA,NA,1,#1CD855,#FA92F8,0,10,1,38,1,1312.699999988079,37,1,298.2999999523163,0,1,experiment,NA,NA,0,0.9,0.1,0,1,88,2,NA
fcp-trial,136,709161,0.0-97.0-0.0,voc_e2,12148,"[{""event"":""fullscreenenter"",""trial"":1,""time"":2044}]",NA,NA,NA,NA,NA,0,#D8271C,#741CD8,10,10,1,38,1,579.3000000119209,39,0,282.69999998807907,10,0,experiment,NA,NA,2,0.5,0.5,4,5,89,2,NA
fcp-trial,137,711753,0.0-98.0-0.0,voc_e2,12148,"[{""event"":""fullscreenenter"",""trial"":1,""time"":2044}]",NA,NA,NA,NA,NA,4,#FA92F8,#1CD855,0,10,0,38,1,692.3000000119209,39,0,392.5,10,1,experiment,NA,NA,0,0.1,0.9,1,0,90,2,NA
fcp-trial,138,714661,0.0-99.0-0.0,voc_e2,12148,"[{""event"":""fullscreenenter"",""trial"":1,""time"":2044}]",NA,NA,NA,NA,NA,3,#3386FF,#D89F1C,0,0,0,38,1,613,37,1,785.1999999880791,0,0,experiment,NA,NA,1,0.3,0.7,3,2,91,3,NA
fcp-trial,139,718241,0.0-100.0-0.0,voc_e2,12148,"[{""event"":""fullscreenenter"",""trial"":1,""time"":2044}]",NA,NA,NA,NA,NA,0,#1CD855,#FA92F8,10,0,1,38,1,1028.300000011921,37,1,1043.5999999642372,10,1,experiment,NA,NA,0,0.9,0.1,0,1,92,3,NA
fcp-trial,140,721360,0.0-101.0-0.0,voc_e2,12148,"[{""event"":""fullscreenenter"",""trial"":1,""time"":2044}]",NA,NA,NA,NA,NA,4,#D8271C,#741CD8,10,10,1,38,1,1302.2999999523163,39,0,308.19999998807907,10,0,experiment,NA,NA,2,0.5,0.5,4,5,93,3,NA
fcp-trial,141,725677,0.0-102.0-0.0,voc_e2,12148,"[{""event"":""fullscreenenter"",""trial"":1,""time"":2044}]",NA,NA,NA,NA,NA,4,#3386FF,#D89F1C,0,10,0,38,1,1635.800000011921,39,0,1172.899999976158,10,1,experiment,NA,NA,1,0.3,0.7,3,2,94,3,NA
fcp-trial,142,731640,0.0-103.0-0.0,voc_e2,12148,"[{""event"":""fullscreenenter"",""trial"":1,""time"":2044}]",NA,NA,NA,NA,NA,6,#D8271C,#741CD8,10,0,1,38,1,4130.300000011921,39,0,325.5,0,0,experiment,NA,NA,2,0.5,0.5,4,5,95,3,NA
fcp-trial,143,735392,0.0-104.0-0.0,voc_e2,12148,"[{""event"":""fullscreenenter"",""trial"":1,""time"":2044}]",NA,NA,NA,NA,NA,6,#FA92F8,#1CD855,0,10,0,38,1,1895.199999988079,39,0,350.39999997615814,10,1,experiment,NA,NA,0,0.1,0.9,1,0,96,3,NA
fcp-trial,144,738367,0.0-105.0-0.0,voc_e2,12148,"[{""event"":""fullscreenenter"",""trial"":1,""time"":2044}]",NA,NA,NA,NA,NA,2,#1CD855,#FA92F8,10,0,1,38,1,1143.300000011921,37,1,323.7999999523163,10,1,experiment,NA,NA,0,0.9,0.1,0,1,97,3,NA
fcp-trial,145,742509,0.0-106.0-0.0,voc_e2,12148,"[{""event"":""fullscreenenter"",""trial"":1,""time"":2044}]",NA,NA,NA,NA,NA,6,#3386FF,#D89F1C,0,0,0,40,0,1503.199999988079,39,0,1131.2000000476835,0,1,experiment,NA,NA,1,0.3,0.7,3,2,98,3,NA
fcp-trial,146,746451,0.0-107.0-0.0,voc_e2,12148,"[{""event"":""fullscreenenter"",""trial"":1,""time"":2044}]",NA,NA,NA,NA,NA,2,#741CD8,#D8271C,10,0,0,38,1,2031.6000000238419,37,1,401.9000000357628,10,0,experiment,NA,NA,2,0.5,0.5,5,4,99,3,NA
fcp-trial,147,751315,0.0-108.0-0.0,voc_e2,12148,"[{""event"":""fullscreenenter"",""trial"":1,""time"":2044}]",NA,NA,NA,NA,NA,1,#3386FF,#D89F1C,0,10,0,38,1,1278.1000000238419,39,0,2078.099999964237,10,1,experiment,NA,NA,1,0.3,0.7,3,2,100,3,NA
fcp-trial,148,754781,0.0-109.0-0.0,voc_e2,12148,"[{""event"":""fullscreenenter"",""trial"":1,""time"":2044}]",NA,NA,NA,NA,NA,5,#741CD8,#D8271C,10,0,0,38,1,1409.3999999761581,37,1,548.4000000357628,10,0,experiment,NA,NA,2,0.5,0.5,5,4,101,3,NA
fcp-trial,149,757312,0.0-110.0-0.0,voc_e2,12148,"[{""event"":""fullscreenenter"",""trial"":1,""time"":2044}]",NA,NA,NA,NA,NA,5,#FA92F8,#1CD855,0,10,0,38,1,642.3000000119209,39,0,380.199999988079,10,1,experiment,NA,NA,0,0.1,0.9,1,0,102,3,NA
fcp-trial,150,760259,0.0-111.0-0.0,voc_e2,12148,"[{""event"":""fullscreenenter"",""trial"":1,""time"":2044}]",NA,NA,NA,NA,NA,0,#3386FF,#D89F1C,0,10,0,38,1,429,39,0,1009.0999999642372,10,1,experiment,NA,NA,1,0.3,0.7,3,2,103,3,NA
fcp-trial,151,763359,0.0-112.0-0.0,voc_e2,12148,"[{""event"":""fullscreenenter"",""trial"":1,""time"":2044}]",NA,NA,NA,NA,NA,1,#741CD8,#D8271C,10,0,0,38,1,1172.800000011921,37,1,420.7000000476837,10,0,experiment,NA,NA,2,0.5,0.5,5,4,104,3,NA
fcp-trial,152,765759,0.0-113.0-0.0,voc_e2,12148,"[{""event"":""fullscreenenter"",""trial"":1,""time"":2044}]",NA,NA,NA,NA,NA,3,#1CD855,#FA92F8,10,0,1,38,1,591.1000000238419,37,1,302.4000000357628,10,1,experiment,NA,NA,0,0.9,0.1,0,1,105,3,NA
audio-instructions,153,800480,0.0-114.0,voc_e2,12148,"[{""event"":""fullscreenenter"",""trial"":1,""time"":2044}]",NA,30254.799999952316,static/audio/pause.wav,NA,0,NA,NA,NA,NA,NA,NA,NA,NA,NA,NA,NA,NA,NA,NA,NA,NA,NA,NA,NA,NA,NA,NA,NA,NA,NA
fcp-trial,154,805043,0.0-115.0-0.0,voc_e2,12148,"[{""event"":""fullscreenenter"",""trial"":1,""time"":2044}]",NA,NA,NA,NA,NA,3,#FA92F8,#1CD855,0,10,0,38,1,2594,39,0,459,10,1,experiment,NA,NA,0,0.1,0.9,1,0,106,3,NA
fcp-trial,155,808004,0.0-116.0-0.0,voc_e2,12148,"[{""event"":""fullscreenenter"",""trial"":1,""time"":2044}]",NA,NA,NA,NA,NA,1,#FA92F8,#1CD855,0,10,0,38,1,1123.300000011921,39,0,328.39999997615814,10,1,experiment,NA,NA,0,0.1,0.9,1,0,107,3,NA
fcp-trial,156,811962,0.0-117.0-0.0,voc_e2,12148,"[{""event"":""fullscreenenter"",""trial"":1,""time"":2044}]",NA,NA,NA,NA,NA,5,#3386FF,#D89F1C,0,0,0,40,0,1560.199999988079,39,0,888.2000000476837,0,1,experiment,NA,NA,1,0.3,0.7,3,2,108,3,NA
fcp-trial,157,815632,0.0-118.0-0.0,voc_e2,12148,"[{""event"":""fullscreenenter"",""trial"":1,""time"":2044}]",NA,NA,NA,NA,NA,6,#FA92F8,#1CD855,0,0,0,38,1,1892.2000000476837,39,0,270.69999998807907,0,1,experiment,NA,NA,0,0.1,0.9,1,0,109,3,NA
fcp-trial,158,819027,0.0-119.0-0.0,voc_e2,12148,"[{""event"":""fullscreenenter"",""trial"":1,""time"":2044}]",NA,NA,NA,NA,NA,3,#D89F1C,#3386FF,10,0,1,38,1,1563.300000011921,37,1,323.2999999523163,10,1,experiment,NA,NA,1,0.7,0.3,2,3,110,3,NA
fcp-trial,159,822088,0.0-120.0-0.0,voc_e2,12148,"[{""event"":""fullscreenenter"",""trial"":1,""time"":2044}]",NA,NA,NA,NA,NA,6,#D8271C,#741CD8,10,0,1,38,1,1149,39,0,404.10000002384186,0,0,experiment,NA,NA,2,0.5,0.5,4,5,111,3,NA
fcp-trial,160,825761,0.0-121.0-0.0,voc_e2,12148,"[{""event"":""fullscreenenter"",""trial"":1,""time"":2044}]",NA,NA,NA,NA,NA,4,#D89F1C,#3386FF,10,10,1,38,1,847.8999999761581,37,1,1315.800000011921,10,1,experiment,NA,NA,1,0.7,0.3,2,3,112,3,NA
fcp-trial,161,828695,0.0-122.0-0.0,voc_e2,12148,"[{""event"":""fullscreenenter"",""trial"":1,""time"":2044}]",NA,NA,NA,NA,NA,4,#D8271C,#741CD8,0,0,1,38,1,660.5,39,0,765.3999999761581,0,0,experiment,NA,NA,2,0.5,0.5,4,5,113,3,NA
fcp-trial,162,832247,0.0-123.0-0.0,voc_e2,12148,"[{""event"":""fullscreenenter"",""trial"":1,""time"":2044}]",NA,NA,NA,NA,NA,4,#FA92F8,#1CD855,0,10,0,38,1,1576.699999988079,39,0,466.5,10,1,experiment,NA,NA,0,0.1,0.9,1,0,114,3,NA
fcp-trial,163,834544,0.0-124.0-0.0,voc_e2,12148,"[{""event"":""fullscreenenter"",""trial"":1,""time"":2044}]",NA,NA,NA,NA,NA,5,#FA92F8,#1CD855,0,10,0,38,1,498.19999998807907,39,0,289.69999998807907,10,1,experiment,NA,NA,0,0.1,0.9,1,0,115,3,NA
fcp-trial,164,838938,0.0-125.0-0.0,voc_e2,12148,"[{""event"":""fullscreenenter"",""trial"":1,""time"":2044}]",NA,NA,NA,NA,NA,2,#D89F1C,#3386FF,10,0,1,38,1,2542,37,1,344.89999997615814,10,1,experiment,NA,NA,1,0.7,0.3,2,3,116,3,NA
fcp-trial,165,842143,0.0-126.0-0.0,voc_e2,12148,"[{""event"":""fullscreenenter"",""trial"":1,""time"":2044}]",NA,NA,NA,NA,NA,0,#D8271C,#741CD8,0,10,1,38,1,1302.800000011921,39,0,393.0999999642372,10,0,experiment,NA,NA,2,0.5,0.5,4,5,117,3,NA
fcp-trial,166,846610,0.0-127.0-0.0,voc_e2,12148,"[{""event"":""fullscreenenter"",""trial"":1,""time"":2044}]",NA,NA,NA,NA,NA,1,#D8271C,#741CD8,0,10,1,38,1,2560.5,39,0,399.800000011921,10,0,experiment,NA,NA,2,0.5,0.5,4,5,118,3,NA
fcp-trial,167,849479,0.0-128.0-0.0,voc_e2,12148,"[{""event"":""fullscreenenter"",""trial"":1,""time"":2044}]",NA,NA,NA,NA,NA,2,#1CD855,#FA92F8,0,0,1,38,1,1009.3000000119209,37,1,351.69999998807907,0,1,experiment,NA,NA,0,0.9,0.1,0,1,119,3,NA
fcp-trial,168,853689,0.0-129.0-0.0,voc_e2,12148,"[{""event"":""fullscreenenter"",""trial"":1,""time"":2044}]",NA,NA,NA,NA,NA,6,#D89F1C,#3386FF,10,0,1,40,0,2189,39,0,512.8000000119209,0,0,experiment,NA,NA,1,0.7,0.3,2,3,120,3,NA
fcp-trial,169,857266,0.0-130.0-0.0,voc_e2,12148,"[{""event"":""fullscreenenter"",""trial"":1,""time"":2044}]",NA,NA,NA,NA,NA,2,#D8271C,#741CD8,0,0,1,38,1,1631.199999988079,39,0,436.199999988079,0,0,experiment,NA,NA,2,0.5,0.5,4,5,121,3,NA
fcp-trial,170,860107,0.0-131.0-0.0,voc_e2,12148,"[{""event"":""fullscreenenter"",""trial"":1,""time"":2044}]",NA,NA,NA,NA,NA,0,#FA92F8,#1CD855,0,0,0,38,1,971.6999999880791,39,0,359.60000002384186,0,1,experiment,NA,NA,0,0.1,0.9,1,0,122,3,NA
fcp-trial,171,863263,0.0-132.0-0.0,voc_e2,12148,"[{""event"":""fullscreenenter"",""trial"":1,""time"":2044}]",NA,NA,NA,NA,NA,5,#741CD8,#D8271C,0,10,0,38,1,1296.199999988079,37,1,352,0,0,experiment,NA,NA,2,0.5,0.5,5,4,123,3,NA
fcp-trial,172,866866,0.0-133.0-0.0,voc_e2,12148,"[{""event"":""fullscreenenter"",""trial"":1,""time"":2044}]",NA,NA,NA,NA,NA,1,#D89F1C,#3386FF,0,10,1,38,1,1424.699999988079,37,1,668.5,0,1,experiment,NA,NA,1,0.7,0.3,2,3,124,3,NA
fcp-trial,173,870318,0.0-134.0-0.0,voc_e2,12148,"[{""event"":""fullscreenenter"",""trial"":1,""time"":2044}]",NA,NA,NA,NA,NA,0,#D89F1C,#3386FF,10,0,1,38,1,1266.300000011921,37,1,675.8999999761581,10,1,experiment,NA,NA,1,0.7,0.3,2,3,125,3,NA
fcp-trial,174,873506,0.0-135.0-0.0,voc_e2,12148,"[{""event"":""fullscreenenter"",""trial"":1,""time"":2044}]",NA,NA,NA,NA,NA,3,#741CD8,#D8271C,0,10,0,38,1,990.3999999761581,37,1,690.4000000357628,0,0,experiment,NA,NA,2,0.5,0.5,5,4,126,3,NA
fcp-trial,175,876912,0.0-136.0-0.0,voc_e2,12148,"[{""event"":""fullscreenenter"",""trial"":1,""time"":2044}]",NA,NA,NA,NA,NA,0,#741CD8,#D8271C,0,0,0,38,1,1448.6000000238419,37,1,450,0,0,experiment,NA,NA,2,0.5,0.5,5,4,127,3,NA
fcp-trial,176,879890,0.0-137.0-0.0,voc_e2,12148,"[{""event"":""fullscreenenter"",""trial"":1,""time"":2044}]",NA,NA,NA,NA,NA,3,#1CD855,#FA92F8,10,0,1,38,1,1081.199999988079,37,1,387.60000002384186,10,1,experiment,NA,NA,0,0.9,0.1,0,1,128,3,NA
fcp-trial,177,883529,0.0-138.0-0.0,voc_e2,12148,"[{""event"":""fullscreenenter"",""trial"":1,""time"":2044}]",NA,NA,NA,NA,NA,5,#D8271C,#741CD8,10,10,1,38,1,1834.199999988079,37,1,294.10000002384186,10,1,experiment,NA,NA,2,0.5,0.5,4,5,129,3,NA
fcp-trial,178,887567,0.0-139.0-0.0,voc_e2,12148,"[{""event"":""fullscreenenter"",""trial"":1,""time"":2044}]",NA,NA,NA,NA,NA,5,#1CD855,#FA92F8,10,0,1,38,1,2171.2999999523163,37,1,358.89999997615814,10,1,experiment,NA,NA,0,0.9,0.1,0,1,130,3,NA
fcp-trial,179,891212,0.0-140.0-0.0,voc_e2,12148,"[{""event"":""fullscreenenter"",""trial"":1,""time"":2044}]",NA,NA,NA,NA,NA,2,#3386FF,#D89F1C,10,10,0,38,1,1761,39,0,376.10000002384186,10,1,experiment,NA,NA,1,0.3,0.7,3,2,131,3,NA
fcp-trial,180,894037,0.0-141.0-0.0,voc_e2,12148,"[{""event"":""fullscreenenter"",""trial"":1,""time"":2044}]",NA,NA,NA,NA,NA,4,#D8271C,#741CD8,0,0,1,38,1,761.2000000476837,37,1,555.5,0,1,experiment,NA,NA,2,0.5,0.5,4,5,132,3,NA
fcp-trial,181,897185,0.0-142.0-0.0,voc_e2,12148,"[{""event"":""fullscreenenter"",""trial"":1,""time"":2044}]",NA,NA,NA,NA,NA,4,#1CD855,#FA92F8,10,10,1,38,1,1288.8999999761581,37,1,349.19999998807907,10,1,experiment,NA,NA,0,0.9,0.1,0,1,133,3,NA
fcp-trial,182,900001,0.0-143.0-0.0,voc_e2,12148,"[{""event"":""fullscreenenter"",""trial"":1,""time"":2044}]",NA,NA,NA,NA,NA,6,#741CD8,#D8271C,10,0,0,38,1,904.1999999880791,37,1,403.5,10,0,experiment,NA,NA,2,0.5,0.5,5,4,134,3,NA
fcp-trial,183,902645,0.0-144.0-0.0,voc_e2,12148,"[{""event"":""fullscreenenter"",""trial"":1,""time"":2044}]",NA,NA,NA,NA,NA,4,#3386FF,#D89F1C,10,10,0,38,1,740.5999999642372,39,0,394.7999999523163,10,1,experiment,NA,NA,1,0.3,0.7,3,2,135,3,NA
fcp-trial,184,905262,0.0-145.0-0.0,voc_e2,12148,"[{""event"":""fullscreenenter"",""trial"":1,""time"":2044}]",NA,NA,NA,NA,NA,1,#741CD8,#D8271C,10,10,0,38,1,760.6999999880791,37,1,348.5999999642372,10,0,experiment,NA,NA,2,0.5,0.5,5,4,136,4,NA
fcp-trial,185,907712,0.0-146.0-0.0,voc_e2,12148,"[{""event"":""fullscreenenter"",""trial"":1,""time"":2044}]",NA,NA,NA,NA,NA,2,#FA92F8,#1CD855,0,10,0,38,1,645.1000000238419,39,0,297.69999998807907,10,1,experiment,NA,NA,0,0.1,0.9,1,0,137,4,NA
fcp-trial,186,911118,0.0-147.0-0.0,voc_e2,12148,"[{""event"":""fullscreenenter"",""trial"":1,""time"":2044}]",NA,NA,NA,NA,NA,3,#741CD8,#D8271C,0,10,0,38,1,1586.5,37,1,310.80000001192093,0,0,experiment,NA,NA,2,0.5,0.5,5,4,138,4,NA
fcp-trial,187,913921,0.0-148.0-0.0,voc_e2,12148,"[{""event"":""fullscreenenter"",""trial"":1,""time"":2044}]",NA,NA,NA,NA,NA,5,#3386FF,#D89F1C,0,10,0,38,1,661.2000000476837,39,0,631.3000000119209,10,1,experiment,NA,NA,1,0.3,0.7,3,2,139,4,NA
fcp-trial,188,916960,0.0-149.0-0.0,voc_e2,12148,"[{""event"":""fullscreenenter"",""trial"":1,""time"":2044}]",NA,NA,NA,NA,NA,6,#FA92F8,#1CD855,0,0,0,38,1,1189.2000000476837,39,0,340,0,1,experiment,NA,NA,0,0.1,0.9,1,0,140,4,NA
fcp-trial,189,919708,0.0-150.0-0.0,voc_e2,12148,"[{""event"":""fullscreenenter"",""trial"":1,""time"":2044}]",NA,NA,NA,NA,NA,1,#1CD855,#FA92F8,0,0,1,38,1,978.7999999523163,37,1,261.5,0,1,experiment,NA,NA,0,0.9,0.1,0,1,141,4,NA
fcp-trial,190,922871,0.0-151.0-0.0,voc_e2,12148,"[{""event"":""fullscreenenter"",""trial"":1,""time"":2044}]",NA,NA,NA,NA,NA,0,#3386FF,#D89F1C,10,0,0,38,1,1265.699999988079,39,0,390.300000011921,0,1,experiment,NA,NA,1,0.3,0.7,3,2,142,4,NA
fcp-trial,191,925996,0.0-152.0-0.0,voc_e2,12148,"[{""event"":""fullscreenenter"",""trial"":1,""time"":2044}]",NA,NA,NA,NA,NA,2,#D8271C,#741CD8,0,10,1,38,1,1121.3999999761581,39,0,492.4000000357628,10,0,experiment,NA,NA,2,0.5,0.5,4,5,143,4,NA
fcp-trial,192,928371,0.0-153.0-0.0,voc_e2,12148,"[{""event"":""fullscreenenter"",""trial"":1,""time"":2044}]",NA,NA,NA,NA,NA,0,#FA92F8,#1CD855,0,10,0,38,1,573.0999999642372,39,0,293.39999997615814,10,1,experiment,NA,NA,0,0.1,0.9,1,0,144,4,NA
fcp-trial,193,931321,0.0-154.0-0.0,voc_e2,12148,"[{""event"":""fullscreenenter"",""trial"":1,""time"":2044}]",NA,NA,NA,NA,NA,3,#3386FF,#D89F1C,10,0,0,38,1,382.4000000357628,39,0,1057.800000011921,0,1,experiment,NA,NA,1,0.3,0.7,3,2,145,4,NA
fcp-trial,194,933903,0.0-155.0-0.0,voc_e2,12148,"[{""event"":""fullscreenenter"",""trial"":1,""time"":2044}]",NA,NA,NA,NA,NA,6,#3386FF,#D89F1C,0,10,0,38,1,419.60000002384186,39,0,651.6999999880791,10,1,experiment,NA,NA,1,0.3,0.7,3,2,146,4,NA
fcp-trial,195,936605,0.0-156.0-0.0,voc_e2,12148,"[{""event"":""fullscreenenter"",""trial"":1,""time"":2044}]",NA,NA,NA,NA,NA,1,#D89F1C,#3386FF,0,10,1,38,1,544.5,37,1,647.9000000357628,0,1,experiment,NA,NA,1,0.7,0.3,2,3,147,4,NA
fcp-trial,196,938962,0.0-157.0-0.0,voc_e2,12148,"[{""event"":""fullscreenenter"",""trial"":1,""time"":2044}]",NA,NA,NA,NA,NA,1,#FA92F8,#1CD855,0,10,0,38,1,465.5,39,0,381.4000000357628,10,1,experiment,NA,NA,0,0.1,0.9,1,0,148,4,NA
fcp-trial,197,941890,0.0-158.0-0.0,voc_e2,12148,"[{""event"":""fullscreenenter"",""trial"":1,""time"":2044}]",NA,NA,NA,NA,NA,4,#741CD8,#D8271C,10,0,0,38,1,972.3000000119209,37,1,447.89999997615814,10,0,experiment,NA,NA,2,0.5,0.5,5,4,149,4,NA
fcp-trial,198,944270,0.0-159.0-0.0,voc_e2,12148,"[{""event"":""fullscreenenter"",""trial"":1,""time"":2044}]",NA,NA,NA,NA,NA,2,#3386FF,#D89F1C,0,10,0,38,1,498.5,37,1,372.800000011921,0,0,experiment,NA,NA,1,0.3,0.7,3,2,150,4,NA
fcp-trial,199,947719,0.0-160.0-0.0,voc_e2,12148,"[{""event"":""fullscreenenter"",""trial"":1,""time"":2044}]",NA,NA,NA,NA,NA,4,#1CD855,#FA92F8,10,0,1,38,1,1198.9000000357628,37,1,740.0999999642372,10,1,experiment,NA,NA,0,0.9,0.1,0,1,151,4,NA
fcp-trial,200,951229,0.0-161.0-0.0,voc_e2,12148,"[{""event"":""fullscreenenter"",""trial"":1,""time"":2044}]",NA,NA,NA,NA,NA,3,#D89F1C,#3386FF,0,0,1,38,1,1621.5999999642372,37,1,379.800000011921,0,1,experiment,NA,NA,1,0.7,0.3,2,3,152,4,NA
fcp-trial,201,953505,0.0-162.0-0.0,voc_e2,12148,"[{""event"":""fullscreenenter"",""trial"":1,""time"":2044}]",NA,NA,NA,NA,NA,0,#D8271C,#741CD8,0,0,1,38,1,461.5999999642372,39,0,305.5,0,0,experiment,NA,NA,2,0.5,0.5,4,5,153,4,NA
fcp-trial,202,958757,0.0-163.0-0.0,voc_e2,12148,"[{""event"":""fullscreenenter"",""trial"":1,""time"":2044}]",NA,NA,NA,NA,NA,5,#D89F1C,#3386FF,0,0,1,40,0,2500.300000011921,37,1,1240.4000000357628,0,1,experiment,NA,NA,1,0.7,0.3,2,3,154,4,NA
fcp-trial,203,961811,0.0-164.0-0.0,voc_e2,12148,"[{""event"":""fullscreenenter"",""trial"":1,""time"":2044}]",NA,NA,NA,NA,NA,1,#D8271C,#741CD8,0,0,1,38,1,1106.5,39,0,439.0999999642372,0,0,experiment,NA,NA,2,0.5,0.5,4,5,155,4,NA
fcp-trial,204,964612,0.0-165.0-0.0,voc_e2,12148,"[{""event"":""fullscreenenter"",""trial"":1,""time"":2044}]",NA,NA,NA,NA,NA,5,#1CD855,#FA92F8,10,0,1,38,1,1018.5,37,1,273.69999998807907,10,1,experiment,NA,NA,0,0.9,0.1,0,1,156,4,NA
fcp-trial,205,968728,0.0-166.0-0.0,voc_e2,12148,"[{""event"":""fullscreenenter"",""trial"":1,""time"":2044}]",NA,NA,NA,NA,NA,4,#D89F1C,#3386FF,10,10,1,38,1,1817.5,37,1,790.7000000476837,10,1,experiment,NA,NA,1,0.7,0.3,2,3,157,4,NA
fcp-trial,206,971529,0.0-167.0-0.0,voc_e2,12148,"[{""event"":""fullscreenenter"",""trial"":1,""time"":2044}]",NA,NA,NA,NA,NA,0,#3386FF,#D89F1C,0,0,0,38,1,881.8000000119209,39,0,411.5,0,1,experiment,NA,NA,1,0.3,0.7,3,2,158,4,NA
fcp-trial,207,974314,0.0-168.0-0.0,voc_e2,12148,"[{""event"":""fullscreenenter"",""trial"":1,""time"":2044}]",NA,NA,NA,NA,NA,3,#D8271C,#741CD8,10,10,1,38,1,645.8999999761581,39,0,629.8000000119209,10,0,experiment,NA,NA,2,0.5,0.5,4,5,159,4,NA
fcp-trial,208,977347,0.0-169.0-0.0,voc_e2,12148,"[{""event"":""fullscreenenter"",""trial"":1,""time"":2044}]",NA,NA,NA,NA,NA,0,#1CD855,#FA92F8,10,0,1,38,1,858.2999999523163,37,1,667,10,1,experiment,NA,NA,0,0.9,0.1,0,1,160,4,NA
fcp-trial,209,980446,0.0-170.0-0.0,voc_e2,12148,"[{""event"":""fullscreenenter"",""trial"":1,""time"":2044}]",NA,NA,NA,NA,NA,5,#D8271C,#741CD8,10,0,1,38,1,1250.6000000238419,39,0,340,0,0,experiment,NA,NA,2,0.5,0.5,4,5,161,4,NA
fcp-trial,210,983745,0.0-171.0-0.0,voc_e2,12148,"[{""event"":""fullscreenenter"",""trial"":1,""time"":2044}]",NA,NA,NA,NA,NA,6,#D89F1C,#3386FF,0,0,1,40,0,1134.4000000357628,39,0,655.9000000357628,0,0,experiment,NA,NA,1,0.7,0.3,2,3,162,4,NA
fcp-trial,211,987505,0.0-172.0-0.0,voc_e2,12148,"[{""event"":""fullscreenenter"",""trial"":1,""time"":2044}]",NA,NA,NA,NA,NA,2,#741CD8,#D8271C,10,10,0,38,1,1927.4000000357628,37,1,322.69999998807907,10,0,experiment,NA,NA,2,0.5,0.5,5,4,163,4,NA
fcp-trial,212,990351,0.0-173.0-0.0,voc_e2,12148,"[{""event"":""fullscreenenter"",""trial"":1,""time"":2044}]",NA,NA,NA,NA,NA,6,#1CD855,#FA92F8,10,10,1,38,1,590.6000000238419,37,1,747.3999999761581,10,1,experiment,NA,NA,0,0.9,0.1,0,1,164,4,NA
fcp-trial,213,993613,0.0-174.0-0.0,voc_e2,12148,"[{""event"":""fullscreenenter"",""trial"":1,""time"":2044}]",NA,NA,NA,NA,NA,3,#1CD855,#FA92F8,10,0,1,38,1,1310.199999988079,37,1,443.300000011921,10,1,experiment,NA,NA,0,0.9,0.1,0,1,165,4,NA
fcp-trial,214,996396,0.0-175.0-0.0,voc_e2,12148,"[{""event"":""fullscreenenter"",""trial"":1,""time"":2044}]",NA,NA,NA,NA,NA,2,#1CD855,#FA92F8,10,0,1,38,1,970,37,1,304.89999997615814,10,1,experiment,NA,NA,0,0.9,0.1,0,1,166,4,NA
fcp-trial,215,999420,0.0-176.0-0.0,voc_e2,12148,"[{""event"":""fullscreenenter"",""trial"":1,""time"":2044}]",NA,NA,NA,NA,NA,1,#D89F1C,#3386FF,10,10,1,38,1,649.5,39,0,865,10,0,experiment,NA,NA,1,0.7,0.3,2,3,167,4,NA
fcp-trial,216,1002897,0.0-177.0-0.0,voc_e2,12148,"[{""event"":""fullscreenenter"",""trial"":1,""time"":2044}]",NA,NA,NA,NA,NA,6,#741CD8,#D8271C,10,10,0,38,1,837.7000000476837,37,1,1129.5,10,0,experiment,NA,NA,2,0.5,0.5,5,4,168,4,NA
fcp-trial,217,1006112,0.0-178.0-0.0,voc_e2,12148,"[{""event"":""fullscreenenter"",""trial"":1,""time"":2044}]",NA,NA,NA,NA,NA,6,#741CD8,#D8271C,0,0,0,38,1,1359.699999988079,37,1,347.7999999523163,0,0,experiment,NA,NA,2,0.5,0.5,5,4,169,4,NA
fcp-trial,218,1008663,0.0-179.0-0.0,voc_e2,12148,"[{""event"":""fullscreenenter"",""trial"":1,""time"":2044}]",NA,NA,NA,NA,NA,2,#FA92F8,#1CD855,0,10,0,38,1,726,39,0,317.19999998807907,10,1,experiment,NA,NA,0,0.1,0.9,1,0,170,4,NA
fcp-trial,219,1013029,0.0-180.0-0.0,voc_e2,12148,"[{""event"":""fullscreenenter"",""trial"":1,""time"":2044}]",NA,NA,NA,NA,NA,6,#3386FF,#D89F1C,10,10,0,40,0,2125.100000023842,37,1,734,10,0,experiment,NA,NA,1,0.3,0.7,3,2,171,4,NA
fcp-trial,220,1016771,0.0-181.0-0.0,voc_e2,12148,"[{""event"":""fullscreenenter"",""trial"":1,""time"":2044}]",NA,NA,NA,NA,NA,1,#D89F1C,#3386FF,0,0,1,38,1,1854.699999988079,39,0,378.2000000476837,0,0,experiment,NA,NA,1,0.7,0.3,2,3,172,4,NA
fcp-trial,221,1019629,0.0-182.0-0.0,voc_e2,12148,"[{""event"":""fullscreenenter"",""trial"":1,""time"":2044}]",NA,NA,NA,NA,NA,4,#FA92F8,#1CD855,0,10,0,38,1,955.6999999880791,39,0,394.89999997615814,10,1,experiment,NA,NA,0,0.1,0.9,1,0,173,4,NA
fcp-trial,222,1023139,0.0-183.0-0.0,voc_e2,12148,"[{""event"":""fullscreenenter"",""trial"":1,""time"":2044}]",NA,NA,NA,NA,NA,5,#D8271C,#741CD8,10,10,1,38,1,1679.300000011921,39,0,321.89999997615814,10,0,experiment,NA,NA,2,0.5,0.5,4,5,174,4,NA
fcp-trial,223,1025851,0.0-184.0-0.0,voc_e2,12148,"[{""event"":""fullscreenenter"",""trial"":1,""time"":2044}]",NA,NA,NA,NA,NA,2,#741CD8,#D8271C,0,10,0,38,1,922.3000000119209,37,1,279.69999998807907,0,0,experiment,NA,NA,2,0.5,0.5,5,4,175,4,NA
fcp-trial,224,1029305,0.0-185.0-0.0,voc_e2,12148,"[{""event"":""fullscreenenter"",""trial"":1,""time"":2044}]",NA,NA,NA,NA,NA,5,#D89F1C,#3386FF,0,10,1,40,0,1250.6000000238419,37,1,692.9000000357628,0,1,experiment,NA,NA,1,0.7,0.3,2,3,176,4,NA
fcp-trial,225,1033146,0.0-186.0-0.0,voc_e2,12148,"[{""event"":""fullscreenenter"",""trial"":1,""time"":2044}]",NA,NA,NA,NA,NA,0,#1CD855,#FA92F8,10,0,1,38,1,2036.300000011921,37,1,295.80000001192093,10,1,experiment,NA,NA,0,0.9,0.1,0,1,177,4,NA
fcp-trial,226,1035620,0.0-187.0-0.0,voc_e2,12148,"[{""event"":""fullscreenenter"",""trial"":1,""time"":2044}]",NA,NA,NA,NA,NA,3,#FA92F8,#1CD855,0,10,0,38,1,703.8000000119209,39,0,260.69999998807907,10,1,experiment,NA,NA,0,0.1,0.9,1,0,178,4,NA
fcp-trial,227,1038729,0.0-188.0-0.0,voc_e2,12148,"[{""event"":""fullscreenenter"",""trial"":1,""time"":2044}]",NA,NA,NA,NA,NA,0,#3386FF,#D89F1C,10,0,0,38,1,623.8000000119209,37,1,976.5999999642372,10,0,experiment,NA,NA,1,0.3,0.7,3,2,179,4,NA
fcp-trial,228,1043280,0.0-189.0-0.0,voc_e2,12148,"[{""event"":""fullscreenenter"",""trial"":1,""time"":2044}]",NA,NA,NA,NA,NA,1,#741CD8,#D8271C,0,0,0,38,1,2061.099999964237,37,1,982.3000000119208,0,0,experiment,NA,NA,2,0.5,0.5,5,4,180,4,NA
fcp-trial,229,1045732,0.0-190.0-0.0,voc_e2,12148,"[{""event"":""fullscreenenter"",""trial"":1,""time"":2044}]",NA,NA,NA,NA,NA,5,#1CD855,#FA92F8,10,0,1,38,1,655.8000000119209,37,1,287.0999999642372,10,1,experiment,NA,NA,0,0.9,0.1,0,1,181,5,NA
fcp-trial,230,1048904,0.0-191.0-0.0,voc_e2,12148,"[{""event"":""fullscreenenter"",""trial"":1,""time"":2044}]",NA,NA,NA,NA,NA,4,#3386FF,#D89F1C,10,0,0,40,0,1041.5,37,1,622.1999999880791,10,0,experiment,NA,NA,1,0.3,0.7,3,2,182,5,NA
fcp-trial,231,1053270,0.0-192.0-0.0,voc_e2,12148,"[{""event"":""fullscreenenter"",""trial"":1,""time"":2044}]",NA,NA,NA,NA,NA,3,#D89F1C,#3386FF,0,10,1,38,1,2534.199999988079,39,0,322.2999999523163,10,0,experiment,NA,NA,1,0.7,0.3,2,3,183,5,NA
fcp-trial,232,1057147,0.0-193.0-0.0,voc_e2,12148,"[{""event"":""fullscreenenter"",""trial"":1,""time"":2044}]",NA,NA,NA,NA,NA,3,#741CD8,#D8271C,0,0,0,38,1,1686.3999999761581,37,1,681.7000000476837,0,0,experiment,NA,NA,2,0.5,0.5,5,4,184,5,NA
fcp-trial,233,1059914,0.0-194.0-0.0,voc_e2,12148,"[{""event"":""fullscreenenter"",""trial"":1,""time"":2044}]",NA,NA,NA,NA,NA,1,#1CD855,#FA92F8,0,0,1,38,1,954.2000000476837,37,1,304.10000002384186,0,1,experiment,NA,NA,0,0.9,0.1,0,1,185,5,NA
fcp-trial,234,1062482,0.0-195.0-0.0,voc_e2,12148,"[{""event"":""fullscreenenter"",""trial"":1,""time"":2044}]",NA,NA,NA,NA,NA,4,#741CD8,#D8271C,0,0,0,38,1,701.5999999642372,37,1,356.60000002384186,0,0,experiment,NA,NA,2,0.5,0.5,5,4,186,5,NA
fcp-trial,235,1065001,0.0-196.0-0.0,voc_e2,12148,"[{""event"":""fullscreenenter"",""trial"":1,""time"":2044}]",NA,NA,NA,NA,NA,2,#3386FF,#D89F1C,10,0,0,38,1,725.6999999880791,37,1,284.5,10,0,experiment,NA,NA,1,0.3,0.7,3,2,187,5,NA
fcp-trial,236,1069090,0.0-197.0-0.0,voc_e2,12148,"[{""event"":""fullscreenenter"",""trial"":1,""time"":2044}]",NA,NA,NA,NA,NA,0,#D8271C,#741CD8,10,10,1,38,1,2164.300000011921,39,0,416,10,0,experiment,NA,NA,2,0.5,0.5,4,5,188,5,NA
fcp-trial,237,1071557,0.0-198.0-0.0,voc_e2,12148,"[{""event"":""fullscreenenter"",""trial"":1,""time"":2044}]",NA,NA,NA,NA,NA,6,#FA92F8,#1CD855,0,0,0,38,1,687.8000000119209,39,0,269.30000001192093,0,1,experiment,NA,NA,0,0.1,0.9,1,0,189,5,NA
fcp-trial,238,1074389,0.0-199.0-0.0,voc_e2,12148,"[{""event"":""fullscreenenter"",""trial"":1,""time"":2044}]",NA,NA,NA,NA,NA,1,#741CD8,#D8271C,0,0,0,38,1,917.5,37,1,406.199999988079,0,0,experiment,NA,NA,2,0.5,0.5,5,4,190,5,NA
fcp-trial,239,1077188,0.0-200.0-0.0,voc_e2,12148,"[{""event"":""fullscreenenter"",""trial"":1,""time"":2044}]",NA,NA,NA,NA,NA,0,#1CD855,#FA92F8,10,0,1,38,1,402.10000002384186,37,1,887.9000000357628,10,1,experiment,NA,NA,0,0.9,0.1,0,1,191,5,NA
fcp-trial,240,1080892,0.0-201.0-0.0,voc_e2,12148,"[{""event"":""fullscreenenter"",""trial"":1,""time"":2044}]",NA,NA,NA,NA,NA,6,#D89F1C,#3386FF,10,0,1,40,0,1671.8999999761581,37,1,523.2000000476837,10,1,experiment,NA,NA,1,0.7,0.3,2,3,192,5,NA
fcp-trial,241,1084543,0.0-202.0-0.0,voc_e2,12148,"[{""event"":""fullscreenenter"",""trial"":1,""time"":2044}]",NA,NA,NA,NA,NA,3,#D89F1C,#3386FF,10,0,1,40,0,1671.3999999761581,37,1,468.39999997615814,10,1,experiment,NA,NA,1,0.7,0.3,2,3,193,5,NA
fcp-trial,242,1087501,0.0-203.0-0.0,voc_e2,12148,"[{""event"":""fullscreenenter"",""trial"":1,""time"":2044}]",NA,NA,NA,NA,NA,0,#D8271C,#741CD8,10,10,1,38,1,1117.0999999642372,39,0,332.69999998807907,10,0,experiment,NA,NA,2,0.5,0.5,4,5,194,5,NA
fcp-trial,243,1090065,0.0-204.0-0.0,voc_e2,12148,"[{""event"":""fullscreenenter"",""trial"":1,""time"":2044}]",NA,NA,NA,NA,NA,4,#1CD855,#FA92F8,10,0,1,38,1,750,37,1,306.69999998807907,10,1,experiment,NA,NA,0,0.9,0.1,0,1,195,5,NA
fcp-trial,244,1093554,0.0-205.0-0.0,voc_e2,12148,"[{""event"":""fullscreenenter"",""trial"":1,""time"":2044}]",NA,NA,NA,NA,NA,0,#D89F1C,#3386FF,10,0,1,38,1,1621,37,1,360.10000002384186,10,1,experiment,NA,NA,1,0.7,0.3,2,3,196,5,NA
fcp-trial,245,1096303,0.0-206.0-0.0,voc_e2,12148,"[{""event"":""fullscreenenter"",""trial"":1,""time"":2044}]",NA,NA,NA,NA,NA,2,#D8271C,#741CD8,0,10,1,38,1,843,39,0,396.7000000476837,10,0,experiment,NA,NA,2,0.5,0.5,4,5,197,5,NA
fcp-trial,246,1099732,0.0-207.0-0.0,voc_e2,12148,"[{""event"":""fullscreenenter"",""trial"":1,""time"":2044}]",NA,NA,NA,NA,NA,4,#3386FF,#D89F1C,0,10,0,40,0,1520,39,0,400.4000000357628,10,1,experiment,NA,NA,1,0.3,0.7,3,2,198,5,NA
fcp-trial,247,1102350,0.0-208.0-0.0,voc_e2,12148,"[{""event"":""fullscreenenter"",""trial"":1,""time"":2044}]",NA,NA,NA,NA,NA,6,#FA92F8,#1CD855,0,10,0,38,1,793.3999999761581,39,0,316.80000001192093,10,1,experiment,NA,NA,0,0.1,0.9,1,0,199,5,NA
fcp-trial,248,1105671,0.0-209.0-0.0,voc_e2,12148,"[{""event"":""fullscreenenter"",""trial"":1,""time"":2044}]",NA,NA,NA,NA,NA,1,#D89F1C,#3386FF,0,0,1,38,1,1425.7000000476837,37,1,386.4000000357628,0,1,experiment,NA,NA,1,0.7,0.3,2,3,200,5,NA
fcp-trial,249,1108921,0.0-210.0-0.0,voc_e2,12148,"[{""event"":""fullscreenenter"",""trial"":1,""time"":2044}]",NA,NA,NA,NA,NA,6,#D8271C,#741CD8,0,0,1,38,1,1436.300000011921,39,0,305.69999998807907,0,0,experiment,NA,NA,2,0.5,0.5,4,5,201,5,NA
fcp-trial,250,1112823,0.0-211.0-0.0,voc_e2,12148,"[{""event"":""fullscreenenter"",""trial"":1,""time"":2044}]",NA,NA,NA,NA,NA,2,#D89F1C,#3386FF,0,0,1,38,1,2111.699999988079,37,1,279.19999998807907,0,1,experiment,NA,NA,1,0.7,0.3,2,3,202,5,NA
fcp-trial,251,1115730,0.0-212.0-0.0,voc_e2,12148,"[{""event"":""fullscreenenter"",""trial"":1,""time"":2044}]",NA,NA,NA,NA,NA,3,#1CD855,#FA92F8,10,0,1,38,1,735.1999999880791,37,1,659.9000000357628,10,1,experiment,NA,NA,0,0.9,0.1,0,1,203,5,NA
fcp-trial,252,1118997,0.0-213.0-0.0,voc_e2,12148,"[{""event"":""fullscreenenter"",""trial"":1,""time"":2044}]",NA,NA,NA,NA,NA,5,#1CD855,#FA92F8,10,0,1,38,1,1450,37,1,309,10,1,experiment,NA,NA,0,0.9,0.1,0,1,204,5,NA
fcp-trial,253,1122364,0.0-214.0-0.0,voc_e2,12148,"[{""event"":""fullscreenenter"",""trial"":1,""time"":2044}]",NA,NA,NA,NA,NA,1,#FA92F8,#1CD855,0,10,0,38,1,1610.1000000238419,39,0,250.0999999642372,10,1,experiment,NA,NA,0,0.1,0.9,1,0,205,5,NA
fcp-trial,254,1126148,0.0-215.0-0.0,voc_e2,12148,"[{""event"":""fullscreenenter"",""trial"":1,""time"":2044}]",NA,NA,NA,NA,NA,5,#D8271C,#741CD8,0,10,1,40,0,1661.300000011921,39,0,614.8000000119209,10,0,experiment,NA,NA,2,0.5,0.5,4,5,206,5,NA
fcp-trial,255,1129433,0.0-216.0-0.0,voc_e2,12148,"[{""event"":""fullscreenenter"",""trial"":1,""time"":2044}]",NA,NA,NA,NA,NA,5,#D89F1C,#3386FF,10,0,1,40,0,1146.0999999642372,37,1,630.1999999880791,10,1,experiment,NA,NA,1,0.7,0.3,2,3,207,5,NA
fcp-trial,256,1132047,0.0-217.0-0.0,voc_e2,12148,"[{""event"":""fullscreenenter"",""trial"":1,""time"":2044}]",NA,NA,NA,NA,NA,2,#FA92F8,#1CD855,0,10,0,38,1,761.4000000357628,39,0,345.10000002384186,10,1,experiment,NA,NA,0,0.1,0.9,1,0,208,5,NA
fcp-trial,257,1135132,0.0-218.0-0.0,voc_e2,12148,"[{""event"":""fullscreenenter"",""trial"":1,""time"":2044}]",NA,NA,NA,NA,NA,4,#D8271C,#741CD8,0,0,1,40,0,1052.8999999761581,39,0,522.5,0,0,experiment,NA,NA,2,0.5,0.5,4,5,209,5,NA
fcp-trial,258,1139586,0.0-219.0-0.0,voc_e2,12148,"[{""event"":""fullscreenenter"",""trial"":1,""time"":2044}]",NA,NA,NA,NA,NA,3,#741CD8,#D8271C,0,10,0,40,0,2499.100000023842,37,1,445.2000000476837,0,0,experiment,NA,NA,2,0.5,0.5,5,4,210,5,NA
audio-instructions,259,1157415,0.0-220.0,voc_e2,12148,"[{""event"":""fullscreenenter"",""trial"":1,""time"":2044}]",NA,13355.19999998808,static/audio/pause.wav,NA,0,NA,NA,NA,NA,NA,NA,NA,NA,NA,NA,NA,NA,NA,NA,NA,NA,NA,NA,NA,NA,NA,NA,NA,NA,NA
fcp-trial,260,1162275,0.0-221.0-0.0,voc_e2,12148,"[{""event"":""fullscreenenter"",""trial"":1,""time"":2044}]",NA,NA,NA,NA,NA,3,#D89F1C,#3386FF,10,10,1,40,0,2654.2999999523163,37,1,695.5999999642372,10,1,experiment,NA,NA,1,0.7,0.3,2,3,211,5,NA
fcp-trial,261,1166548,0.0-222.0-0.0,voc_e2,12148,"[{""event"":""fullscreenenter"",""trial"":1,""time"":2044}]",NA,NA,NA,NA,NA,6,#741CD8,#D8271C,10,0,0,40,0,1949.2999999523163,39,0,813.2000000476837,0,1,experiment,NA,NA,2,0.5,0.5,5,4,212,5,NA
fcp-trial,262,1169329,0.0-223.0-0.0,voc_e2,12148,"[{""event"":""fullscreenenter"",""trial"":1,""time"":2044}]",NA,NA,NA,NA,NA,0,#741CD8,#D8271C,0,10,0,38,1,985.5,37,1,288.9000000357628,0,0,experiment,NA,NA,2,0.5,0.5,5,4,213,5,NA
fcp-trial,263,1172388,0.0-224.0-0.0,voc_e2,12148,"[{""event"":""fullscreenenter"",""trial"":1,""time"":2044}]",NA,NA,NA,NA,NA,1,#D8271C,#741CD8,0,0,1,38,1,1131.699999988079,39,0,418.300000011921,0,0,experiment,NA,NA,2,0.5,0.5,4,5,214,5,NA
fcp-trial,264,1174947,0.0-225.0-0.0,voc_e2,12148,"[{""event"":""fullscreenenter"",""trial"":1,""time"":2044}]",NA,NA,NA,NA,NA,0,#FA92F8,#1CD855,0,10,0,38,1,711.7999999523163,39,0,339.89999997615814,10,1,experiment,NA,NA,0,0.1,0.9,1,0,215,5,NA
fcp-trial,265,1178023,0.0-226.0-0.0,voc_e2,12148,"[{""event"":""fullscreenenter"",""trial"":1,""time"":2044}]",NA,NA,NA,NA,NA,0,#3386FF,#D89F1C,0,0,0,38,1,1077.0999999642372,37,1,491.699999988079,0,0,experiment,NA,NA,1,0.3,0.7,3,2,216,5,NA
fcp-trial,266,1180947,0.0-227.0-0.0,voc_e2,12148,"[{""event"":""fullscreenenter"",""trial"":1,""time"":2044}]",NA,NA,NA,NA,NA,3,#1CD855,#FA92F8,10,0,1,38,1,1088.3999999761581,37,1,326.80000001192093,10,1,experiment,NA,NA,0,0.9,0.1,0,1,217,5,NA
fcp-trial,267,1184001,0.0-228.0-0.0,voc_e2,12148,"[{""event"":""fullscreenenter"",""trial"":1,""time"":2044}]",NA,NA,NA,NA,NA,1,#FA92F8,#1CD855,0,10,0,38,1,1284.800000011921,39,0,260.10000002384186,10,1,experiment,NA,NA,0,0.1,0.9,1,0,218,5,NA
fcp-trial,268,1187071,0.0-229.0-0.0,voc_e2,12148,"[{""event"":""fullscreenenter"",""trial"":1,""time"":2044}]",NA,NA,NA,NA,NA,4,#741CD8,#D8271C,10,0,0,40,0,1107.4000000357628,39,0,454.699999988079,0,1,experiment,NA,NA,2,0.5,0.5,5,4,219,5,NA
fcp-trial,269,1190431,0.0-230.0-0.0,voc_e2,12148,"[{""event"":""fullscreenenter"",""trial"":1,""time"":2044}]",NA,NA,NA,NA,NA,2,#D89F1C,#3386FF,0,0,1,40,0,1370.5,39,0,482.5,0,0,experiment,NA,NA,1,0.7,0.3,2,3,220,5,NA
fcp-trial,270,1193250,0.0-231.0-0.0,voc_e2,12148,"[{""event"":""fullscreenenter"",""trial"":1,""time"":2044}]",NA,NA,NA,NA,NA,2,#FA92F8,#1CD855,0,0,0,38,1,930.7000000476837,39,0,380,0,1,experiment,NA,NA,0,0.1,0.9,1,0,221,5,NA
fcp-trial,271,1196715,0.0-232.0-0.0,voc_e2,12148,"[{""event"":""fullscreenenter"",""trial"":1,""time"":2044}]",NA,NA,NA,NA,NA,5,#D8271C,#741CD8,0,10,1,40,0,1457,37,1,499,0,1,experiment,NA,NA,2,0.5,0.5,4,5,222,5,NA
fcp-trial,272,1199907,0.0-233.0-0.0,voc_e2,12148,"[{""event"":""fullscreenenter"",""trial"":1,""time"":2044}]",NA,NA,NA,NA,NA,5,#3386FF,#D89F1C,0,10,0,40,0,1229.699999988079,37,1,453.89999997615814,0,0,experiment,NA,NA,1,0.3,0.7,3,2,223,5,NA
fcp-trial,273,1203420,0.0-234.0-0.0,voc_e2,12148,"[{""event"":""fullscreenenter"",""trial"":1,""time"":2044}]",NA,NA,NA,NA,NA,4,#FA92F8,#1CD855,0,10,0,38,1,1653.8999999761581,39,0,350.19999998807907,10,1,experiment,NA,NA,0,0.1,0.9,1,0,224,5,NA
fcp-trial,274,1206331,0.0-235.0-0.0,voc_e2,12148,"[{""event"":""fullscreenenter"",""trial"":1,""time"":2044}]",NA,NA,NA,NA,NA,5,#FA92F8,#1CD855,0,10,0,38,1,722.0999999642372,39,0,681.0999999642372,10,1,experiment,NA,NA,0,0.1,0.9,1,0,225,5,NA
fcp-trial,275,1209824,0.0-236.0-0.0,voc_e2,12148,"[{""event"":""fullscreenenter"",""trial"":1,""time"":2044}]",NA,NA,NA,NA,NA,2,#741CD8,#D8271C,10,10,0,38,1,1614.699999988079,37,1,370.300000011921,10,0,experiment,NA,NA,2,0.5,0.5,5,4,226,6,NA
fcp-trial,276,1212842,0.0-237.0-0.0,voc_e2,12148,"[{""event"":""fullscreenenter"",""trial"":1,""time"":2044}]",NA,NA,NA,NA,NA,6,#D89F1C,#3386FF,10,0,1,40,0,1073.9000000357628,37,1,433.2000000476837,10,1,experiment,NA,NA,1,0.7,0.3,2,3,227,6,NA
fcp-trial,277,1216717,0.0-238.0-0.0,voc_e2,12148,"[{""event"":""fullscreenenter"",""trial"":1,""time"":2044}]",NA,NA,NA,NA,NA,1,#3386FF,#D89F1C,10,10,0,38,1,2072.899999976158,39,0,291.30000001192093,10,1,experiment,NA,NA,1,0.3,0.7,3,2,228,6,NA
fcp-trial,278,1219793,0.0-239.0-0.0,voc_e2,12148,"[{""event"":""fullscreenenter"",""trial"":1,""time"":2044}]",NA,NA,NA,NA,NA,6,#1CD855,#FA92F8,10,0,1,38,1,929.6999999880791,37,1,636.5999999642372,10,1,experiment,NA,NA,0,0.9,0.1,0,1,229,6,NA
fcp-trial,279,1222793,0.0-240.0-0.0,voc_e2,12148,"[{""event"":""fullscreenenter"",""trial"":1,""time"":2044}]",NA,NA,NA,NA,NA,3,#741CD8,#D8271C,0,10,0,38,1,1182.1000000238419,37,1,306.89999997615814,0,0,experiment,NA,NA,2,0.5,0.5,5,4,230,6,NA
fcp-trial,280,1227464,0.0-241.0-0.0,voc_e2,12148,"[{""event"":""fullscreenenter"",""trial"":1,""time"":2044}]",NA,NA,NA,NA,NA,4,#D89F1C,#3386FF,10,0,1,40,0,2376.800000011921,39,0,786.1999999880791,0,0,experiment,NA,NA,1,0.7,0.3,2,3,231,6,NA
fcp-trial,281,1230481,0.0-242.0-0.0,voc_e2,12148,"[{""event"":""fullscreenenter"",""trial"":1,""time"":2044}]",NA,NA,NA,NA,NA,3,#3386FF,#D89F1C,0,0,0,38,1,1172,39,0,337.19999998807907,0,1,experiment,NA,NA,1,0.3,0.7,3,2,232,6,NA
fcp-trial,282,1234449,0.0-243.0-0.0,voc_e2,12148,"[{""event"":""fullscreenenter"",""trial"":1,""time"":2044}]",NA,NA,NA,NA,NA,6,#FA92F8,#1CD855,0,10,0,38,1,2044.6000000238419,39,0,417.300000011921,10,1,experiment,NA,NA,0,0.1,0.9,1,0,233,6,NA
fcp-trial,283,1237899,0.0-244.0-0.0,voc_e2,12148,"[{""event"":""fullscreenenter"",""trial"":1,""time"":2044}]",NA,NA,NA,NA,NA,0,#741CD8,#D8271C,0,10,0,38,1,1615.3999999761581,37,1,326.69999998807907,0,0,experiment,NA,NA,2,0.5,0.5,5,4,234,6,NA
fcp-trial,284,1240817,0.0-245.0-0.0,voc_e2,12148,"[{""event"":""fullscreenenter"",""trial"":1,""time"":2044}]",NA,NA,NA,NA,NA,6,#3386FF,#D89F1C,0,10,0,40,0,1019.5,39,0,391,10,1,experiment,NA,NA,1,0.3,0.7,3,2,235,6,NA
fcp-trial,285,1244512,0.0-246.0-0.0,voc_e2,12148,"[{""event"":""fullscreenenter"",""trial"":1,""time"":2044}]",NA,NA,NA,NA,NA,2,#741CD8,#D8271C,0,0,0,38,1,1011.1999999880791,37,1,1175.2000000476835,0,0,experiment,NA,NA,2,0.5,0.5,5,4,236,6,NA
fcp-trial,286,1247066,0.0-247.0-0.0,voc_e2,12148,"[{""event"":""fullscreenenter"",""trial"":1,""time"":2044}]",NA,NA,NA,NA,NA,2,#1CD855,#FA92F8,0,0,1,38,1,794.5,37,1,250.5,0,1,experiment,NA,NA,0,0.9,0.1,0,1,237,6,NA
fcp-trial,287,1250041,0.0-248.0-0.0,voc_e2,12148,"[{""event"":""fullscreenenter"",""trial"":1,""time"":2044}]",NA,NA,NA,NA,NA,4,#3386FF,#D89F1C,0,0,0,40,0,1081.2999999523163,39,0,384.800000011921,0,1,experiment,NA,NA,1,0.3,0.7,3,2,238,6,NA
fcp-trial,288,1253510,0.0-249.0-0.0,voc_e2,12148,"[{""event"":""fullscreenenter"",""trial"":1,""time"":2044}]",NA,NA,NA,NA,NA,1,#3386FF,#D89F1C,0,10,0,38,1,1493.5,39,0,467.800000011921,10,1,experiment,NA,NA,1,0.3,0.7,3,2,239,6,NA
fcp-trial,289,1257505,0.0-250.0-0.0,voc_e2,12148,"[{""event"":""fullscreenenter"",""trial"":1,""time"":2044}]",NA,NA,NA,NA,NA,6,#741CD8,#D8271C,0,10,0,40,0,1930.699999988079,39,0,553.6999999880791,10,1,experiment,NA,NA,2,0.5,0.5,5,4,240,6,NA
fcp-trial,290,1261575,0.0-251.0-0.0,voc_e2,12148,"[{""event"":""fullscreenenter"",""trial"":1,""time"":2044}]",NA,NA,NA,NA,NA,3,#741CD8,#D8271C,0,10,0,38,1,1203.199999988079,37,1,1357.9000000357628,0,0,experiment,NA,NA,2,0.5,0.5,5,4,241,6,NA
fcp-trial,291,1264339,0.0-252.0-0.0,voc_e2,12148,"[{""event"":""fullscreenenter"",""trial"":1,""time"":2044}]",NA,NA,NA,NA,NA,1,#1CD855,#FA92F8,10,0,1,38,1,849.3999999761581,37,1,404.5,10,1,experiment,NA,NA,0,0.9,0.1,0,1,242,6,NA
fcp-trial,292,1266973,0.0-253.0-0.0,voc_e2,12148,"[{""event"":""fullscreenenter"",""trial"":1,""time"":2044}]",NA,NA,NA,NA,NA,5,#1CD855,#FA92F8,10,0,1,38,1,782.3999999761581,37,1,342.89999997615814,10,1,experiment,NA,NA,0,0.9,0.1,0,1,243,6,NA
fcp-trial,293,1270065,0.0-254.0-0.0,voc_e2,12148,"[{""event"":""fullscreenenter"",""trial"":1,""time"":2044}]",NA,NA,NA,NA,NA,5,#3386FF,#D89F1C,10,10,0,40,0,1152.699999988079,39,0,432.9000000357628,10,1,experiment,NA,NA,1,0.3,0.7,3,2,244,6,NA
fcp-trial,294,1272994,0.0-255.0-0.0,voc_e2,12148,"[{""event"":""fullscreenenter"",""trial"":1,""time"":2044}]",NA,NA,NA,NA,NA,3,#FA92F8,#1CD855,0,10,0,38,1,1139,39,0,282,10,1,experiment,NA,NA,0,0.1,0.9,1,0,245,6,NA
fcp-trial,295,1276766,0.0-256.0-0.0,voc_e2,12148,"[{""event"":""fullscreenenter"",""trial"":1,""time"":2044}]",NA,NA,NA,NA,NA,5,#D8271C,#741CD8,10,0,1,38,1,1188.1000000238419,37,1,1072.7999999523165,10,1,experiment,NA,NA,2,0.5,0.5,4,5,246,6,NA
fcp-trial,296,1279616,0.0-257.0-0.0,voc_e2,12148,"[{""event"":""fullscreenenter"",""trial"":1,""time"":2044}]",NA,NA,NA,NA,NA,0,#3386FF,#D89F1C,10,0,0,38,1,1005.1000000238419,39,0,337.10000002384186,0,1,experiment,NA,NA,1,0.3,0.7,3,2,247,6,NA
fcp-trial,297,1282516,0.0-258.0-0.0,voc_e2,12148,"[{""event"":""fullscreenenter"",""trial"":1,""time"":2044}]",NA,NA,NA,NA,NA,1,#741CD8,#D8271C,0,10,0,38,1,855.6000000238419,37,1,537,0,0,experiment,NA,NA,2,0.5,0.5,5,4,248,6,NA
fcp-trial,298,1285106,0.0-259.0-0.0,voc_e2,12148,"[{""event"":""fullscreenenter"",""trial"":1,""time"":2044}]",NA,NA,NA,NA,NA,0,#FA92F8,#1CD855,0,10,0,38,1,815,39,0,265.30000001192093,10,1,experiment,NA,NA,0,0.1,0.9,1,0,249,6,NA
fcp-trial,299,1288061,0.0-260.0-0.0,voc_e2,12148,"[{""event"":""fullscreenenter"",""trial"":1,""time"":2044}]",NA,NA,NA,NA,NA,4,#FA92F8,#1CD855,0,10,0,38,1,1157,39,0,289.7000000476837,10,1,experiment,NA,NA,0,0.1,0.9,1,0,250,6,NA
fcp-trial,300,1291333,0.0-261.0-0.0,voc_e2,12148,"[{""event"":""fullscreenenter"",""trial"":1,""time"":2044}]",NA,NA,NA,NA,NA,2,#3386FF,#D89F1C,0,0,0,38,1,1301.800000011921,37,1,461.800000011921,0,0,experiment,NA,NA,1,0.3,0.7,3,2,251,6,NA
fcp-trial,301,1293999,0.0-262.0-0.0,voc_e2,12148,"[{""event"":""fullscreenenter"",""trial"":1,""time"":2044}]",NA,NA,NA,NA,NA,4,#D8271C,#741CD8,10,10,1,38,1,825.6999999880791,37,1,332.7000000476837,10,1,experiment,NA,NA,2,0.5,0.5,4,5,252,6,NA
fcp-trial,302,1297167,0.0-263.0-0.0,voc_e2,12148,"[{""event"":""fullscreenenter"",""trial"":1,""time"":2044}]",NA,NA,NA,NA,NA,1,#D89F1C,#3386FF,10,0,1,38,1,1310,39,0,349.7000000476837,0,0,experiment,NA,NA,1,0.7,0.3,2,3,253,6,NA
fcp-trial,303,1302633,0.0-264.0-0.0,voc_e2,12148,"[{""event"":""fullscreenenter"",""trial"":1,""time"":2044}]",NA,NA,NA,NA,NA,3,#741CD8,#D8271C,10,10,0,38,1,3531.099999964237,39,0,425.60000002384186,10,1,experiment,NA,NA,2,0.5,0.5,5,4,254,6,NA
fcp-trial,304,1305116,0.0-265.0-0.0,voc_e2,12148,"[{""event"":""fullscreenenter"",""trial"":1,""time"":2044}]",NA,NA,NA,NA,NA,0,#1CD855,#FA92F8,10,0,1,38,1,704.3999999761581,37,1,270.4000000357628,10,1,experiment,NA,NA,0,0.9,0.1,0,1,255,6,NA
fcp-trial,305,1307324,0.0-266.0-0.0,voc_e2,12148,"[{""event"":""fullscreenenter"",""trial"":1,""time"":2044}]",NA,NA,NA,NA,NA,3,#D89F1C,#3386FF,0,10,1,38,1,409.60000002384186,37,1,289.19999998807907,0,1,experiment,NA,NA,1,0.7,0.3,2,3,256,6,NA
fcp-trial,306,1309657,0.0-267.0-0.0,voc_e2,12148,"[{""event"":""fullscreenenter"",""trial"":1,""time"":2044}]",NA,NA,NA,NA,NA,0,#D8271C,#741CD8,10,10,1,38,1,443.30000001192093,37,1,378.800000011921,10,1,experiment,NA,NA,2,0.5,0.5,4,5,257,6,NA
fcp-trial,307,1312049,0.0-268.0-0.0,voc_e2,12148,"[{""event"":""fullscreenenter"",""trial"":1,""time"":2044}]",NA,NA,NA,NA,NA,2,#1CD855,#FA92F8,10,0,1,38,1,629.5,37,1,254.19999998807907,10,1,experiment,NA,NA,0,0.9,0.1,0,1,258,6,NA
fcp-trial,308,1314334,0.0-269.0-0.0,voc_e2,12148,"[{""event"":""fullscreenenter"",""trial"":1,""time"":2044}]",NA,NA,NA,NA,NA,5,#D89F1C,#3386FF,0,0,1,38,1,489.30000001192093,37,1,287.69999998807907,0,1,experiment,NA,NA,1,0.7,0.3,2,3,259,6,NA
fcp-trial,309,1316624,0.0-270.0-0.0,voc_e2,12148,"[{""event"":""fullscreenenter"",""trial"":1,""time"":2044}]",NA,NA,NA,NA,NA,4,#1CD855,#FA92F8,10,0,1,38,1,426.10000002384186,37,1,355.19999998807907,10,1,experiment,NA,NA,0,0.9,0.1,0,1,260,6,NA
fcp-trial,310,1319541,0.0-271.0-0.0,voc_e2,12148,"[{""event"":""fullscreenenter"",""trial"":1,""time"":2044}]",NA,NA,NA,NA,NA,5,#1CD855,#FA92F8,10,0,1,38,1,1084.1000000238419,37,1,321.30000001192093,10,1,experiment,NA,NA,0,0.9,0.1,0,1,261,6,NA
fcp-trial,311,1322440,0.0-272.0-0.0,voc_e2,12148,"[{""event"":""fullscreenenter"",""trial"":1,""time"":2044}]",NA,NA,NA,NA,NA,1,#741CD8,#D8271C,10,0,0,38,1,822.1999999880791,39,0,566.0999999642372,0,1,experiment,NA,NA,2,0.5,0.5,5,4,262,6,NA
fcp-trial,312,1324872,0.0-273.0-0.0,voc_e2,12148,"[{""event"":""fullscreenenter"",""trial"":1,""time"":2044}]",NA,NA,NA,NA,NA,6,#FA92F8,#1CD855,0,10,0,38,1,652.3999999761581,39,0,271.19999998807907,10,1,experiment,NA,NA,0,0.1,0.9,1,0,263,6,NA
fcp-trial,313,1328152,0.0-274.0-0.0,voc_e2,12148,"[{""event"":""fullscreenenter"",""trial"":1,""time"":2044}]",NA,NA,NA,NA,NA,2,#D89F1C,#3386FF,10,0,1,38,1,1256.1000000238419,37,1,514.8999999761581,10,1,experiment,NA,NA,1,0.7,0.3,2,3,264,6,NA
fcp-trial,314,1330500,0.0-275.0-0.0,voc_e2,12148,"[{""event"":""fullscreenenter"",""trial"":1,""time"":2044}]",NA,NA,NA,NA,NA,3,#1CD855,#FA92F8,10,0,1,38,1,526.5,37,1,313.7999999523163,10,1,experiment,NA,NA,0,0.9,0.1,0,1,265,6,NA
fcp-trial,315,1333609,0.0-276.0-0.0,voc_e2,12148,"[{""event"":""fullscreenenter"",""trial"":1,""time"":2044}]",NA,NA,NA,NA,NA,4,#D8271C,#741CD8,0,10,1,40,0,1159.0999999642372,39,0,441.5,10,0,experiment,NA,NA,2,0.5,0.5,4,5,266,6,NA
fcp-trial,316,1336888,0.0-277.0-0.0,voc_e2,12148,"[{""event"":""fullscreenenter"",""trial"":1,""time"":2044}]",NA,NA,NA,NA,NA,6,#741CD8,#D8271C,0,10,0,38,1,699.1999999880791,37,1,1069.5999999642372,0,0,experiment,NA,NA,2,0.5,0.5,5,4,267,6,NA
fcp-trial,317,1340422,0.0-278.0-0.0,voc_e2,12148,"[{""event"":""fullscreenenter"",""trial"":1,""time"":2044}]",NA,NA,NA,NA,NA,0,#3386FF,#D89F1C,0,0,0,38,1,1670.0999999642372,39,0,353.5999999642372,0,1,experiment,NA,NA,1,0.3,0.7,3,2,268,6,NA
fcp-trial,318,1343767,0.0-279.0-0.0,voc_e2,12148,"[{""event"":""fullscreenenter"",""trial"":1,""time"":2044}]",NA,NA,NA,NA,NA,5,#D8271C,#741CD8,0,0,1,40,0,1254,39,0,582.8999999761581,0,0,experiment,NA,NA,2,0.5,0.5,4,5,269,6,NA
fcp-trial,319,1346831,0.0-280.0-0.0,voc_e2,12148,"[{""event"":""fullscreenenter"",""trial"":1,""time"":2044}]",NA,NA,NA,NA,NA,1,#1CD855,#FA92F8,10,0,1,38,1,1284.8999999761581,37,1,271.0999999642372,10,1,experiment,NA,NA,0,0.9,0.1,0,1,270,6,NA
fcp-trial,320,1350518,0.0-281.0-0.0,voc_e2,12148,"[{""event"":""fullscreenenter"",""trial"":1,""time"":2044}]",NA,NA,NA,NA,NA,6,#3386FF,#D89F1C,0,10,0,40,0,1779.4000000357628,39,0,399.800000011921,10,1,experiment,NA,NA,1,0.3,0.7,3,2,271,7,NA
fcp-trial,321,1353427,0.0-282.0-0.0,voc_e2,12148,"[{""event"":""fullscreenenter"",""trial"":1,""time"":2044}]",NA,NA,NA,NA,NA,2,#D8271C,#741CD8,10,0,1,40,0,1053,37,1,348.0999999642372,10,1,experiment,NA,NA,2,0.5,0.5,4,5,272,7,NA
fcp-trial,322,1357150,0.0-283.0-0.0,voc_e2,12148,"[{""event"":""fullscreenenter"",""trial"":1,""time"":2044}]",NA,NA,NA,NA,NA,4,#3386FF,#D89F1C,0,10,0,38,1,1758.4000000357628,39,0,454.199999988079,10,1,experiment,NA,NA,1,0.3,0.7,3,2,273,7,NA
fcp-trial,323,1361986,0.0-284.0-0.0,voc_e2,12148,"[{""event"":""fullscreenenter"",""trial"":1,""time"":2044}]",NA,NA,NA,NA,NA,6,#741CD8,#D8271C,0,10,0,40,0,2727,37,1,599.6999999880791,0,0,experiment,NA,NA,2,0.5,0.5,5,4,274,7,NA
fcp-trial,324,1365268,0.0-285.0-0.0,voc_e2,12148,"[{""event"":""fullscreenenter"",""trial"":1,""time"":2044}]",NA,NA,NA,NA,NA,2,#1CD855,#FA92F8,10,10,1,38,1,1405.4000000357628,37,1,368.7000000476837,10,1,experiment,NA,NA,0,0.9,0.1,0,1,275,7,NA
fcp-trial,325,1368196,0.0-286.0-0.0,voc_e2,12148,"[{""event"":""fullscreenenter"",""trial"":1,""time"":2044}]",NA,NA,NA,NA,NA,6,#1CD855,#FA92F8,10,10,1,38,1,1054,37,1,365.699999988079,10,1,experiment,NA,NA,0,0.9,0.1,0,1,276,7,NA
fcp-trial,326,1371862,0.0-287.0-0.0,voc_e2,12148,"[{""event"":""fullscreenenter"",""trial"":1,""time"":2044}]",NA,NA,NA,NA,NA,0,#3386FF,#D89F1C,0,0,0,38,1,1612.699999988079,39,0,542,0,1,experiment,NA,NA,1,0.3,0.7,3,2,277,7,NA
fcp-trial,327,1374675,0.0-288.0-0.0,voc_e2,12148,"[{""event"":""fullscreenenter"",""trial"":1,""time"":2044}]",NA,NA,NA,NA,NA,4,#D89F1C,#3386FF,10,0,1,38,1,996.2999999523163,37,1,308,10,1,experiment,NA,NA,1,0.7,0.3,2,3,278,7,NA
fcp-trial,328,1377227,0.0-289.0-0.0,voc_e2,12148,"[{""event"":""fullscreenenter"",""trial"":1,""time"":2044}]",NA,NA,NA,NA,NA,3,#D8271C,#741CD8,0,0,1,38,1,718,37,1,324,0,1,experiment,NA,NA,2,0.5,0.5,4,5,279,7,NA
fcp-trial,329,1379657,0.0-290.0-0.0,voc_e2,12148,"[{""event"":""fullscreenenter"",""trial"":1,""time"":2044}]",NA,NA,NA,NA,NA,1,#1CD855,#FA92F8,10,0,1,38,1,648.1000000238419,37,1,271.60000002384186,10,1,experiment,NA,NA,0,0.9,0.1,0,1,280,7,NA
fcp-trial,330,1382969,0.0-291.0-0.0,voc_e2,12148,"[{""event"":""fullscreenenter"",""trial"":1,""time"":2044}]",NA,NA,NA,NA,NA,6,#3386FF,#D89F1C,10,10,0,40,0,1297.0999999642372,37,1,505.800000011921,10,0,experiment,NA,NA,1,0.3,0.7,3,2,281,7,NA
fcp-trial,331,1385767,0.0-292.0-0.0,voc_e2,12148,"[{""event"":""fullscreenenter"",""trial"":1,""time"":2044}]",NA,NA,NA,NA,NA,0,#FA92F8,#1CD855,0,10,0,38,1,1014,39,0,275.5,10,1,experiment,NA,NA,0,0.1,0.9,1,0,282,7,NA
fcp-trial,332,1389433,0.0-293.0-0.0,voc_e2,12148,"[{""event"":""fullscreenenter"",""trial"":1,""time"":2044}]",NA,NA,NA,NA,NA,1,#741CD8,#D8271C,0,0,0,38,1,1076.9000000357628,37,1,1080.600000023842,0,0,experiment,NA,NA,2,0.5,0.5,5,4,283,7,NA
fcp-trial,333,1392261,0.0-294.0-0.0,voc_e2,12148,"[{""event"":""fullscreenenter"",""trial"":1,""time"":2044}]",NA,NA,NA,NA,NA,0,#D8271C,#741CD8,10,10,1,38,1,945.3000000119209,39,0,375,10,0,experiment,NA,NA,2,0.5,0.5,4,5,284,7,NA
fcp-trial,334,1396184,0.0-295.0-0.0,voc_e2,12148,"[{""event"":""fullscreenenter"",""trial"":1,""time"":2044}]",NA,NA,NA,NA,NA,5,#D89F1C,#3386FF,10,10,1,38,1,1688.6000000238419,37,1,723.8000000119209,10,1,experiment,NA,NA,1,0.7,0.3,2,3,285,7,NA
fcp-trial,335,1399298,0.0-296.0-0.0,voc_e2,12148,"[{""event"":""fullscreenenter"",""trial"":1,""time"":2044}]",NA,NA,NA,NA,NA,3,#FA92F8,#1CD855,0,0,0,38,1,990.4000000357628,39,0,618.0999999642372,0,1,experiment,NA,NA,0,0.1,0.9,1,0,286,7,NA
fcp-trial,336,1402534,0.0-297.0-0.0,voc_e2,12148,"[{""event"":""fullscreenenter"",""trial"":1,""time"":2044}]",NA,NA,NA,NA,NA,2,#D8271C,#741CD8,0,10,1,38,1,1257.800000011921,39,0,470.2000000476837,10,0,experiment,NA,NA,2,0.5,0.5,4,5,287,7,NA
fcp-trial,337,1405577,0.0-298.0-0.0,voc_e2,12148,"[{""event"":""fullscreenenter"",""trial"":1,""time"":2044}]",NA,NA,NA,NA,NA,2,#D89F1C,#3386FF,0,0,1,38,1,1234.5,37,1,299.2000000476837,0,1,experiment,NA,NA,1,0.7,0.3,2,3,288,7,NA
fcp-trial,338,1408286,0.0-299.0-0.0,voc_e2,12148,"[{""event"":""fullscreenenter"",""trial"":1,""time"":2044}]",NA,NA,NA,NA,NA,1,#D89F1C,#3386FF,0,0,1,38,1,894,37,1,304.69999998807907,0,1,experiment,NA,NA,1,0.7,0.3,2,3,289,7,NA
fcp-trial,339,1411966,0.0-300.0-0.0,voc_e2,12148,"[{""event"":""fullscreenenter"",""trial"":1,""time"":2044}]",NA,NA,NA,NA,NA,4,#741CD8,#D8271C,0,10,0,40,0,1675.699999988079,39,0,495.800000011921,10,1,experiment,NA,NA,2,0.5,0.5,5,4,290,7,NA
fcp-trial,340,1415879,0.0-301.0-0.0,voc_e2,12148,"[{""event"":""fullscreenenter"",""trial"":1,""time"":2044}]",NA,NA,NA,NA,NA,5,#1CD855,#FA92F8,10,10,1,38,1,2087.5,37,1,316.7999999523163,10,1,experiment,NA,NA,0,0.9,0.1,0,1,291,7,NA
fcp-trial,341,1418664,0.0-302.0-0.0,voc_e2,12148,"[{""event"":""fullscreenenter"",""trial"":1,""time"":2044}]",NA,NA,NA,NA,NA,3,#3386FF,#D89F1C,0,10,0,40,0,925.3999999761581,39,0,348.7999999523163,10,1,experiment,NA,NA,1,0.3,0.7,3,2,292,7,NA
fcp-trial,342,1422397,0.0-303.0-0.0,voc_e2,12148,"[{""event"":""fullscreenenter"",""trial"":1,""time"":2044}]",NA,NA,NA,NA,NA,4,#1CD855,#FA92F8,10,0,1,40,0,1768.699999988079,37,1,454.5999999642372,10,1,experiment,NA,NA,0,0.9,0.1,0,1,293,7,NA
fcp-trial,343,1425651,0.0-304.0-0.0,voc_e2,12148,"[{""event"":""fullscreenenter"",""trial"":1,""time"":2044}]",NA,NA,NA,NA,NA,5,#D8271C,#741CD8,10,0,1,40,0,1244,37,1,499.89999997615814,10,1,experiment,NA,NA,2,0.5,0.5,4,5,294,7,NA
fcp-trial,344,1428633,0.0-305.0-0.0,voc_e2,12148,"[{""event"":""fullscreenenter"",""trial"":1,""time"":2044}]",NA,NA,NA,NA,NA,6,#D89F1C,#3386FF,0,0,1,40,0,952.0999999642372,37,1,522.5999999642372,0,1,experiment,NA,NA,1,0.7,0.3,2,3,295,7,NA
fcp-trial,345,1432395,0.0-306.0-0.0,voc_e2,12148,"[{""event"":""fullscreenenter"",""trial"":1,""time"":2044}]",NA,NA,NA,NA,NA,3,#FA92F8,#1CD855,10,10,0,40,0,1502.1000000238419,37,1,750.6999999880791,10,0,experiment,NA,NA,0,0.1,0.9,1,0,296,7,NA
fcp-trial,346,1436080,0.0-307.0-0.0,voc_e2,12148,"[{""event"":""fullscreenenter"",""trial"":1,""time"":2044}]",NA,NA,NA,NA,NA,0,#3386FF,#D89F1C,0,10,0,38,1,1723.699999988079,39,0,450.800000011921,10,1,experiment,NA,NA,1,0.3,0.7,3,2,297,7,NA
fcp-trial,347,1438901,0.0-308.0-0.0,voc_e2,12148,"[{""event"":""fullscreenenter"",""trial"":1,""time"":2044}]",NA,NA,NA,NA,NA,1,#FA92F8,#1CD855,0,0,0,38,1,915.4000000357628,39,0,398.5999999642372,0,1,experiment,NA,NA,0,0.1,0.9,1,0,298,7,NA
fcp-trial,348,1442185,0.0-309.0-0.0,voc_e2,12148,"[{""event"":""fullscreenenter"",""trial"":1,""time"":2044}]",NA,NA,NA,NA,NA,6,#1CD855,#FA92F8,10,0,1,40,0,1355.6000000238419,37,1,421.5,10,1,experiment,NA,NA,0,0.9,0.1,0,1,299,7,NA
fcp-trial,349,1445000,0.0-310.0-0.0,voc_e2,12148,"[{""event"":""fullscreenenter"",""trial"":1,""time"":2044}]",NA,NA,NA,NA,NA,0,#741CD8,#D8271C,10,10,0,38,1,984.3000000119209,39,0,323.10000002384186,10,1,experiment,NA,NA,2,0.5,0.5,5,4,300,7,NA
fcp-trial,350,1449196,0.0-311.0-0.0,voc_e2,12148,"[{""event"":""fullscreenenter"",""trial"":1,""time"":2044}]",NA,NA,NA,NA,NA,5,#741CD8,#D8271C,10,0,0,40,0,2145.400000035763,37,1,543.5,10,0,experiment,NA,NA,2,0.5,0.5,5,4,301,7,NA
fcp-trial,351,1452203,0.0-312.0-0.0,voc_e2,12148,"[{""event"":""fullscreenenter"",""trial"":1,""time"":2044}]",NA,NA,NA,NA,NA,5,#3386FF,#D89F1C,0,10,0,40,0,1168.1000000238419,39,0,328.10000002384186,10,1,experiment,NA,NA,1,0.3,0.7,3,2,302,7,NA
fcp-trial,352,1455178,0.0-313.0-0.0,voc_e2,12148,"[{""event"":""fullscreenenter"",""trial"":1,""time"":2044}]",NA,NA,NA,NA,NA,4,#FA92F8,#1CD855,0,10,0,38,1,1188.199999988079,39,0,279.0999999642372,10,1,experiment,NA,NA,0,0.1,0.9,1,0,303,7,NA
fcp-trial,353,1458855,0.0-314.0-0.0,voc_e2,12148,"[{""event"":""fullscreenenter"",""trial"":1,""time"":2044}]",NA,NA,NA,NA,NA,2,#D8271C,#741CD8,10,10,1,38,1,1622,37,1,544.6999999880791,10,1,experiment,NA,NA,2,0.5,0.5,4,5,304,7,NA
fcp-trial,354,1463063,0.0-315.0-0.0,voc_e2,12148,"[{""event"":""fullscreenenter"",""trial"":1,""time"":2044}]",NA,NA,NA,NA,NA,3,#3386FF,#D89F1C,0,10,0,38,1,1973.6000000238419,39,0,725.5999999642372,10,1,experiment,NA,NA,1,0.3,0.7,3,2,305,7,NA
fcp-trial,355,1465714,0.0-316.0-0.0,voc_e2,12148,"[{""event"":""fullscreenenter"",""trial"":1,""time"":2044}]",NA,NA,NA,NA,NA,1,#D8271C,#741CD8,10,10,1,38,1,871.5,37,1,268.69999998807907,10,1,experiment,NA,NA,2,0.5,0.5,4,5,306,7,NA
fcp-trial,356,1468750,0.0-317.0-0.0,voc_e2,12148,"[{""event"":""fullscreenenter"",""trial"":1,""time"":2044}]",NA,NA,NA,NA,NA,4,#D89F1C,#3386FF,10,10,1,38,1,1167.800000011921,39,0,359.69999998807907,10,0,experiment,NA,NA,1,0.7,0.3,2,3,307,7,NA
fcp-trial,357,1472561,0.0-318.0-0.0,voc_e2,12148,"[{""event"":""fullscreenenter"",""trial"":1,""time"":2044}]",NA,NA,NA,NA,NA,5,#1CD855,#FA92F8,10,0,1,40,0,1562.300000011921,39,0,739.6000000238419,0,0,experiment,NA,NA,0,0.9,0.1,0,1,308,7,NA
fcp-trial,358,1476585,0.0-319.0-0.0,voc_e2,12148,"[{""event"":""fullscreenenter"",""trial"":1,""time"":2044}]",NA,NA,NA,NA,NA,2,#3386FF,#D89F1C,0,10,0,38,1,1265.699999988079,39,0,1248.600000023842,10,1,experiment,NA,NA,1,0.3,0.7,3,2,309,7,NA
fcp-trial,359,1480284,0.0-320.0-0.0,voc_e2,12148,"[{""event"":""fullscreenenter"",""trial"":1,""time"":2044}]",NA,NA,NA,NA,NA,4,#741CD8,#D8271C,10,10,0,38,1,1377.5,37,1,813.6000000238419,10,0,experiment,NA,NA,2,0.5,0.5,5,4,310,7,NA
fcp-trial,360,1483186,0.0-321.0-0.0,voc_e2,12148,"[{""event"":""fullscreenenter"",""trial"":1,""time"":2044}]",NA,NA,NA,NA,NA,0,#1CD855,#FA92F8,10,0,1,38,1,855,37,1,538.3999999761581,10,1,experiment,NA,NA,0,0.9,0.1,0,1,311,7,NA
fcp-trial,361,1486468,0.0-322.0-0.0,voc_e2,12148,"[{""event"":""fullscreenenter"",""trial"":1,""time"":2044}]",NA,NA,NA,NA,NA,1,#3386FF,#D89F1C,10,10,0,38,1,893,37,1,882.3999999761581,10,0,experiment,NA,NA,1,0.3,0.7,3,2,312,7,NA
fcp-trial,362,1489823,0.0-323.0-0.0,voc_e2,12148,"[{""event"":""fullscreenenter"",""trial"":1,""time"":2044}]",NA,NA,NA,NA,NA,2,#FA92F8,#1CD855,0,10,0,38,1,1555.5999999642372,39,0,291.0999999642372,10,1,experiment,NA,NA,0,0.1,0.9,1,0,313,7,NA
fcp-trial,363,1493152,0.0-324.0-0.0,voc_e2,12148,"[{""event"":""fullscreenenter"",""trial"":1,""time"":2044}]",NA,NA,NA,NA,NA,6,#D8271C,#741CD8,0,10,1,40,0,1331.6000000238419,37,1,488.60000002384186,0,1,experiment,NA,NA,2,0.5,0.5,4,5,314,7,NA
fcp-trial,364,1496292,0.0-325.0-0.0,voc_e2,12148,"[{""event"":""fullscreenenter"",""trial"":1,""time"":2044}]",NA,NA,NA,NA,NA,3,#741CD8,#D8271C,10,10,0,40,0,1260.699999988079,39,0,370.5,10,1,experiment,NA,NA,2,0.5,0.5,5,4,315,7,NA
audio-instructions,365,1502837,0.0-326.0,voc_e2,12148,"[{""event"":""fullscreenenter"",""trial"":1,""time"":2044}]",NA,879.1999999880791,static/audio/finished.wav,NA,0,NA,NA,NA,NA,NA,NA,NA,NA,NA,NA,NA,NA,NA,NA,NA,NA,NA,NA,NA,NA,NA,NA,NA,NA,NA
audio-instructions,366,1515119,0.0-327.0-0.0,voc_e2,12148,"[{""event"":""fullscreenenter"",""trial"":1,""time"":2044}]",NA,1445,static/audio/explicit1.wav,NA,0,NA,NA,NA,NA,NA,NA,NA,NA,NA,NA,NA,NA,NA,NA,NA,NA,NA,NA,NA,NA,NA,NA,NA,NA,NA
audio-instructions,367,1523046,0.0-327.0-1.0,voc_e2,12148,"[{""event"":""fullscreenenter"",""trial"":1,""time"":2044}]",NA,331.5,static/audio/explicit2.wav,NA,0,NA,NA,NA,NA,NA,NA,NA,NA,NA,NA,NA,NA,NA,NA,NA,NA,NA,NA,NA,NA,NA,NA,NA,NA,NA
image-slider-response,368,1531567,0.0-328.0,voc_e2,12148,"[{""event"":""fullscreenenter"",""trial"":1,""time"":2044}]",NA,8517.199999988079,static/img/machines/machine5.png,NA,NA,NA,NA,NA,NA,NA,NA,NA,NA,NA,NA,NA,NA,NA,NA,explicit,NA,NA,NA,NA,NA,NA,NA,NA,NA,3
image-slider-response,369,1537620,0.0-329.0,voc_e2,12148,"[{""event"":""fullscreenenter"",""trial"":1,""time"":2044}]",NA,6049.199999988079,static/img/machines/machine6.png,NA,NA,NA,NA,NA,NA,NA,NA,NA,NA,NA,NA,NA,NA,NA,NA,explicit,NA,NA,NA,NA,NA,NA,NA,NA,NA,7
image-slider-response,370,1545040,0.0-330.0,voc_e2,12148,"[{""event"":""fullscreenenter"",""trial"":1,""time"":2044}]",NA,7416.899999976158,static/img/machines/machine4.png,NA,NA,NA,NA,NA,NA,NA,NA,NA,NA,NA,NA,NA,NA,NA,NA,explicit,NA,NA,NA,NA,NA,NA,NA,NA,NA,6
image-slider-response,371,1549653,0.0-331.0,voc_e2,12148,"[{""event"":""fullscreenenter"",""trial"":1,""time"":2044}]",NA,4608.399999976158,static/img/machines/machine1.png,NA,NA,NA,NA,NA,NA,NA,NA,NA,NA,NA,NA,NA,NA,NA,NA,explicit,NA,NA,NA,NA,NA,NA,NA,NA,NA,7
image-slider-response,372,1553359,0.0-332.0,voc_e2,12148,"[{""event"":""fullscreenenter"",""trial"":1,""time"":2044}]",NA,3702.400000035763,static/img/machines/machine3.png,NA,NA,NA,NA,NA,NA,NA,NA,NA,NA,NA,NA,NA,NA,NA,NA,explicit,NA,NA,NA,NA,NA,NA,NA,NA,NA,4
image-slider-response,373,1557743,0.0-333.0,voc_e2,12148,"[{""event"":""fullscreenenter"",""trial"":1,""time"":2044}]",NA,4381,static/img/machines/machine2.png,NA,NA,NA,NA,NA,NA,NA,NA,NA,NA,NA,NA,NA,NA,NA,NA,explicit,NA,NA,NA,NA,NA,NA,NA,NA,NA,4
