trial_type,trial_index,time_elapsed,internal_node_id,task_version,subject_id,interactions,success,rt,stimulus,key_press,button_pressed,offer,arcade_color_L,arcade_color_R,arcade_outcome_L,arcade_outcome_R,correct,stage_1_key,stage_1_choice,stage_1_rt,stage_2_key,stage_2_choice,stage_2_rt,stage_3_outcome,accuracy,phase,responses,num_errors,context,reward_prob_L,reward_prob_R,arcade_id_L,arcade_id_R,trial,block,response
pavlovia,0,9,0.0-0.0,voc_e2,11817,[],NA,NA,NA,NA,NA,NA,NA,NA,NA,NA,NA,NA,NA,NA,NA,NA,NA,NA,NA,NA,NA,NA,NA,NA,NA,NA,NA,NA,NA,NA
fullscreen,1,2316,0.0-1.0,voc_e2,11817,"[{""event"":""fullscreenenter"",""trial"":1,""time"":1329},{""event"":""fullscreenexit"",""trial"":1,""time"":1701}]",TRUE,NA,NA,NA,NA,NA,NA,NA,NA,NA,NA,NA,NA,NA,NA,NA,NA,NA,NA,NA,NA,NA,NA,NA,NA,NA,NA,NA,NA,NA
audio-keyboard-response,2,4905,0.0-2.0,voc_e2,11817,"[{""event"":""fullscreenenter"",""trial"":1,""time"":1329},{""event"":""fullscreenexit"",""trial"":1,""time"":1701}]",NA,2531,static/audio/beep_loop.wav,32,NA,NA,NA,NA,NA,NA,NA,NA,NA,NA,NA,NA,NA,NA,NA,NA,NA,NA,NA,NA,NA,NA,NA,NA,NA,NA
audio-test,3,6091,0.0-3.0,voc_e2,11817,"[{""event"":""fullscreenenter"",""trial"":1,""time"":1329},{""event"":""fullscreenexit"",""trial"":1,""time"":1701}]",NA,NA,static/audio/turtle.wav,NA,3,NA,NA,NA,NA,NA,NA,NA,NA,NA,NA,NA,NA,NA,NA,NA,NA,NA,NA,NA,NA,NA,NA,NA,NA,NA
audio-test,4,8322,0.0-4.0,voc_e2,11817,"[{""event"":""fullscreenenter"",""trial"":1,""time"":1329},{""event"":""fullscreenexit"",""trial"":1,""time"":1701}]",NA,NA,static/audio/shark.wav,NA,2,NA,NA,NA,NA,NA,NA,NA,NA,NA,NA,NA,NA,NA,NA,NA,NA,NA,NA,NA,NA,NA,NA,NA,NA,NA
audio-instructions,5,15097,0.0-5.0-0.0,voc_e2,11817,"[{""event"":""fullscreenenter"",""trial"":1,""time"":1329},{""event"":""fullscreenexit"",""trial"":1,""time"":1701}]",NA,969.5,static/audio/instructions1.wav,NA,0,NA,NA,NA,NA,NA,NA,NA,NA,NA,NA,NA,NA,NA,NA,NA,NA,NA,NA,NA,NA,NA,NA,NA,NA,NA
audio-instructions,6,25529,0.0-5.0-1.0,voc_e2,11817,"[{""event"":""fullscreenenter"",""trial"":1,""time"":1329},{""event"":""fullscreenexit"",""trial"":1,""time"":1701},{""event"":""blur"",""trial"":6,""time"":18113},{""event"":""focus"",""trial"":6,""time"":22679}]",NA,3692.60000000149,static/audio/instructions2.wav,NA,0,NA,NA,NA,NA,NA,NA,NA,NA,NA,NA,NA,NA,NA,NA,NA,NA,NA,NA,NA,NA,NA,NA,NA,NA,NA
audio-instructions,7,32271,0.0-5.0-2.0,voc_e2,11817,"[{""event"":""fullscreenenter"",""trial"":1,""time"":1329},{""event"":""fullscreenexit"",""trial"":1,""time"":1701},{""event"":""blur"",""trial"":6,""time"":18113},{""event"":""focus"",""trial"":6,""time"":22679}]",NA,933.7999999970198,static/audio/instructions3.wav,NA,0,NA,NA,NA,NA,NA,NA,NA,NA,NA,NA,NA,NA,NA,NA,NA,NA,NA,NA,NA,NA,NA,NA,NA,NA,NA
audio-instructions,8,46528,0.0-5.0-3.0,voc_e2,11817,"[{""event"":""fullscreenenter"",""trial"":1,""time"":1329},{""event"":""fullscreenexit"",""trial"":1,""time"":1701},{""event"":""blur"",""trial"":6,""time"":18113},{""event"":""focus"",""trial"":6,""time"":22679}]",NA,1031.7000000029802,static/audio/instructions4.wav,NA,0,NA,NA,NA,NA,NA,NA,NA,NA,NA,NA,NA,NA,NA,NA,NA,NA,NA,NA,NA,NA,NA,NA,NA,NA,NA
audio-instructions,9,56424,0.0-5.0-4.0,voc_e2,11817,"[{""event"":""fullscreenenter"",""trial"":1,""time"":1329},{""event"":""fullscreenexit"",""trial"":1,""time"":1701},{""event"":""blur"",""trial"":6,""time"":18113},{""event"":""focus"",""trial"":6,""time"":22679}]",NA,507.5,static/audio/instructions5.wav,NA,0,NA,NA,NA,NA,NA,NA,NA,NA,NA,NA,NA,NA,NA,NA,NA,NA,NA,NA,NA,NA,NA,NA,NA,NA,NA
fcp-practice,10,59267,0.0-5.0-5.0-0.0,voc_e2,11817,"[{""event"":""fullscreenenter"",""trial"":1,""time"":1329},{""event"":""fullscreenexit"",""trial"":1,""time"":1701},{""event"":""blur"",""trial"":6,""time"":18113},{""event"":""focus"",""trial"":6,""time"":22679}]",NA,NA,NA,NA,NA,NA,#EDC948,#46d3c8,10,0,1,null,null,null,37,1,1324.3000000044703,10,1,practice,NA,NA,NA,NA,NA,NA,NA,NA,NA,NA
fcp-practice,11,61200,0.0-5.0-5.0-1.0,voc_e2,11817,"[{""event"":""fullscreenenter"",""trial"":1,""time"":1329},{""event"":""fullscreenexit"",""trial"":1,""time"":1701},{""event"":""blur"",""trial"":6,""time"":18113},{""event"":""focus"",""trial"":6,""time"":22679}]",NA,NA,NA,NA,NA,NA,#EDC948,#46d3c8,10,0,1,null,null,null,37,1,408.8999999985099,10,1,practice,NA,NA,NA,NA,NA,NA,NA,NA,NA,NA
fcp-practice,12,63419,0.0-5.0-5.0-2.0,voc_e2,11817,"[{""event"":""fullscreenenter"",""trial"":1,""time"":1329},{""event"":""fullscreenexit"",""trial"":1,""time"":1701},{""event"":""blur"",""trial"":6,""time"":18113},{""event"":""focus"",""trial"":6,""time"":22679}]",NA,NA,NA,NA,NA,NA,#EDC948,#46d3c8,0,10,1,null,null,null,37,1,705,0,1,practice,NA,NA,NA,NA,NA,NA,NA,NA,NA,NA
fcp-practice,13,65434,0.0-5.0-5.0-3.0,voc_e2,11817,"[{""event"":""fullscreenenter"",""trial"":1,""time"":1329},{""event"":""fullscreenexit"",""trial"":1,""time"":1701},{""event"":""blur"",""trial"":6,""time"":18113},{""event"":""focus"",""trial"":6,""time"":22679}]",NA,NA,NA,NA,NA,NA,#EDC948,#46d3c8,10,0,1,null,null,null,37,1,505.6000000014901,10,1,practice,NA,NA,NA,NA,NA,NA,NA,NA,NA,NA
fcp-practice,14,67905,0.0-5.0-5.0-4.0,voc_e2,11817,"[{""event"":""fullscreenenter"",""trial"":1,""time"":1329},{""event"":""fullscreenexit"",""trial"":1,""time"":1701},{""event"":""blur"",""trial"":6,""time"":18113},{""event"":""focus"",""trial"":6,""time"":22679}]",NA,NA,NA,NA,NA,NA,#EDC948,#46d3c8,10,0,1,null,null,null,37,1,959.9000000059604,10,1,practice,NA,NA,NA,NA,NA,NA,NA,NA,NA,NA
audio-instructions,15,87382,0.0-5.0-6.0,voc_e2,11817,"[{""event"":""fullscreenenter"",""trial"":1,""time"":1329},{""event"":""fullscreenexit"",""trial"":1,""time"":1701},{""event"":""blur"",""trial"":6,""time"":18113},{""event"":""focus"",""trial"":6,""time"":22679},{""event"":""blur"",""trial"":15,""time"":73320},{""event"":""focus"",""trial"":15,""time"":84272}]",NA,1465.10000000149,static/audio/instructions6.wav,NA,0,NA,NA,NA,NA,NA,NA,NA,NA,NA,NA,NA,NA,NA,NA,NA,NA,NA,NA,NA,NA,NA,NA,NA,NA,NA
audio-instructions,16,107568,0.0-5.0-7.0,voc_e2,11817,"[{""event"":""fullscreenenter"",""trial"":1,""time"":1329},{""event"":""fullscreenexit"",""trial"":1,""time"":1701},{""event"":""blur"",""trial"":6,""time"":18113},{""event"":""focus"",""trial"":6,""time"":22679},{""event"":""blur"",""trial"":15,""time"":73320},{""event"":""focus"",""trial"":15,""time"":84272}]",NA,993.10000000149,static/audio/instructions7.wav,NA,0,NA,NA,NA,NA,NA,NA,NA,NA,NA,NA,NA,NA,NA,NA,NA,NA,NA,NA,NA,NA,NA,NA,NA,NA,NA
audio-instructions,17,118093,0.0-5.0-8.0,voc_e2,11817,"[{""event"":""fullscreenenter"",""trial"":1,""time"":1329},{""event"":""fullscreenexit"",""trial"":1,""time"":1701},{""event"":""blur"",""trial"":6,""time"":18113},{""event"":""focus"",""trial"":6,""time"":22679},{""event"":""blur"",""trial"":15,""time"":73320},{""event"":""focus"",""trial"":15,""time"":84272}]",NA,1057.5,static/audio/instructions8.wav,NA,0,NA,NA,NA,NA,NA,NA,NA,NA,NA,NA,NA,NA,NA,NA,NA,NA,NA,NA,NA,NA,NA,NA,NA,NA,NA
fcp-comprehension,18,126366,0.0-5.0-9.0,voc_e2,11817,"[{""event"":""fullscreenenter"",""trial"":1,""time"":1329},{""event"":""fullscreenexit"",""trial"":1,""time"":1701},{""event"":""blur"",""trial"":6,""time"":18113},{""event"":""focus"",""trial"":6,""time"":22679},{""event"":""blur"",""trial"":15,""time"":73320},{""event"":""focus"",""trial"":15,""time"":84272}]",NA,8271.5,NA,NA,NA,NA,NA,NA,NA,NA,NA,NA,NA,NA,NA,NA,NA,NA,NA,NA,"true,true",0,NA,NA,NA,NA,NA,NA,NA,NA
audio-instructions,19,132885,0.0-6.0-0.0,voc_e2,11817,"[{""event"":""fullscreenenter"",""trial"":1,""time"":1329},{""event"":""fullscreenexit"",""trial"":1,""time"":1701},{""event"":""blur"",""trial"":6,""time"":18113},{""event"":""focus"",""trial"":6,""time"":22679},{""event"":""blur"",""trial"":15,""time"":73320},{""event"":""focus"",""trial"":15,""time"":84272}]",NA,969.60000000149,static/audio/instructions9.wav,NA,0,NA,NA,NA,NA,NA,NA,NA,NA,NA,NA,NA,NA,NA,NA,NA,NA,NA,NA,NA,NA,NA,NA,NA,NA,NA
audio-instructions,20,145597,0.0-6.0-1.0,voc_e2,11817,"[{""event"":""fullscreenenter"",""trial"":1,""time"":1329},{""event"":""fullscreenexit"",""trial"":1,""time"":1701},{""event"":""blur"",""trial"":6,""time"":18113},{""event"":""focus"",""trial"":6,""time"":22679},{""event"":""blur"",""trial"":15,""time"":73320},{""event"":""focus"",""trial"":15,""time"":84272}]",NA,591.5,static/audio/instructions10.wav,NA,0,NA,NA,NA,NA,NA,NA,NA,NA,NA,NA,NA,NA,NA,NA,NA,NA,NA,NA,NA,NA,NA,NA,NA,NA,NA
fcp-trial,21,149484,0.0-6.0-2.0,voc_e2,11817,"[{""event"":""fullscreenenter"",""trial"":1,""time"":1329},{""event"":""fullscreenexit"",""trial"":1,""time"":1701},{""event"":""blur"",""trial"":6,""time"":18113},{""event"":""focus"",""trial"":6,""time"":22679},{""event"":""blur"",""trial"":15,""time"":73320},{""event"":""focus"",""trial"":15,""time"":84272}]",NA,NA,NA,NA,NA,0,#EDC948,#46d3c8,10,10,1,38,1,1159.5,37,1,1194.8000000044703,10,1,practice,NA,NA,NA,NA,NA,NA,NA,NA,NA,NA
audio-instructions,22,161333,0.0-6.0-3.0,voc_e2,11817,"[{""event"":""fullscreenenter"",""trial"":1,""time"":1329},{""event"":""fullscreenexit"",""trial"":1,""time"":1701},{""event"":""blur"",""trial"":6,""time"":18113},{""event"":""focus"",""trial"":6,""time"":22679},{""event"":""blur"",""trial"":15,""time"":73320},{""event"":""focus"",""trial"":15,""time"":84272}]",NA,837.7999999970198,static/audio/instructions11.wav,NA,0,NA,NA,NA,NA,NA,NA,NA,NA,NA,NA,NA,NA,NA,NA,NA,NA,NA,NA,NA,NA,NA,NA,NA,NA,NA
fcp-trial,23,164801,0.0-6.0-4.0,voc_e2,11817,"[{""event"":""fullscreenenter"",""trial"":1,""time"":1329},{""event"":""fullscreenexit"",""trial"":1,""time"":1701},{""event"":""blur"",""trial"":6,""time"":18113},{""event"":""focus"",""trial"":6,""time"":22679},{""event"":""blur"",""trial"":15,""time"":73320},{""event"":""focus"",""trial"":15,""time"":84272}]",NA,NA,NA,NA,NA,6,#EDC948,#46d3c8,10,10,1,40,0,764.7000000029802,37,1,1173.60000000149,10,1,practice,NA,NA,NA,NA,NA,NA,NA,NA,NA,NA
audio-instructions,24,184708,0.0-6.0-5.0,voc_e2,11817,"[{""event"":""fullscreenenter"",""trial"":1,""time"":1329},{""event"":""fullscreenexit"",""trial"":1,""time"":1701},{""event"":""blur"",""trial"":6,""time"":18113},{""event"":""focus"",""trial"":6,""time"":22679},{""event"":""blur"",""trial"":15,""time"":73320},{""event"":""focus"",""trial"":15,""time"":84272}]",NA,1223.7999999970198,static/audio/instructions12.wav,NA,0,NA,NA,NA,NA,NA,NA,NA,NA,NA,NA,NA,NA,NA,NA,NA,NA,NA,NA,NA,NA,NA,NA,NA,NA,NA
audio-instructions,25,192988,0.0-6.0-6.0,voc_e2,11817,"[{""event"":""fullscreenenter"",""trial"":1,""time"":1329},{""event"":""fullscreenexit"",""trial"":1,""time"":1701},{""event"":""blur"",""trial"":6,""time"":18113},{""event"":""focus"",""trial"":6,""time"":22679},{""event"":""blur"",""trial"":15,""time"":73320},{""event"":""focus"",""trial"":15,""time"":84272}]",NA,683.7000000029802,static/audio/instructions13.wav,NA,0,NA,NA,NA,NA,NA,NA,NA,NA,NA,NA,NA,NA,NA,NA,NA,NA,NA,NA,NA,NA,NA,NA,NA,NA,NA
audio-instructions,26,201988,0.0-6.0-7.0,voc_e2,11817,"[{""event"":""fullscreenenter"",""trial"":1,""time"":1329},{""event"":""fullscreenexit"",""trial"":1,""time"":1701},{""event"":""blur"",""trial"":6,""time"":18113},{""event"":""focus"",""trial"":6,""time"":22679},{""event"":""blur"",""trial"":15,""time"":73320},{""event"":""focus"",""trial"":15,""time"":84272}]",NA,553.5999999940395,static/audio/instructions14.wav,NA,0,NA,NA,NA,NA,NA,NA,NA,NA,NA,NA,NA,NA,NA,NA,NA,NA,NA,NA,NA,NA,NA,NA,NA,NA,NA
audio-instructions,27,209652,0.0-7.0-0.0,voc_e2,11817,"[{""event"":""fullscreenenter"",""trial"":1,""time"":1329},{""event"":""fullscreenexit"",""trial"":1,""time"":1701},{""event"":""blur"",""trial"":6,""time"":18113},{""event"":""focus"",""trial"":6,""time"":22679},{""event"":""blur"",""trial"":15,""time"":73320},{""event"":""focus"",""trial"":15,""time"":84272}]",NA,747.8999999985099,static/audio/instructions15.wav,NA,0,NA,NA,NA,NA,NA,NA,NA,NA,NA,NA,NA,NA,NA,NA,NA,NA,NA,NA,NA,NA,NA,NA,NA,NA,NA
audio-instructions,28,217580,0.0-7.0-1.0,voc_e2,11817,"[{""event"":""fullscreenenter"",""trial"":1,""time"":1329},{""event"":""fullscreenexit"",""trial"":1,""time"":1701},{""event"":""blur"",""trial"":6,""time"":18113},{""event"":""focus"",""trial"":6,""time"":22679},{""event"":""blur"",""trial"":15,""time"":73320},{""event"":""focus"",""trial"":15,""time"":84272},{""event"":""blur"",""trial"":28,""time"":213326},{""event"":""focus"",""trial"":28,""time"":214597}]",NA,1096,static/audio/instructions16.wav,NA,0,NA,NA,NA,NA,NA,NA,NA,NA,NA,NA,NA,NA,NA,NA,NA,NA,NA,NA,NA,NA,NA,NA,NA,NA,NA
audio-instructions,29,225972,0.0-7.0-2.0,voc_e2,11817,"[{""event"":""fullscreenenter"",""trial"":1,""time"":1329},{""event"":""fullscreenexit"",""trial"":1,""time"":1701},{""event"":""blur"",""trial"":6,""time"":18113},{""event"":""focus"",""trial"":6,""time"":22679},{""event"":""blur"",""trial"":15,""time"":73320},{""event"":""focus"",""trial"":15,""time"":84272},{""event"":""blur"",""trial"":28,""time"":213326},{""event"":""focus"",""trial"":28,""time"":214597}]",NA,717.6000000014901,static/audio/instructions17.wav,NA,0,NA,NA,NA,NA,NA,NA,NA,NA,NA,NA,NA,NA,NA,NA,NA,NA,NA,NA,NA,NA,NA,NA,NA,NA,NA
audio-instructions,30,234252,0.0-7.0-3.0,voc_e2,11817,"[{""event"":""fullscreenenter"",""trial"":1,""time"":1329},{""event"":""fullscreenexit"",""trial"":1,""time"":1701},{""event"":""blur"",""trial"":6,""time"":18113},{""event"":""focus"",""trial"":6,""time"":22679},{""event"":""blur"",""trial"":15,""time"":73320},{""event"":""focus"",""trial"":15,""time"":84272},{""event"":""blur"",""trial"":28,""time"":213326},{""event"":""focus"",""trial"":28,""time"":214597}]",NA,517.6999999955297,static/audio/instructions18.wav,NA,0,NA,NA,NA,NA,NA,NA,NA,NA,NA,NA,NA,NA,NA,NA,NA,NA,NA,NA,NA,NA,NA,NA,NA,NA,NA
audio-instructions,31,241508,0.0-7.0-4.0,voc_e2,11817,"[{""event"":""fullscreenenter"",""trial"":1,""time"":1329},{""event"":""fullscreenexit"",""trial"":1,""time"":1701},{""event"":""blur"",""trial"":6,""time"":18113},{""event"":""focus"",""trial"":6,""time"":22679},{""event"":""blur"",""trial"":15,""time"":73320},{""event"":""focus"",""trial"":15,""time"":84272},{""event"":""blur"",""trial"":28,""time"":213326},{""event"":""focus"",""trial"":28,""time"":214597}]",NA,523.5999999940395,static/audio/instructions19.wav,NA,0,NA,NA,NA,NA,NA,NA,NA,NA,NA,NA,NA,NA,NA,NA,NA,NA,NA,NA,NA,NA,NA,NA,NA,NA,NA
fcp-comprehension,32,253157,0.0-7.0-5.0,voc_e2,11817,"[{""event"":""fullscreenenter"",""trial"":1,""time"":1329},{""event"":""fullscreenexit"",""trial"":1,""time"":1701},{""event"":""blur"",""trial"":6,""time"":18113},{""event"":""focus"",""trial"":6,""time"":22679},{""event"":""blur"",""trial"":15,""time"":73320},{""event"":""focus"",""trial"":15,""time"":84272},{""event"":""blur"",""trial"":28,""time"":213326},{""event"":""focus"",""trial"":28,""time"":214597}]",NA,11647,NA,NA,NA,NA,NA,NA,NA,NA,NA,NA,NA,NA,NA,NA,NA,NA,NA,NA,"false,false,false,true",0,NA,NA,NA,NA,NA,NA,NA,NA
audio-instructions,33,263459,0.0-8.0,voc_e2,11817,"[{""event"":""fullscreenenter"",""trial"":1,""time"":1329},{""event"":""fullscreenexit"",""trial"":1,""time"":1701},{""event"":""blur"",""trial"":6,""time"":18113},{""event"":""focus"",""trial"":6,""time"":22679},{""event"":""blur"",""trial"":15,""time"":73320},{""event"":""focus"",""trial"":15,""time"":84272},{""event"":""blur"",""trial"":28,""time"":213326},{""event"":""focus"",""trial"":28,""time"":214597}]",NA,1085.39999999851,static/audio/ready.wav,NA,0,NA,NA,NA,NA,NA,NA,NA,NA,NA,NA,NA,NA,NA,NA,NA,NA,NA,NA,NA,NA,NA,NA,NA,NA,NA
fcp-trial,34,269367,0.0-9.0-0.0,voc_e2,11817,"[{""event"":""fullscreenenter"",""trial"":1,""time"":1329},{""event"":""fullscreenexit"",""trial"":1,""time"":1701},{""event"":""blur"",""trial"":6,""time"":18113},{""event"":""focus"",""trial"":6,""time"":22679},{""event"":""blur"",""trial"":15,""time"":73320},{""event"":""focus"",""trial"":15,""time"":84272},{""event"":""blur"",""trial"":28,""time"":213326},{""event"":""focus"",""trial"":28,""time"":214597}]",NA,NA,NA,NA,NA,3,#741CD8,#D8271C,10,0,1,38,1,3235.60000000149,37,1,1139.89999999851,10,1,experiment,NA,NA,0,0.9,0.1,0,1,1,1,NA
fcp-trial,35,273317,0.0-10.0-0.0,voc_e2,11817,"[{""event"":""fullscreenenter"",""trial"":1,""time"":1329},{""event"":""fullscreenexit"",""trial"":1,""time"":1701},{""event"":""blur"",""trial"":6,""time"":18113},{""event"":""focus"",""trial"":6,""time"":22679},{""event"":""blur"",""trial"":15,""time"":73320},{""event"":""focus"",""trial"":15,""time"":84272},{""event"":""blur"",""trial"":28,""time"":213326},{""event"":""focus"",""trial"":28,""time"":214597}]",NA,NA,NA,NA,NA,3,#FA92F8,#1CD855,10,0,1,38,1,1698.2999999970198,39,0,725.1999999955297,0,0,experiment,NA,NA,1,0.7,0.3,2,3,2,1,NA
fcp-trial,36,276434,0.0-11.0-0.0,voc_e2,11817,"[{""event"":""fullscreenenter"",""trial"":1,""time"":1329},{""event"":""fullscreenexit"",""trial"":1,""time"":1701},{""event"":""blur"",""trial"":6,""time"":18113},{""event"":""focus"",""trial"":6,""time"":22679},{""event"":""blur"",""trial"":15,""time"":73320},{""event"":""focus"",""trial"":15,""time"":84272},{""event"":""blur"",""trial"":28,""time"":213326},{""event"":""focus"",""trial"":28,""time"":214597}]",NA,NA,NA,NA,NA,5,#FA92F8,#1CD855,10,0,1,38,1,1063.4000000059605,37,1,520.3999999985099,10,1,experiment,NA,NA,1,0.7,0.3,2,3,3,1,NA
fcp-trial,37,280651,0.0-12.0-0.0,voc_e2,11817,"[{""event"":""fullscreenenter"",""trial"":1,""time"":1329},{""event"":""fullscreenexit"",""trial"":1,""time"":1701},{""event"":""blur"",""trial"":6,""time"":18113},{""event"":""focus"",""trial"":6,""time"":22679},{""event"":""blur"",""trial"":15,""time"":73320},{""event"":""focus"",""trial"":15,""time"":84272},{""event"":""blur"",""trial"":28,""time"":213326},{""event"":""focus"",""trial"":28,""time"":214597}]",NA,NA,NA,NA,NA,2,#D89F1C,#3386FF,10,10,0,38,1,1811.2999999970198,39,0,870.2999999970198,10,1,experiment,NA,NA,2,0.5,0.5,5,4,4,1,NA
fcp-trial,38,283517,0.0-13.0-0.0,voc_e2,11817,"[{""event"":""fullscreenenter"",""trial"":1,""time"":1329},{""event"":""fullscreenexit"",""trial"":1,""time"":1701},{""event"":""blur"",""trial"":6,""time"":18113},{""event"":""focus"",""trial"":6,""time"":22679},{""event"":""blur"",""trial"":15,""time"":73320},{""event"":""focus"",""trial"":15,""time"":84272},{""event"":""blur"",""trial"":28,""time"":213326},{""event"":""focus"",""trial"":28,""time"":214597}]",NA,NA,NA,NA,NA,1,#1CD855,#FA92F8,0,10,0,38,1,930.7999999970198,39,0,402.5,10,1,experiment,NA,NA,1,0.3,0.7,3,2,5,1,NA
fcp-trial,39,286984,0.0-14.0-0.0,voc_e2,11817,"[{""event"":""fullscreenenter"",""trial"":1,""time"":1329},{""event"":""fullscreenexit"",""trial"":1,""time"":1701},{""event"":""blur"",""trial"":6,""time"":18113},{""event"":""focus"",""trial"":6,""time"":22679},{""event"":""blur"",""trial"":15,""time"":73320},{""event"":""focus"",""trial"":15,""time"":84272},{""event"":""blur"",""trial"":28,""time"":213326},{""event"":""focus"",""trial"":28,""time"":214597}]",NA,NA,NA,NA,NA,2,#D8271C,#741CD8,0,10,0,38,1,1560.8999999985099,39,0,371.8999999985099,10,1,experiment,NA,NA,0,0.1,0.9,1,0,6,1,NA
fcp-trial,40,289867,0.0-15.0-0.0,voc_e2,11817,"[{""event"":""fullscreenenter"",""trial"":1,""time"":1329},{""event"":""fullscreenexit"",""trial"":1,""time"":1701},{""event"":""blur"",""trial"":6,""time"":18113},{""event"":""focus"",""trial"":6,""time"":22679},{""event"":""blur"",""trial"":15,""time"":73320},{""event"":""focus"",""trial"":15,""time"":84272},{""event"":""blur"",""trial"":28,""time"":213326},{""event"":""focus"",""trial"":28,""time"":214597}]",NA,NA,NA,NA,NA,1,#D89F1C,#3386FF,0,0,0,38,1,965.3999999985099,39,0,394,0,1,experiment,NA,NA,2,0.5,0.5,5,4,7,1,NA
fcp-trial,41,293222,0.0-16.0-0.0,voc_e2,11817,"[{""event"":""fullscreenenter"",""trial"":1,""time"":1329},{""event"":""fullscreenexit"",""trial"":1,""time"":1701},{""event"":""blur"",""trial"":6,""time"":18113},{""event"":""focus"",""trial"":6,""time"":22679},{""event"":""blur"",""trial"":15,""time"":73320},{""event"":""focus"",""trial"":15,""time"":84272},{""event"":""blur"",""trial"":28,""time"":213326},{""event"":""focus"",""trial"":28,""time"":214597}]",NA,NA,NA,NA,NA,0,#D8271C,#741CD8,10,10,0,38,1,1465.3999999985099,39,0,370,10,1,experiment,NA,NA,0,0.1,0.9,1,0,8,1,NA
fcp-trial,42,297631,0.0-17.0-0.0,voc_e2,11817,"[{""event"":""fullscreenenter"",""trial"":1,""time"":1329},{""event"":""fullscreenexit"",""trial"":1,""time"":1701},{""event"":""blur"",""trial"":6,""time"":18113},{""event"":""focus"",""trial"":6,""time"":22679},{""event"":""blur"",""trial"":15,""time"":73320},{""event"":""focus"",""trial"":15,""time"":84272},{""event"":""blur"",""trial"":28,""time"":213326},{""event"":""focus"",""trial"":28,""time"":214597}]",NA,NA,NA,NA,NA,4,#FA92F8,#1CD855,10,0,1,40,0,1490.1000000014901,39,0,1405.5,0,0,experiment,NA,NA,1,0.7,0.3,2,3,9,1,NA
fcp-trial,43,301741,0.0-18.0-0.0,voc_e2,11817,"[{""event"":""fullscreenenter"",""trial"":1,""time"":1329},{""event"":""fullscreenexit"",""trial"":1,""time"":1701},{""event"":""blur"",""trial"":6,""time"":18113},{""event"":""focus"",""trial"":6,""time"":22679},{""event"":""blur"",""trial"":15,""time"":73320},{""event"":""focus"",""trial"":15,""time"":84272},{""event"":""blur"",""trial"":28,""time"":213326},{""event"":""focus"",""trial"":28,""time"":214597}]",NA,NA,NA,NA,NA,2,#FA92F8,#1CD855,10,0,1,38,1,2230.7000000029802,37,1,366.6000000014901,10,1,experiment,NA,NA,1,0.7,0.3,2,3,10,1,NA
fcp-trial,44,304413,0.0-19.0-0.0,voc_e2,11817,"[{""event"":""fullscreenenter"",""trial"":1,""time"":1329},{""event"":""fullscreenexit"",""trial"":1,""time"":1701},{""event"":""blur"",""trial"":6,""time"":18113},{""event"":""focus"",""trial"":6,""time"":22679},{""event"":""blur"",""trial"":15,""time"":73320},{""event"":""focus"",""trial"":15,""time"":84272},{""event"":""blur"",""trial"":28,""time"":213326},{""event"":""focus"",""trial"":28,""time"":214597}]",NA,NA,NA,NA,NA,0,#D89F1C,#3386FF,10,10,0,38,1,730.8999999985099,39,0,431.20000000298023,10,1,experiment,NA,NA,2,0.5,0.5,5,4,11,1,NA
fcp-trial,45,307077,0.0-20.0-0.0,voc_e2,11817,"[{""event"":""fullscreenenter"",""trial"":1,""time"":1329},{""event"":""fullscreenexit"",""trial"":1,""time"":1701},{""event"":""blur"",""trial"":6,""time"":18113},{""event"":""focus"",""trial"":6,""time"":22679},{""event"":""blur"",""trial"":15,""time"":73320},{""event"":""focus"",""trial"":15,""time"":84272},{""event"":""blur"",""trial"":28,""time"":213326},{""event"":""focus"",""trial"":28,""time"":214597}]",NA,NA,NA,NA,NA,6,#1CD855,#FA92F8,0,0,0,38,1,765,39,0,388.19999999552965,0,1,experiment,NA,NA,1,0.3,0.7,3,2,12,1,NA
fcp-trial,46,310556,0.0-21.0-0.0,voc_e2,11817,"[{""event"":""fullscreenenter"",""trial"":1,""time"":1329},{""event"":""fullscreenexit"",""trial"":1,""time"":1701},{""event"":""blur"",""trial"":6,""time"":18113},{""event"":""focus"",""trial"":6,""time"":22679},{""event"":""blur"",""trial"":15,""time"":73320},{""event"":""focus"",""trial"":15,""time"":84272},{""event"":""blur"",""trial"":28,""time"":213326},{""event"":""focus"",""trial"":28,""time"":214597}]",NA,NA,NA,NA,NA,1,#D8271C,#741CD8,0,10,0,38,1,1515.8000000044703,39,0,451.6000000014901,10,1,experiment,NA,NA,0,0.1,0.9,1,0,13,1,NA
fcp-trial,47,314374,0.0-22.0-0.0,voc_e2,11817,"[{""event"":""fullscreenenter"",""trial"":1,""time"":1329},{""event"":""fullscreenexit"",""trial"":1,""time"":1701},{""event"":""blur"",""trial"":6,""time"":18113},{""event"":""focus"",""trial"":6,""time"":22679},{""event"":""blur"",""trial"":15,""time"":73320},{""event"":""focus"",""trial"":15,""time"":84272},{""event"":""blur"",""trial"":28,""time"":213326},{""event"":""focus"",""trial"":28,""time"":214597}]",NA,NA,NA,NA,NA,4,#D8271C,#741CD8,0,10,0,40,0,1566.3999999985099,39,0,741.8999999985099,10,1,experiment,NA,NA,0,0.1,0.9,1,0,14,1,NA
fcp-trial,48,318503,0.0-23.0-0.0,voc_e2,11817,"[{""event"":""fullscreenenter"",""trial"":1,""time"":1329},{""event"":""fullscreenexit"",""trial"":1,""time"":1701},{""event"":""blur"",""trial"":6,""time"":18113},{""event"":""focus"",""trial"":6,""time"":22679},{""event"":""blur"",""trial"":15,""time"":73320},{""event"":""focus"",""trial"":15,""time"":84272},{""event"":""blur"",""trial"":28,""time"":213326},{""event"":""focus"",""trial"":28,""time"":214597}]",NA,NA,NA,NA,NA,5,#D8271C,#741CD8,10,10,0,40,0,1987.6999999955297,37,1,630.1000000014901,10,0,experiment,NA,NA,0,0.1,0.9,1,0,15,1,NA
fcp-trial,49,322606,0.0-24.0-0.0,voc_e2,11817,"[{""event"":""fullscreenenter"",""trial"":1,""time"":1329},{""event"":""fullscreenexit"",""trial"":1,""time"":1701},{""event"":""blur"",""trial"":6,""time"":18113},{""event"":""focus"",""trial"":6,""time"":22679},{""event"":""blur"",""trial"":15,""time"":73320},{""event"":""focus"",""trial"":15,""time"":84272},{""event"":""blur"",""trial"":28,""time"":213326},{""event"":""focus"",""trial"":28,""time"":214597}]",NA,NA,NA,NA,NA,4,#3386FF,#D89F1C,0,0,1,40,0,1993.6000000014901,37,1,600.2999999970198,0,1,experiment,NA,NA,2,0.5,0.5,4,5,16,1,NA
fcp-trial,50,326149,0.0-25.0-0.0,voc_e2,11817,"[{""event"":""fullscreenenter"",""trial"":1,""time"":1329},{""event"":""fullscreenexit"",""trial"":1,""time"":1701},{""event"":""blur"",""trial"":6,""time"":18113},{""event"":""focus"",""trial"":6,""time"":22679},{""event"":""blur"",""trial"":15,""time"":73320},{""event"":""focus"",""trial"":15,""time"":84272},{""event"":""blur"",""trial"":28,""time"":213326},{""event"":""focus"",""trial"":28,""time"":214597}]",NA,NA,NA,NA,NA,0,#FA92F8,#1CD855,10,0,1,38,1,1665.7999999970198,37,1,365.19999999552965,10,1,experiment,NA,NA,1,0.7,0.3,2,3,17,1,NA
fcp-trial,51,330023,0.0-26.0-0.0,voc_e2,11817,"[{""event"":""fullscreenenter"",""trial"":1,""time"":1329},{""event"":""fullscreenexit"",""trial"":1,""time"":1701},{""event"":""blur"",""trial"":6,""time"":18113},{""event"":""focus"",""trial"":6,""time"":22679},{""event"":""blur"",""trial"":15,""time"":73320},{""event"":""focus"",""trial"":15,""time"":84272},{""event"":""blur"",""trial"":28,""time"":213326},{""event"":""focus"",""trial"":28,""time"":214597}]",NA,NA,NA,NA,NA,6,#3386FF,#D89F1C,10,10,1,40,0,1703.1000000014901,39,0,655.5,10,0,experiment,NA,NA,2,0.5,0.5,4,5,18,1,NA
fcp-trial,52,333151,0.0-27.0-0.0,voc_e2,11817,"[{""event"":""fullscreenenter"",""trial"":1,""time"":1329},{""event"":""fullscreenexit"",""trial"":1,""time"":1701},{""event"":""blur"",""trial"":6,""time"":18113},{""event"":""focus"",""trial"":6,""time"":22679},{""event"":""blur"",""trial"":15,""time"":73320},{""event"":""focus"",""trial"":15,""time"":84272},{""event"":""blur"",""trial"":28,""time"":213326},{""event"":""focus"",""trial"":28,""time"":214597}]",NA,NA,NA,NA,NA,6,#D8271C,#741CD8,0,10,0,40,0,1117.1000000014901,39,0,502.70000000298023,10,1,experiment,NA,NA,0,0.1,0.9,1,0,19,1,NA
fcp-trial,53,336431,0.0-28.0-0.0,voc_e2,11817,"[{""event"":""fullscreenenter"",""trial"":1,""time"":1329},{""event"":""fullscreenexit"",""trial"":1,""time"":1701},{""event"":""blur"",""trial"":6,""time"":18113},{""event"":""focus"",""trial"":6,""time"":22679},{""event"":""blur"",""trial"":15,""time"":73320},{""event"":""focus"",""trial"":15,""time"":84272},{""event"":""blur"",""trial"":28,""time"":213326},{""event"":""focus"",""trial"":28,""time"":214597}]",NA,NA,NA,NA,NA,3,#D89F1C,#3386FF,0,0,0,38,1,1359.2000000029802,39,0,406.30000000447035,0,1,experiment,NA,NA,2,0.5,0.5,5,4,20,1,NA
fcp-trial,54,340206,0.0-29.0-0.0,voc_e2,11817,"[{""event"":""fullscreenenter"",""trial"":1,""time"":1329},{""event"":""fullscreenexit"",""trial"":1,""time"":1701},{""event"":""blur"",""trial"":6,""time"":18113},{""event"":""focus"",""trial"":6,""time"":22679},{""event"":""blur"",""trial"":15,""time"":73320},{""event"":""focus"",""trial"":15,""time"":84272},{""event"":""blur"",""trial"":28,""time"":213326},{""event"":""focus"",""trial"":28,""time"":214597}]",NA,NA,NA,NA,NA,5,#D89F1C,#3386FF,0,0,0,40,0,1273,39,0,989,0,1,experiment,NA,NA,2,0.5,0.5,5,4,21,1,NA
fcp-trial,55,343431,0.0-30.0-0.0,voc_e2,11817,"[{""event"":""fullscreenenter"",""trial"":1,""time"":1329},{""event"":""fullscreenexit"",""trial"":1,""time"":1701},{""event"":""blur"",""trial"":6,""time"":18113},{""event"":""focus"",""trial"":6,""time"":22679},{""event"":""blur"",""trial"":15,""time"":73320},{""event"":""focus"",""trial"":15,""time"":84272},{""event"":""blur"",""trial"":28,""time"":213326},{""event"":""focus"",""trial"":28,""time"":214597}]",NA,NA,NA,NA,NA,6,#3386FF,#D89F1C,0,10,1,40,0,1159.2999999970198,37,1,556.7000000029802,0,1,experiment,NA,NA,2,0.5,0.5,4,5,22,1,NA
fcp-trial,56,346855,0.0-31.0-0.0,voc_e2,11817,"[{""event"":""fullscreenenter"",""trial"":1,""time"":1329},{""event"":""fullscreenexit"",""trial"":1,""time"":1701},{""event"":""blur"",""trial"":6,""time"":18113},{""event"":""focus"",""trial"":6,""time"":22679},{""event"":""blur"",""trial"":15,""time"":73320},{""event"":""focus"",""trial"":15,""time"":84272},{""event"":""blur"",""trial"":28,""time"":213326},{""event"":""focus"",""trial"":28,""time"":214597}]",NA,NA,NA,NA,NA,3,#D89F1C,#3386FF,0,0,0,38,1,1530.2000000029802,39,0,382.69999999552965,0,1,experiment,NA,NA,2,0.5,0.5,5,4,23,1,NA
fcp-trial,57,350038,0.0-32.0-0.0,voc_e2,11817,"[{""event"":""fullscreenenter"",""trial"":1,""time"":1329},{""event"":""fullscreenexit"",""trial"":1,""time"":1701},{""event"":""blur"",""trial"":6,""time"":18113},{""event"":""focus"",""trial"":6,""time"":22679},{""event"":""blur"",""trial"":15,""time"":73320},{""event"":""focus"",""trial"":15,""time"":84272},{""event"":""blur"",""trial"":28,""time"":213326},{""event"":""focus"",""trial"":28,""time"":214597}]",NA,NA,NA,NA,NA,2,#741CD8,#D8271C,10,0,1,38,1,1379.2999999970198,37,1,296.6000000014901,10,1,experiment,NA,NA,0,0.9,0.1,0,1,24,1,NA
fcp-trial,58,353229,0.0-33.0-0.0,voc_e2,11817,"[{""event"":""fullscreenenter"",""trial"":1,""time"":1329},{""event"":""fullscreenexit"",""trial"":1,""time"":1701},{""event"":""blur"",""trial"":6,""time"":18113},{""event"":""focus"",""trial"":6,""time"":22679},{""event"":""blur"",""trial"":15,""time"":73320},{""event"":""focus"",""trial"":15,""time"":84272},{""event"":""blur"",""trial"":28,""time"":213326},{""event"":""focus"",""trial"":28,""time"":214597}]",NA,NA,NA,NA,NA,1,#741CD8,#D8271C,10,0,1,38,1,1237.2999999970198,37,1,446,10,1,experiment,NA,NA,0,0.9,0.1,0,1,25,1,NA
fcp-trial,59,356013,0.0-34.0-0.0,voc_e2,11817,"[{""event"":""fullscreenenter"",""trial"":1,""time"":1329},{""event"":""fullscreenexit"",""trial"":1,""time"":1701},{""event"":""blur"",""trial"":6,""time"":18113},{""event"":""focus"",""trial"":6,""time"":22679},{""event"":""blur"",""trial"":15,""time"":73320},{""event"":""focus"",""trial"":15,""time"":84272},{""event"":""blur"",""trial"":28,""time"":213326},{""event"":""focus"",""trial"":28,""time"":214597}]",NA,NA,NA,NA,NA,3,#1CD855,#FA92F8,10,10,0,38,1,934.3999999985099,39,0,341.8999999985099,10,1,experiment,NA,NA,1,0.3,0.7,3,2,26,1,NA
fcp-trial,60,359190,0.0-35.0-0.0,voc_e2,11817,"[{""event"":""fullscreenenter"",""trial"":1,""time"":1329},{""event"":""fullscreenexit"",""trial"":1,""time"":1701},{""event"":""blur"",""trial"":6,""time"":18113},{""event"":""focus"",""trial"":6,""time"":22679},{""event"":""blur"",""trial"":15,""time"":73320},{""event"":""focus"",""trial"":15,""time"":84272},{""event"":""blur"",""trial"":28,""time"":213326},{""event"":""focus"",""trial"":28,""time"":214597}]",NA,NA,NA,NA,NA,4,#1CD855,#FA92F8,0,10,0,38,1,1327.1999999955297,39,0,342.19999999552965,10,1,experiment,NA,NA,1,0.3,0.7,3,2,27,1,NA
fcp-trial,61,362079,0.0-36.0-0.0,voc_e2,11817,"[{""event"":""fullscreenenter"",""trial"":1,""time"":1329},{""event"":""fullscreenexit"",""trial"":1,""time"":1701},{""event"":""blur"",""trial"":6,""time"":18113},{""event"":""focus"",""trial"":6,""time"":22679},{""event"":""blur"",""trial"":15,""time"":73320},{""event"":""focus"",""trial"":15,""time"":84272},{""event"":""blur"",""trial"":28,""time"":213326},{""event"":""focus"",""trial"":28,""time"":214597}]",NA,NA,NA,NA,NA,4,#3386FF,#D89F1C,0,0,1,38,1,930.6999999955297,37,1,447.20000000298023,0,1,experiment,NA,NA,2,0.5,0.5,4,5,28,1,NA
fcp-trial,62,365044,0.0-37.0-0.0,voc_e2,11817,"[{""event"":""fullscreenenter"",""trial"":1,""time"":1329},{""event"":""fullscreenexit"",""trial"":1,""time"":1701},{""event"":""blur"",""trial"":6,""time"":18113},{""event"":""focus"",""trial"":6,""time"":22679},{""event"":""blur"",""trial"":15,""time"":73320},{""event"":""focus"",""trial"":15,""time"":84272},{""event"":""blur"",""trial"":28,""time"":213326},{""event"":""focus"",""trial"":28,""time"":214597}]",NA,NA,NA,NA,NA,0,#741CD8,#D8271C,10,0,1,38,1,1033.3999999985099,37,1,421.69999999552965,10,1,experiment,NA,NA,0,0.9,0.1,0,1,29,1,NA
fcp-trial,63,368039,0.0-38.0-0.0,voc_e2,11817,"[{""event"":""fullscreenenter"",""trial"":1,""time"":1329},{""event"":""fullscreenexit"",""trial"":1,""time"":1701},{""event"":""blur"",""trial"":6,""time"":18113},{""event"":""focus"",""trial"":6,""time"":22679},{""event"":""blur"",""trial"":15,""time"":73320},{""event"":""focus"",""trial"":15,""time"":84272},{""event"":""blur"",""trial"":28,""time"":213326},{""event"":""focus"",""trial"":28,""time"":214597}]",NA,NA,NA,NA,NA,4,#741CD8,#D8271C,10,0,1,38,1,1129.8000000044703,37,1,348.1000000014901,10,1,experiment,NA,NA,0,0.9,0.1,0,1,30,1,NA
fcp-trial,64,370646,0.0-39.0-0.0,voc_e2,11817,"[{""event"":""fullscreenenter"",""trial"":1,""time"":1329},{""event"":""fullscreenexit"",""trial"":1,""time"":1701},{""event"":""blur"",""trial"":6,""time"":18113},{""event"":""focus"",""trial"":6,""time"":22679},{""event"":""blur"",""trial"":15,""time"":73320},{""event"":""focus"",""trial"":15,""time"":84272},{""event"":""blur"",""trial"":28,""time"":213326},{""event"":""focus"",""trial"":28,""time"":214597}]",NA,NA,NA,NA,NA,5,#1CD855,#FA92F8,0,10,0,38,1,736.8000000044703,39,0,356.79999999701977,10,1,experiment,NA,NA,1,0.3,0.7,3,2,31,1,NA
fcp-trial,65,373205,0.0-40.0-0.0,voc_e2,11817,"[{""event"":""fullscreenenter"",""trial"":1,""time"":1329},{""event"":""fullscreenexit"",""trial"":1,""time"":1701},{""event"":""blur"",""trial"":6,""time"":18113},{""event"":""focus"",""trial"":6,""time"":22679},{""event"":""blur"",""trial"":15,""time"":73320},{""event"":""focus"",""trial"":15,""time"":84272},{""event"":""blur"",""trial"":28,""time"":213326},{""event"":""focus"",""trial"":28,""time"":214597}]",NA,NA,NA,NA,NA,6,#FA92F8,#1CD855,10,0,1,38,1,670.6000000014901,37,1,380.3999999985099,10,1,experiment,NA,NA,1,0.7,0.3,2,3,32,1,NA
fcp-trial,66,376117,0.0-41.0-0.0,voc_e2,11817,"[{""event"":""fullscreenenter"",""trial"":1,""time"":1329},{""event"":""fullscreenexit"",""trial"":1,""time"":1701},{""event"":""blur"",""trial"":6,""time"":18113},{""event"":""focus"",""trial"":6,""time"":22679},{""event"":""blur"",""trial"":15,""time"":73320},{""event"":""focus"",""trial"":15,""time"":84272},{""event"":""blur"",""trial"":28,""time"":213326},{""event"":""focus"",""trial"":28,""time"":214597}]",NA,NA,NA,NA,NA,5,#3386FF,#D89F1C,10,10,1,38,1,915.5,37,1,485.5,10,1,experiment,NA,NA,2,0.5,0.5,4,5,33,1,NA
fcp-trial,67,378645,0.0-42.0-0.0,voc_e2,11817,"[{""event"":""fullscreenenter"",""trial"":1,""time"":1329},{""event"":""fullscreenexit"",""trial"":1,""time"":1701},{""event"":""blur"",""trial"":6,""time"":18113},{""event"":""focus"",""trial"":6,""time"":22679},{""event"":""blur"",""trial"":15,""time"":73320},{""event"":""focus"",""trial"":15,""time"":84272},{""event"":""blur"",""trial"":28,""time"":213326},{""event"":""focus"",""trial"":28,""time"":214597}]",NA,NA,NA,NA,NA,0,#3386FF,#D89F1C,10,10,1,38,1,636.5,37,1,373.30000000447035,10,1,experiment,NA,NA,2,0.5,0.5,4,5,34,1,NA
fcp-trial,68,381260,0.0-43.0-0.0,voc_e2,11817,"[{""event"":""fullscreenenter"",""trial"":1,""time"":1329},{""event"":""fullscreenexit"",""trial"":1,""time"":1701},{""event"":""blur"",""trial"":6,""time"":18113},{""event"":""focus"",""trial"":6,""time"":22679},{""event"":""blur"",""trial"":15,""time"":73320},{""event"":""focus"",""trial"":15,""time"":84272},{""event"":""blur"",""trial"":28,""time"":213326},{""event"":""focus"",""trial"":28,""time"":214597}]",NA,NA,NA,NA,NA,5,#741CD8,#D8271C,10,0,1,38,1,749.9000000059605,37,1,358.19999999552965,10,1,experiment,NA,NA,0,0.9,0.1,0,1,35,1,NA
fcp-trial,69,383806,0.0-44.0-0.0,voc_e2,11817,"[{""event"":""fullscreenenter"",""trial"":1,""time"":1329},{""event"":""fullscreenexit"",""trial"":1,""time"":1701},{""event"":""blur"",""trial"":6,""time"":18113},{""event"":""focus"",""trial"":6,""time"":22679},{""event"":""blur"",""trial"":15,""time"":73320},{""event"":""focus"",""trial"":15,""time"":84272},{""event"":""blur"",""trial"":28,""time"":213326},{""event"":""focus"",""trial"":28,""time"":214597}]",NA,NA,NA,NA,NA,6,#741CD8,#D8271C,10,10,1,38,1,668.6000000014901,37,1,365.70000000298023,10,1,experiment,NA,NA,0,0.9,0.1,0,1,36,1,NA
fcp-trial,70,386797,0.0-45.0-0.0,voc_e2,11817,"[{""event"":""fullscreenenter"",""trial"":1,""time"":1329},{""event"":""fullscreenexit"",""trial"":1,""time"":1701},{""event"":""blur"",""trial"":6,""time"":18113},{""event"":""focus"",""trial"":6,""time"":22679},{""event"":""blur"",""trial"":15,""time"":73320},{""event"":""focus"",""trial"":15,""time"":84272},{""event"":""blur"",""trial"":28,""time"":213326},{""event"":""focus"",""trial"":28,""time"":214597}]",NA,NA,NA,NA,NA,2,#FA92F8,#1CD855,10,0,1,38,1,1074.8999999985099,37,1,405.3999999985099,10,1,experiment,NA,NA,1,0.7,0.3,2,3,37,1,NA
fcp-trial,71,389694,0.0-46.0-0.0,voc_e2,11817,"[{""event"":""fullscreenenter"",""trial"":1,""time"":1329},{""event"":""fullscreenexit"",""trial"":1,""time"":1701},{""event"":""blur"",""trial"":6,""time"":18113},{""event"":""focus"",""trial"":6,""time"":22679},{""event"":""blur"",""trial"":15,""time"":73320},{""event"":""focus"",""trial"":15,""time"":84272},{""event"":""blur"",""trial"":28,""time"":213326},{""event"":""focus"",""trial"":28,""time"":214597}]",NA,NA,NA,NA,NA,2,#3386FF,#D89F1C,0,10,1,38,1,986.5,37,1,397.70000000298023,0,1,experiment,NA,NA,2,0.5,0.5,4,5,38,1,NA
fcp-trial,72,392542,0.0-47.0-0.0,voc_e2,11817,"[{""event"":""fullscreenenter"",""trial"":1,""time"":1329},{""event"":""fullscreenexit"",""trial"":1,""time"":1701},{""event"":""blur"",""trial"":6,""time"":18113},{""event"":""focus"",""trial"":6,""time"":22679},{""event"":""blur"",""trial"":15,""time"":73320},{""event"":""focus"",""trial"":15,""time"":84272},{""event"":""blur"",""trial"":28,""time"":213326},{""event"":""focus"",""trial"":28,""time"":214597}]",NA,NA,NA,NA,NA,3,#D8271C,#741CD8,0,0,0,38,1,1028.7000000029802,39,0,309.80000000447035,0,1,experiment,NA,NA,0,0.1,0.9,1,0,39,1,NA
fcp-trial,73,395045,0.0-48.0-0.0,voc_e2,11817,"[{""event"":""fullscreenenter"",""trial"":1,""time"":1329},{""event"":""fullscreenexit"",""trial"":1,""time"":1701},{""event"":""blur"",""trial"":6,""time"":18113},{""event"":""focus"",""trial"":6,""time"":22679},{""event"":""blur"",""trial"":15,""time"":73320},{""event"":""focus"",""trial"":15,""time"":84272},{""event"":""blur"",""trial"":28,""time"":213326},{""event"":""focus"",""trial"":28,""time"":214597}]",NA,NA,NA,NA,NA,1,#3386FF,#D89F1C,0,10,1,38,1,618.6000000014901,37,1,373.6000000014901,0,1,experiment,NA,NA,2,0.5,0.5,4,5,40,1,NA
fcp-trial,74,398014,0.0-49.0-0.0,voc_e2,11817,"[{""event"":""fullscreenenter"",""trial"":1,""time"":1329},{""event"":""fullscreenexit"",""trial"":1,""time"":1701},{""event"":""blur"",""trial"":6,""time"":18113},{""event"":""focus"",""trial"":6,""time"":22679},{""event"":""blur"",""trial"":15,""time"":73320},{""event"":""focus"",""trial"":15,""time"":84272},{""event"":""blur"",""trial"":28,""time"":213326},{""event"":""focus"",""trial"":28,""time"":214597}]",NA,NA,NA,NA,NA,1,#1CD855,#FA92F8,0,10,0,38,1,1115.6999999955297,39,0,341,10,1,experiment,NA,NA,1,0.3,0.7,3,2,41,1,NA
fcp-trial,75,400814,0.0-50.0-0.0,voc_e2,11817,"[{""event"":""fullscreenenter"",""trial"":1,""time"":1329},{""event"":""fullscreenexit"",""trial"":1,""time"":1701},{""event"":""blur"",""trial"":6,""time"":18113},{""event"":""focus"",""trial"":6,""time"":22679},{""event"":""blur"",""trial"":15,""time"":73320},{""event"":""focus"",""trial"":15,""time"":84272},{""event"":""blur"",""trial"":28,""time"":213326},{""event"":""focus"",""trial"":28,""time"":214597}]",NA,NA,NA,NA,NA,0,#FA92F8,#1CD855,10,10,1,38,1,957.5,37,1,333.70000000298023,10,1,experiment,NA,NA,1,0.7,0.3,2,3,42,1,NA
fcp-trial,76,403655,0.0-51.0-0.0,voc_e2,11817,"[{""event"":""fullscreenenter"",""trial"":1,""time"":1329},{""event"":""fullscreenexit"",""trial"":1,""time"":1701},{""event"":""blur"",""trial"":6,""time"":18113},{""event"":""focus"",""trial"":6,""time"":22679},{""event"":""blur"",""trial"":15,""time"":73320},{""event"":""focus"",""trial"":15,""time"":84272},{""event"":""blur"",""trial"":28,""time"":213326},{""event"":""focus"",""trial"":28,""time"":214597}]",NA,NA,NA,NA,NA,2,#D89F1C,#3386FF,10,0,0,38,1,1025.1999999955297,39,0,302.8999999985099,0,1,experiment,NA,NA,2,0.5,0.5,5,4,43,1,NA
fcp-trial,77,406285,0.0-52.0-0.0,voc_e2,11817,"[{""event"":""fullscreenenter"",""trial"":1,""time"":1329},{""event"":""fullscreenexit"",""trial"":1,""time"":1701},{""event"":""blur"",""trial"":6,""time"":18113},{""event"":""focus"",""trial"":6,""time"":22679},{""event"":""blur"",""trial"":15,""time"":73320},{""event"":""focus"",""trial"":15,""time"":84272},{""event"":""blur"",""trial"":28,""time"":213326},{""event"":""focus"",""trial"":28,""time"":214597}]",NA,NA,NA,NA,NA,5,#FA92F8,#1CD855,10,0,1,38,1,761.6999999955297,37,1,358,10,1,experiment,NA,NA,1,0.7,0.3,2,3,44,1,NA
fcp-trial,78,409414,0.0-53.0-0.0,voc_e2,11817,"[{""event"":""fullscreenenter"",""trial"":1,""time"":1329},{""event"":""fullscreenexit"",""trial"":1,""time"":1701},{""event"":""blur"",""trial"":6,""time"":18113},{""event"":""focus"",""trial"":6,""time"":22679},{""event"":""blur"",""trial"":15,""time"":73320},{""event"":""focus"",""trial"":15,""time"":84272},{""event"":""blur"",""trial"":28,""time"":213326},{""event"":""focus"",""trial"":28,""time"":214597}]",NA,NA,NA,NA,NA,6,#741CD8,#D8271C,10,0,1,40,0,936.1000000014901,39,0,678.2999999970198,0,0,experiment,NA,NA,0,0.9,0.1,0,1,45,1,NA
fcp-trial,79,412878,0.0-54.0-0.0,voc_e2,11817,"[{""event"":""fullscreenenter"",""trial"":1,""time"":1329},{""event"":""fullscreenexit"",""trial"":1,""time"":1701},{""event"":""blur"",""trial"":6,""time"":18113},{""event"":""focus"",""trial"":6,""time"":22679},{""event"":""blur"",""trial"":15,""time"":73320},{""event"":""focus"",""trial"":15,""time"":84272},{""event"":""blur"",""trial"":28,""time"":213326},{""event"":""focus"",""trial"":28,""time"":214597}]",NA,NA,NA,NA,NA,6,#FA92F8,#1CD855,10,0,1,40,0,1332.7999999970198,39,0,622,0,0,experiment,NA,NA,1,0.7,0.3,2,3,46,2,NA
fcp-trial,80,416206,0.0-55.0-0.0,voc_e2,11817,"[{""event"":""fullscreenenter"",""trial"":1,""time"":1329},{""event"":""fullscreenexit"",""trial"":1,""time"":1701},{""event"":""blur"",""trial"":6,""time"":18113},{""event"":""focus"",""trial"":6,""time"":22679},{""event"":""blur"",""trial"":15,""time"":73320},{""event"":""focus"",""trial"":15,""time"":84272},{""event"":""blur"",""trial"":28,""time"":213326},{""event"":""focus"",""trial"":28,""time"":214597}]",NA,NA,NA,NA,NA,0,#741CD8,#D8271C,0,0,1,38,1,1424.8000000044703,37,1,391.69999999552965,0,1,experiment,NA,NA,0,0.9,0.1,0,1,47,2,NA
fcp-trial,81,419142,0.0-56.0-0.0,voc_e2,11817,"[{""event"":""fullscreenenter"",""trial"":1,""time"":1329},{""event"":""fullscreenexit"",""trial"":1,""time"":1701},{""event"":""blur"",""trial"":6,""time"":18113},{""event"":""focus"",""trial"":6,""time"":22679},{""event"":""blur"",""trial"":15,""time"":73320},{""event"":""focus"",""trial"":15,""time"":84272},{""event"":""blur"",""trial"":28,""time"":213326},{""event"":""focus"",""trial"":28,""time"":214597}]",NA,NA,NA,NA,NA,3,#D89F1C,#3386FF,0,0,0,38,1,1146.5,39,0,278.20000000298023,0,1,experiment,NA,NA,2,0.5,0.5,5,4,48,2,NA
fcp-trial,82,422197,0.0-57.0-0.0,voc_e2,11817,"[{""event"":""fullscreenenter"",""trial"":1,""time"":1329},{""event"":""fullscreenexit"",""trial"":1,""time"":1701},{""event"":""blur"",""trial"":6,""time"":18113},{""event"":""focus"",""trial"":6,""time"":22679},{""event"":""blur"",""trial"":15,""time"":73320},{""event"":""focus"",""trial"":15,""time"":84272},{""event"":""blur"",""trial"":28,""time"":213326},{""event"":""focus"",""trial"":28,""time"":214597}]",NA,NA,NA,NA,NA,3,#D8271C,#741CD8,0,10,0,40,0,1066.3999999985099,39,0,477.80000000447035,10,1,experiment,NA,NA,0,0.1,0.9,1,0,49,2,NA
fcp-trial,83,426038,0.0-58.0-0.0,voc_e2,11817,"[{""event"":""fullscreenenter"",""trial"":1,""time"":1329},{""event"":""fullscreenexit"",""trial"":1,""time"":1701},{""event"":""blur"",""trial"":6,""time"":18113},{""event"":""focus"",""trial"":6,""time"":22679},{""event"":""blur"",""trial"":15,""time"":73320},{""event"":""focus"",""trial"":15,""time"":84272},{""event"":""blur"",""trial"":28,""time"":213326},{""event"":""focus"",""trial"":28,""time"":214597}]",NA,NA,NA,NA,NA,0,#D89F1C,#3386FF,10,0,0,38,1,2018.6000000014901,39,0,311,0,1,experiment,NA,NA,2,0.5,0.5,5,4,50,2,NA
fcp-trial,84,428686,0.0-59.0-0.0,voc_e2,11817,"[{""event"":""fullscreenenter"",""trial"":1,""time"":1329},{""event"":""fullscreenexit"",""trial"":1,""time"":1701},{""event"":""blur"",""trial"":6,""time"":18113},{""event"":""focus"",""trial"":6,""time"":22679},{""event"":""blur"",""trial"":15,""time"":73320},{""event"":""focus"",""trial"":15,""time"":84272},{""event"":""blur"",""trial"":28,""time"":213326},{""event"":""focus"",""trial"":28,""time"":214597}]",NA,NA,NA,NA,NA,2,#1CD855,#FA92F8,10,0,0,38,1,785.3999999985099,39,0,351,0,1,experiment,NA,NA,1,0.3,0.7,3,2,51,2,NA
fcp-trial,85,432240,0.0-60.0-0.0,voc_e2,11817,"[{""event"":""fullscreenenter"",""trial"":1,""time"":1329},{""event"":""fullscreenexit"",""trial"":1,""time"":1701},{""event"":""blur"",""trial"":6,""time"":18113},{""event"":""focus"",""trial"":6,""time"":22679},{""event"":""blur"",""trial"":15,""time"":73320},{""event"":""focus"",""trial"":15,""time"":84272},{""event"":""blur"",""trial"":28,""time"":213326},{""event"":""focus"",""trial"":28,""time"":214597}]",NA,NA,NA,NA,NA,4,#1CD855,#FA92F8,10,10,0,40,0,1483.8999999985099,37,1,557.3000000044703,10,0,experiment,NA,NA,1,0.3,0.7,3,2,52,2,NA
fcp-trial,86,435253,0.0-61.0-0.0,voc_e2,11817,"[{""event"":""fullscreenenter"",""trial"":1,""time"":1329},{""event"":""fullscreenexit"",""trial"":1,""time"":1701},{""event"":""blur"",""trial"":6,""time"":18113},{""event"":""focus"",""trial"":6,""time"":22679},{""event"":""blur"",""trial"":15,""time"":73320},{""event"":""focus"",""trial"":15,""time"":84272},{""event"":""blur"",""trial"":28,""time"":213326},{""event"":""focus"",""trial"":28,""time"":214597}]",NA,NA,NA,NA,NA,2,#741CD8,#D8271C,10,0,1,38,1,1183.5,37,1,317.80000000447035,10,1,experiment,NA,NA,0,0.9,0.1,0,1,53,2,NA
fcp-trial,87,438886,0.0-62.0-0.0,voc_e2,11817,"[{""event"":""fullscreenenter"",""trial"":1,""time"":1329},{""event"":""fullscreenexit"",""trial"":1,""time"":1701},{""event"":""blur"",""trial"":6,""time"":18113},{""event"":""focus"",""trial"":6,""time"":22679},{""event"":""blur"",""trial"":15,""time"":73320},{""event"":""focus"",""trial"":15,""time"":84272},{""event"":""blur"",""trial"":28,""time"":213326},{""event"":""focus"",""trial"":28,""time"":214597}]",NA,NA,NA,NA,NA,0,#1CD855,#FA92F8,0,0,0,38,1,1799.3999999985099,39,0,317.20000000298023,0,1,experiment,NA,NA,1,0.3,0.7,3,2,54,2,NA
fcp-trial,88,441700,0.0-63.0-0.0,voc_e2,11817,"[{""event"":""fullscreenenter"",""trial"":1,""time"":1329},{""event"":""fullscreenexit"",""trial"":1,""time"":1701},{""event"":""blur"",""trial"":6,""time"":18113},{""event"":""focus"",""trial"":6,""time"":22679},{""event"":""blur"",""trial"":15,""time"":73320},{""event"":""focus"",""trial"":15,""time"":84272},{""event"":""blur"",""trial"":28,""time"":213326},{""event"":""focus"",""trial"":28,""time"":214597}]",NA,NA,NA,NA,NA,4,#3386FF,#D89F1C,10,10,1,38,1,951.2999999970198,39,0,350.8999999985099,10,0,experiment,NA,NA,2,0.5,0.5,4,5,55,2,NA
fcp-trial,89,444796,0.0-64.0-0.0,voc_e2,11817,"[{""event"":""fullscreenenter"",""trial"":1,""time"":1329},{""event"":""fullscreenexit"",""trial"":1,""time"":1701},{""event"":""blur"",""trial"":6,""time"":18113},{""event"":""focus"",""trial"":6,""time"":22679},{""event"":""blur"",""trial"":15,""time"":73320},{""event"":""focus"",""trial"":15,""time"":84272},{""event"":""blur"",""trial"":28,""time"":213326},{""event"":""focus"",""trial"":28,""time"":214597}]",NA,NA,NA,NA,NA,1,#1CD855,#FA92F8,0,0,0,38,1,1168.5,39,0,415.3999999985099,0,1,experiment,NA,NA,1,0.3,0.7,3,2,56,2,NA
fcp-trial,90,447436,0.0-65.0-0.0,voc_e2,11817,"[{""event"":""fullscreenenter"",""trial"":1,""time"":1329},{""event"":""fullscreenexit"",""trial"":1,""time"":1701},{""event"":""blur"",""trial"":6,""time"":18113},{""event"":""focus"",""trial"":6,""time"":22679},{""event"":""blur"",""trial"":15,""time"":73320},{""event"":""focus"",""trial"":15,""time"":84272},{""event"":""blur"",""trial"":28,""time"":213326},{""event"":""focus"",""trial"":28,""time"":214597}]",NA,NA,NA,NA,NA,1,#741CD8,#D8271C,10,0,1,38,1,706.8999999985099,37,1,422.5,10,1,experiment,NA,NA,0,0.9,0.1,0,1,57,2,NA
fcp-trial,91,450102,0.0-66.0-0.0,voc_e2,11817,"[{""event"":""fullscreenenter"",""trial"":1,""time"":1329},{""event"":""fullscreenexit"",""trial"":1,""time"":1701},{""event"":""blur"",""trial"":6,""time"":18113},{""event"":""focus"",""trial"":6,""time"":22679},{""event"":""blur"",""trial"":15,""time"":73320},{""event"":""focus"",""trial"":15,""time"":84272},{""event"":""blur"",""trial"":28,""time"":213326},{""event"":""focus"",""trial"":28,""time"":214597}]",NA,NA,NA,NA,NA,4,#741CD8,#D8271C,10,0,1,38,1,689.2999999970198,39,0,461,0,0,experiment,NA,NA,0,0.9,0.1,0,1,58,2,NA
fcp-trial,92,453566,0.0-67.0-0.0,voc_e2,11817,"[{""event"":""fullscreenenter"",""trial"":1,""time"":1329},{""event"":""fullscreenexit"",""trial"":1,""time"":1701},{""event"":""blur"",""trial"":6,""time"":18113},{""event"":""focus"",""trial"":6,""time"":22679},{""event"":""blur"",""trial"":15,""time"":73320},{""event"":""focus"",""trial"":15,""time"":84272},{""event"":""blur"",""trial"":28,""time"":213326},{""event"":""focus"",""trial"":28,""time"":214597}]",NA,NA,NA,NA,NA,6,#D89F1C,#3386FF,10,0,0,40,0,766.6000000014901,39,0,1181.0999999940395,0,1,experiment,NA,NA,2,0.5,0.5,5,4,59,2,NA
fcp-trial,93,456901,0.0-68.0-0.0,voc_e2,11817,"[{""event"":""fullscreenenter"",""trial"":1,""time"":1329},{""event"":""fullscreenexit"",""trial"":1,""time"":1701},{""event"":""blur"",""trial"":6,""time"":18113},{""event"":""focus"",""trial"":6,""time"":22679},{""event"":""blur"",""trial"":15,""time"":73320},{""event"":""focus"",""trial"":15,""time"":84272},{""event"":""blur"",""trial"":28,""time"":213326},{""event"":""focus"",""trial"":28,""time"":214597}]",NA,NA,NA,NA,NA,3,#1CD855,#FA92F8,10,10,0,38,1,1444.1000000014901,39,0,374.40000000596046,10,1,experiment,NA,NA,1,0.3,0.7,3,2,60,2,NA
fcp-trial,94,459973,0.0-69.0-0.0,voc_e2,11817,"[{""event"":""fullscreenenter"",""trial"":1,""time"":1329},{""event"":""fullscreenexit"",""trial"":1,""time"":1701},{""event"":""blur"",""trial"":6,""time"":18113},{""event"":""focus"",""trial"":6,""time"":22679},{""event"":""blur"",""trial"":15,""time"":73320},{""event"":""focus"",""trial"":15,""time"":84272},{""event"":""blur"",""trial"":28,""time"":213326},{""event"":""focus"",""trial"":28,""time"":214597}]",NA,NA,NA,NA,NA,5,#D8271C,#741CD8,0,10,0,40,0,951.2000000029802,39,0,605.3999999985099,10,1,experiment,NA,NA,0,0.1,0.9,1,0,61,2,NA
fcp-trial,95,462812,0.0-70.0-0.0,voc_e2,11817,"[{""event"":""fullscreenenter"",""trial"":1,""time"":1329},{""event"":""fullscreenexit"",""trial"":1,""time"":1701},{""event"":""blur"",""trial"":6,""time"":18113},{""event"":""focus"",""trial"":6,""time"":22679},{""event"":""blur"",""trial"":15,""time"":73320},{""event"":""focus"",""trial"":15,""time"":84272},{""event"":""blur"",""trial"":28,""time"":213326},{""event"":""focus"",""trial"":28,""time"":214597}]",NA,NA,NA,NA,NA,5,#D89F1C,#3386FF,10,10,0,40,0,698.7000000029802,39,0,631.2999999970198,10,1,experiment,NA,NA,2,0.5,0.5,5,4,62,2,NA
fcp-trial,96,465990,0.0-71.0-0.0,voc_e2,11817,"[{""event"":""fullscreenenter"",""trial"":1,""time"":1329},{""event"":""fullscreenexit"",""trial"":1,""time"":1701},{""event"":""blur"",""trial"":6,""time"":18113},{""event"":""focus"",""trial"":6,""time"":22679},{""event"":""blur"",""trial"":15,""time"":73320},{""event"":""focus"",""trial"":15,""time"":84272},{""event"":""blur"",""trial"":28,""time"":213326},{""event"":""focus"",""trial"":28,""time"":214597}]",NA,NA,NA,NA,NA,1,#D89F1C,#3386FF,0,0,0,38,1,1283.5,39,0,382.20000000298023,0,1,experiment,NA,NA,2,0.5,0.5,5,4,63,2,NA
fcp-trial,97,469316,0.0-72.0-0.0,voc_e2,11817,"[{""event"":""fullscreenenter"",""trial"":1,""time"":1329},{""event"":""fullscreenexit"",""trial"":1,""time"":1701},{""event"":""blur"",""trial"":6,""time"":18113},{""event"":""focus"",""trial"":6,""time"":22679},{""event"":""blur"",""trial"":15,""time"":73320},{""event"":""focus"",""trial"":15,""time"":84272},{""event"":""blur"",""trial"":28,""time"":213326},{""event"":""focus"",""trial"":28,""time"":214597}]",NA,NA,NA,NA,NA,5,#1CD855,#FA92F8,0,10,0,40,0,1290.6000000014901,39,0,525.5,10,1,experiment,NA,NA,1,0.3,0.7,3,2,64,2,NA
fcp-trial,98,472436,0.0-73.0-0.0,voc_e2,11817,"[{""event"":""fullscreenenter"",""trial"":1,""time"":1329},{""event"":""fullscreenexit"",""trial"":1,""time"":1701},{""event"":""blur"",""trial"":6,""time"":18113},{""event"":""focus"",""trial"":6,""time"":22679},{""event"":""blur"",""trial"":15,""time"":73320},{""event"":""focus"",""trial"":15,""time"":84272},{""event"":""blur"",""trial"":28,""time"":213326},{""event"":""focus"",""trial"":28,""time"":214597}]",NA,NA,NA,NA,NA,2,#D8271C,#741CD8,0,10,0,38,1,1214.8999999985099,39,0,390.1000000014901,10,1,experiment,NA,NA,0,0.1,0.9,1,0,65,2,NA
fcp-trial,99,475492,0.0-74.0-0.0,voc_e2,11817,"[{""event"":""fullscreenenter"",""trial"":1,""time"":1329},{""event"":""fullscreenexit"",""trial"":1,""time"":1701},{""event"":""blur"",""trial"":6,""time"":18113},{""event"":""focus"",""trial"":6,""time"":22679},{""event"":""blur"",""trial"":15,""time"":73320},{""event"":""focus"",""trial"":15,""time"":84272},{""event"":""blur"",""trial"":28,""time"":213326},{""event"":""focus"",""trial"":28,""time"":214597}]",NA,NA,NA,NA,NA,1,#741CD8,#D8271C,10,0,1,38,1,1152.8999999985099,37,1,390.20000000298023,10,1,experiment,NA,NA,0,0.9,0.1,0,1,66,2,NA
fcp-trial,100,478719,0.0-75.0-0.0,voc_e2,11817,"[{""event"":""fullscreenenter"",""trial"":1,""time"":1329},{""event"":""fullscreenexit"",""trial"":1,""time"":1701},{""event"":""blur"",""trial"":6,""time"":18113},{""event"":""focus"",""trial"":6,""time"":22679},{""event"":""blur"",""trial"":15,""time"":73320},{""event"":""focus"",""trial"":15,""time"":84272},{""event"":""blur"",""trial"":28,""time"":213326},{""event"":""focus"",""trial"":28,""time"":214597}]",NA,NA,NA,NA,NA,6,#741CD8,#D8271C,10,0,1,40,0,1147.2999999970198,39,0,567.3999999985099,0,0,experiment,NA,NA,0,0.9,0.1,0,1,67,2,NA
fcp-trial,101,481996,0.0-76.0-0.0,voc_e2,11817,"[{""event"":""fullscreenenter"",""trial"":1,""time"":1329},{""event"":""fullscreenexit"",""trial"":1,""time"":1701},{""event"":""blur"",""trial"":6,""time"":18113},{""event"":""focus"",""trial"":6,""time"":22679},{""event"":""blur"",""trial"":15,""time"":73320},{""event"":""focus"",""trial"":15,""time"":84272},{""event"":""blur"",""trial"":28,""time"":213326},{""event"":""focus"",""trial"":28,""time"":214597}]",NA,NA,NA,NA,NA,6,#FA92F8,#1CD855,0,0,1,40,0,1196.8999999985099,37,1,565.1000000014901,0,1,experiment,NA,NA,1,0.7,0.3,2,3,68,2,NA
fcp-trial,102,485533,0.0-77.0-0.0,voc_e2,11817,"[{""event"":""fullscreenenter"",""trial"":1,""time"":1329},{""event"":""fullscreenexit"",""trial"":1,""time"":1701},{""event"":""blur"",""trial"":6,""time"":18113},{""event"":""focus"",""trial"":6,""time"":22679},{""event"":""blur"",""trial"":15,""time"":73320},{""event"":""focus"",""trial"":15,""time"":84272},{""event"":""blur"",""trial"":28,""time"":213326},{""event"":""focus"",""trial"":28,""time"":214597}]",NA,NA,NA,NA,NA,4,#D8271C,#741CD8,0,10,0,40,0,1506.3999999985099,39,0,518.7999999970198,10,1,experiment,NA,NA,0,0.1,0.9,1,0,69,2,NA
fcp-trial,103,488565,0.0-78.0-0.0,voc_e2,11817,"[{""event"":""fullscreenenter"",""trial"":1,""time"":1329},{""event"":""fullscreenexit"",""trial"":1,""time"":1701},{""event"":""blur"",""trial"":6,""time"":18113},{""event"":""focus"",""trial"":6,""time"":22679},{""event"":""blur"",""trial"":15,""time"":73320},{""event"":""focus"",""trial"":15,""time"":84272},{""event"":""blur"",""trial"":28,""time"":213326},{""event"":""focus"",""trial"":28,""time"":214597}]",NA,NA,NA,NA,NA,0,#3386FF,#D89F1C,0,10,1,38,1,1139.7999999970198,37,1,372.70000000298023,0,1,experiment,NA,NA,2,0.5,0.5,4,5,70,2,NA
fcp-trial,104,491131,0.0-79.0-0.0,voc_e2,11817,"[{""event"":""fullscreenenter"",""trial"":1,""time"":1329},{""event"":""fullscreenexit"",""trial"":1,""time"":1701},{""event"":""blur"",""trial"":6,""time"":18113},{""event"":""focus"",""trial"":6,""time"":22679},{""event"":""blur"",""trial"":15,""time"":73320},{""event"":""focus"",""trial"":15,""time"":84272},{""event"":""blur"",""trial"":28,""time"":213326},{""event"":""focus"",""trial"":28,""time"":214597}]",NA,NA,NA,NA,NA,4,#1CD855,#FA92F8,10,10,0,38,1,681.8000000044703,39,0,373.8999999985099,10,1,experiment,NA,NA,1,0.3,0.7,3,2,71,2,NA
fcp-trial,105,493700,0.0-80.0-0.0,voc_e2,11817,"[{""event"":""fullscreenenter"",""trial"":1,""time"":1329},{""event"":""fullscreenexit"",""trial"":1,""time"":1701},{""event"":""blur"",""trial"":6,""time"":18113},{""event"":""focus"",""trial"":6,""time"":22679},{""event"":""blur"",""trial"":15,""time"":73320},{""event"":""focus"",""trial"":15,""time"":84272},{""event"":""blur"",""trial"":28,""time"":213326},{""event"":""focus"",""trial"":28,""time"":214597}]",NA,NA,NA,NA,NA,2,#D89F1C,#3386FF,0,10,0,38,1,690.7999999970198,39,0,366.69999999552965,10,1,experiment,NA,NA,2,0.5,0.5,5,4,72,2,NA
fcp-trial,106,496228,0.0-81.0-0.0,voc_e2,11817,"[{""event"":""fullscreenenter"",""trial"":1,""time"":1329},{""event"":""fullscreenexit"",""trial"":1,""time"":1701},{""event"":""blur"",""trial"":6,""time"":18113},{""event"":""focus"",""trial"":6,""time"":22679},{""event"":""blur"",""trial"":15,""time"":73320},{""event"":""focus"",""trial"":15,""time"":84272},{""event"":""blur"",""trial"":28,""time"":213326},{""event"":""focus"",""trial"":28,""time"":214597}]",NA,NA,NA,NA,NA,3,#FA92F8,#1CD855,10,0,1,38,1,655.9000000059605,37,1,357.5,10,1,experiment,NA,NA,1,0.7,0.3,2,3,73,2,NA
fcp-trial,107,498748,0.0-82.0-0.0,voc_e2,11817,"[{""event"":""fullscreenenter"",""trial"":1,""time"":1329},{""event"":""fullscreenexit"",""trial"":1,""time"":1701},{""event"":""blur"",""trial"":6,""time"":18113},{""event"":""focus"",""trial"":6,""time"":22679},{""event"":""blur"",""trial"":15,""time"":73320},{""event"":""focus"",""trial"":15,""time"":84272},{""event"":""blur"",""trial"":28,""time"":213326},{""event"":""focus"",""trial"":28,""time"":214597}]",NA,NA,NA,NA,NA,0,#741CD8,#D8271C,10,0,1,38,1,699.1999999955297,37,1,310.69999999552965,10,1,experiment,NA,NA,0,0.9,0.1,0,1,74,2,NA
fcp-trial,108,501499,0.0-83.0-0.0,voc_e2,11817,"[{""event"":""fullscreenenter"",""trial"":1,""time"":1329},{""event"":""fullscreenexit"",""trial"":1,""time"":1701},{""event"":""blur"",""trial"":6,""time"":18113},{""event"":""focus"",""trial"":6,""time"":22679},{""event"":""blur"",""trial"":15,""time"":73320},{""event"":""focus"",""trial"":15,""time"":84272},{""event"":""blur"",""trial"":28,""time"":213326},{""event"":""focus"",""trial"":28,""time"":214597}]",NA,NA,NA,NA,NA,1,#FA92F8,#1CD855,10,10,1,38,1,910,37,1,334.6000000014901,10,1,experiment,NA,NA,1,0.7,0.3,2,3,75,2,NA
fcp-trial,109,504595,0.0-84.0-0.0,voc_e2,11817,"[{""event"":""fullscreenenter"",""trial"":1,""time"":1329},{""event"":""fullscreenexit"",""trial"":1,""time"":1701},{""event"":""blur"",""trial"":6,""time"":18113},{""event"":""focus"",""trial"":6,""time"":22679},{""event"":""blur"",""trial"":15,""time"":73320},{""event"":""focus"",""trial"":15,""time"":84272},{""event"":""blur"",""trial"":28,""time"":213326},{""event"":""focus"",""trial"":28,""time"":214597}]",NA,NA,NA,NA,NA,5,#D89F1C,#3386FF,10,0,0,40,0,1039.7999999970198,37,1,542.9000000059605,10,0,experiment,NA,NA,2,0.5,0.5,5,4,76,2,NA
fcp-trial,110,507652,0.0-85.0-0.0,voc_e2,11817,"[{""event"":""fullscreenenter"",""trial"":1,""time"":1329},{""event"":""fullscreenexit"",""trial"":1,""time"":1701},{""event"":""blur"",""trial"":6,""time"":18113},{""event"":""focus"",""trial"":6,""time"":22679},{""event"":""blur"",""trial"":15,""time"":73320},{""event"":""focus"",""trial"":15,""time"":84272},{""event"":""blur"",""trial"":28,""time"":213326},{""event"":""focus"",""trial"":28,""time"":214597}]",NA,NA,NA,NA,NA,3,#D8271C,#741CD8,10,10,0,38,1,1210.7000000029802,39,0,334.8999999985099,10,1,experiment,NA,NA,0,0.1,0.9,1,0,77,2,NA
fcp-trial,111,510878,0.0-86.0-0.0,voc_e2,11817,"[{""event"":""fullscreenenter"",""trial"":1,""time"":1329},{""event"":""fullscreenexit"",""trial"":1,""time"":1701},{""event"":""blur"",""trial"":6,""time"":18113},{""event"":""focus"",""trial"":6,""time"":22679},{""event"":""blur"",""trial"":15,""time"":73320},{""event"":""focus"",""trial"":15,""time"":84272},{""event"":""blur"",""trial"":28,""time"":213326},{""event"":""focus"",""trial"":28,""time"":214597}]",NA,NA,NA,NA,NA,4,#3386FF,#D89F1C,0,0,1,40,0,1199.9000000059605,39,0,512.2000000029802,0,0,experiment,NA,NA,2,0.5,0.5,4,5,78,2,NA
fcp-trial,112,513774,0.0-87.0-0.0,voc_e2,11817,"[{""event"":""fullscreenenter"",""trial"":1,""time"":1329},{""event"":""fullscreenexit"",""trial"":1,""time"":1701},{""event"":""blur"",""trial"":6,""time"":18113},{""event"":""focus"",""trial"":6,""time"":22679},{""event"":""blur"",""trial"":15,""time"":73320},{""event"":""focus"",""trial"":15,""time"":84272},{""event"":""blur"",""trial"":28,""time"":213326},{""event"":""focus"",""trial"":28,""time"":214597}]",NA,NA,NA,NA,NA,0,#1CD855,#FA92F8,0,10,0,38,1,1020.8999999985099,39,0,368.1000000014901,10,1,experiment,NA,NA,1,0.3,0.7,3,2,79,2,NA
fcp-trial,113,516580,0.0-88.0-0.0,voc_e2,11817,"[{""event"":""fullscreenenter"",""trial"":1,""time"":1329},{""event"":""fullscreenexit"",""trial"":1,""time"":1701},{""event"":""blur"",""trial"":6,""time"":18113},{""event"":""focus"",""trial"":6,""time"":22679},{""event"":""blur"",""trial"":15,""time"":73320},{""event"":""focus"",""trial"":15,""time"":84272},{""event"":""blur"",""trial"":28,""time"":213326},{""event"":""focus"",""trial"":28,""time"":214597}]",NA,NA,NA,NA,NA,1,#3386FF,#D89F1C,0,0,1,38,1,992.3999999985099,37,1,302.1000000014901,0,1,experiment,NA,NA,2,0.5,0.5,4,5,80,2,NA
fcp-trial,114,519731,0.0-89.0-0.0,voc_e2,11817,"[{""event"":""fullscreenenter"",""trial"":1,""time"":1329},{""event"":""fullscreenexit"",""trial"":1,""time"":1701},{""event"":""blur"",""trial"":6,""time"":18113},{""event"":""focus"",""trial"":6,""time"":22679},{""event"":""blur"",""trial"":15,""time"":73320},{""event"":""focus"",""trial"":15,""time"":84272},{""event"":""blur"",""trial"":28,""time"":213326},{""event"":""focus"",""trial"":28,""time"":214597}]",NA,NA,NA,NA,NA,5,#741CD8,#D8271C,0,0,1,40,0,1113.6000000014901,37,1,525.4000000059605,0,1,experiment,NA,NA,0,0.9,0.1,0,1,81,2,NA
fcp-trial,115,523076,0.0-90.0-0.0,voc_e2,11817,"[{""event"":""fullscreenenter"",""trial"":1,""time"":1329},{""event"":""fullscreenexit"",""trial"":1,""time"":1701},{""event"":""blur"",""trial"":6,""time"":18113},{""event"":""focus"",""trial"":6,""time"":22679},{""event"":""blur"",""trial"":15,""time"":73320},{""event"":""focus"",""trial"":15,""time"":84272},{""event"":""blur"",""trial"":28,""time"":213326},{""event"":""focus"",""trial"":28,""time"":214597}]",NA,NA,NA,NA,NA,6,#D89F1C,#3386FF,10,10,0,40,0,1322.5,39,0,511.30000000447035,10,1,experiment,NA,NA,2,0.5,0.5,5,4,82,2,NA
fcp-trial,116,526028,0.0-91.0-0.0,voc_e2,11817,"[{""event"":""fullscreenenter"",""trial"":1,""time"":1329},{""event"":""fullscreenexit"",""trial"":1,""time"":1701},{""event"":""blur"",""trial"":6,""time"":18113},{""event"":""focus"",""trial"":6,""time"":22679},{""event"":""blur"",""trial"":15,""time"":73320},{""event"":""focus"",""trial"":15,""time"":84272},{""event"":""blur"",""trial"":28,""time"":213326},{""event"":""focus"",""trial"":28,""time"":214597}]",NA,NA,NA,NA,NA,2,#1CD855,#FA92F8,0,10,0,38,1,1114.5,39,0,326.5,10,1,experiment,NA,NA,1,0.3,0.7,3,2,83,2,NA
fcp-trial,117,528788,0.0-92.0-0.0,voc_e2,11817,"[{""event"":""fullscreenenter"",""trial"":1,""time"":1329},{""event"":""fullscreenexit"",""trial"":1,""time"":1701},{""event"":""blur"",""trial"":6,""time"":18113},{""event"":""focus"",""trial"":6,""time"":22679},{""event"":""blur"",""trial"":15,""time"":73320},{""event"":""focus"",""trial"":15,""time"":84272},{""event"":""blur"",""trial"":28,""time"":213326},{""event"":""focus"",""trial"":28,""time"":214597}]",NA,NA,NA,NA,NA,3,#D89F1C,#3386FF,10,0,0,38,1,897.1000000014901,39,0,351.5,0,1,experiment,NA,NA,2,0.5,0.5,5,4,84,2,NA
fcp-trial,118,531603,0.0-93.0-0.0,voc_e2,11817,"[{""event"":""fullscreenenter"",""trial"":1,""time"":1329},{""event"":""fullscreenexit"",""trial"":1,""time"":1701},{""event"":""blur"",""trial"":6,""time"":18113},{""event"":""focus"",""trial"":6,""time"":22679},{""event"":""blur"",""trial"":15,""time"":73320},{""event"":""focus"",""trial"":15,""time"":84272},{""event"":""blur"",""trial"":28,""time"":213326},{""event"":""focus"",""trial"":28,""time"":214597}]",NA,NA,NA,NA,NA,2,#D8271C,#741CD8,0,10,0,38,1,907.8999999985099,39,0,397.3999999985099,10,1,experiment,NA,NA,0,0.1,0.9,1,0,85,2,NA
fcp-trial,119,534707,0.0-94.0-0.0,voc_e2,11817,"[{""event"":""fullscreenenter"",""trial"":1,""time"":1329},{""event"":""fullscreenexit"",""trial"":1,""time"":1701},{""event"":""blur"",""trial"":6,""time"":18113},{""event"":""focus"",""trial"":6,""time"":22679},{""event"":""blur"",""trial"":15,""time"":73320},{""event"":""focus"",""trial"":15,""time"":84272},{""event"":""blur"",""trial"":28,""time"":213326},{""event"":""focus"",""trial"":28,""time"":214597}]",NA,NA,NA,NA,NA,5,#D89F1C,#3386FF,0,0,0,40,0,1080.3999999985099,39,0,510.19999999552965,0,1,experiment,NA,NA,2,0.5,0.5,5,4,86,2,NA
fcp-trial,120,537723,0.0-95.0-0.0,voc_e2,11817,"[{""event"":""fullscreenenter"",""trial"":1,""time"":1329},{""event"":""fullscreenexit"",""trial"":1,""time"":1701},{""event"":""blur"",""trial"":6,""time"":18113},{""event"":""focus"",""trial"":6,""time"":22679},{""event"":""blur"",""trial"":15,""time"":73320},{""event"":""focus"",""trial"":15,""time"":84272},{""event"":""blur"",""trial"":28,""time"":213326},{""event"":""focus"",""trial"":28,""time"":214597}]",NA,NA,NA,NA,NA,0,#FA92F8,#1CD855,10,10,1,38,1,1098.7999999970198,37,1,406.30000000447035,10,1,experiment,NA,NA,1,0.7,0.3,2,3,87,2,NA
fcp-trial,121,540988,0.0-96.0-0.0,voc_e2,11817,"[{""event"":""fullscreenenter"",""trial"":1,""time"":1329},{""event"":""fullscreenexit"",""trial"":1,""time"":1701},{""event"":""blur"",""trial"":6,""time"":18113},{""event"":""focus"",""trial"":6,""time"":22679},{""event"":""blur"",""trial"":15,""time"":73320},{""event"":""focus"",""trial"":15,""time"":84272},{""event"":""blur"",""trial"":28,""time"":213326},{""event"":""focus"",""trial"":28,""time"":214597}]",NA,NA,NA,NA,NA,6,#1CD855,#FA92F8,0,10,0,40,0,1267.5,39,0,487,10,1,experiment,NA,NA,1,0.3,0.7,3,2,88,2,NA
fcp-trial,122,543693,0.0-97.0-0.0,voc_e2,11817,"[{""event"":""fullscreenenter"",""trial"":1,""time"":1329},{""event"":""fullscreenexit"",""trial"":1,""time"":1701},{""event"":""blur"",""trial"":6,""time"":18113},{""event"":""focus"",""trial"":6,""time"":22679},{""event"":""blur"",""trial"":15,""time"":73320},{""event"":""focus"",""trial"":15,""time"":84272},{""event"":""blur"",""trial"":28,""time"":213326},{""event"":""focus"",""trial"":28,""time"":214597}]",NA,NA,NA,NA,NA,6,#741CD8,#D8271C,10,0,1,40,0,709.3000000044703,37,1,484.5,10,1,experiment,NA,NA,0,0.9,0.1,0,1,89,2,NA
fcp-trial,123,546817,0.0-98.0-0.0,voc_e2,11817,"[{""event"":""fullscreenenter"",""trial"":1,""time"":1329},{""event"":""fullscreenexit"",""trial"":1,""time"":1701},{""event"":""blur"",""trial"":6,""time"":18113},{""event"":""focus"",""trial"":6,""time"":22679},{""event"":""blur"",""trial"":15,""time"":73320},{""event"":""focus"",""trial"":15,""time"":84272},{""event"":""blur"",""trial"":28,""time"":213326},{""event"":""focus"",""trial"":28,""time"":214597}]",NA,NA,NA,NA,NA,0,#D8271C,#741CD8,0,10,0,38,1,970.7000000029802,39,0,637,10,1,experiment,NA,NA,0,0.1,0.9,1,0,90,2,NA
fcp-trial,124,549964,0.0-99.0-0.0,voc_e2,11817,"[{""event"":""fullscreenenter"",""trial"":1,""time"":1329},{""event"":""fullscreenexit"",""trial"":1,""time"":1701},{""event"":""blur"",""trial"":6,""time"":18113},{""event"":""focus"",""trial"":6,""time"":22679},{""event"":""blur"",""trial"":15,""time"":73320},{""event"":""focus"",""trial"":15,""time"":84272},{""event"":""blur"",""trial"":28,""time"":213326},{""event"":""focus"",""trial"":28,""time"":214597}]",NA,NA,NA,NA,NA,3,#3386FF,#D89F1C,10,10,1,38,1,1210.8000000044703,37,1,421.69999999552965,10,1,experiment,NA,NA,2,0.5,0.5,4,5,91,3,NA
fcp-trial,125,552723,0.0-100.0-0.0,voc_e2,11817,"[{""event"":""fullscreenenter"",""trial"":1,""time"":1329},{""event"":""fullscreenexit"",""trial"":1,""time"":1701},{""event"":""blur"",""trial"":6,""time"":18113},{""event"":""focus"",""trial"":6,""time"":22679},{""event"":""blur"",""trial"":15,""time"":73320},{""event"":""focus"",""trial"":15,""time"":84272},{""event"":""blur"",""trial"":28,""time"":213326},{""event"":""focus"",""trial"":28,""time"":214597}]",NA,NA,NA,NA,NA,1,#FA92F8,#1CD855,0,0,1,38,1,857.2999999970198,39,0,390.79999999701977,0,0,experiment,NA,NA,1,0.7,0.3,2,3,92,3,NA
fcp-trial,126,555868,0.0-101.0-0.0,voc_e2,11817,"[{""event"":""fullscreenenter"",""trial"":1,""time"":1329},{""event"":""fullscreenexit"",""trial"":1,""time"":1701},{""event"":""blur"",""trial"":6,""time"":18113},{""event"":""focus"",""trial"":6,""time"":22679},{""event"":""blur"",""trial"":15,""time"":73320},{""event"":""focus"",""trial"":15,""time"":84272},{""event"":""blur"",""trial"":28,""time"":213326},{""event"":""focus"",""trial"":28,""time"":214597}]",NA,NA,NA,NA,NA,6,#D89F1C,#3386FF,0,0,0,40,0,1162.8999999985099,39,0,471,0,1,experiment,NA,NA,2,0.5,0.5,5,4,93,3,NA
fcp-trial,127,558962,0.0-102.0-0.0,voc_e2,11817,"[{""event"":""fullscreenenter"",""trial"":1,""time"":1329},{""event"":""fullscreenexit"",""trial"":1,""time"":1701},{""event"":""blur"",""trial"":6,""time"":18113},{""event"":""focus"",""trial"":6,""time"":22679},{""event"":""blur"",""trial"":15,""time"":73320},{""event"":""focus"",""trial"":15,""time"":84272},{""event"":""blur"",""trial"":28,""time"":213326},{""event"":""focus"",""trial"":28,""time"":214597}]",NA,NA,NA,NA,NA,3,#741CD8,#D8271C,10,0,1,38,1,1286.2000000029802,37,1,294.59999999403954,10,1,experiment,NA,NA,0,0.9,0.1,0,1,94,3,NA
fcp-trial,128,561900,0.0-103.0-0.0,voc_e2,11817,"[{""event"":""fullscreenenter"",""trial"":1,""time"":1329},{""event"":""fullscreenexit"",""trial"":1,""time"":1701},{""event"":""blur"",""trial"":6,""time"":18113},{""event"":""focus"",""trial"":6,""time"":22679},{""event"":""blur"",""trial"":15,""time"":73320},{""event"":""focus"",""trial"":15,""time"":84272},{""event"":""blur"",""trial"":28,""time"":213326},{""event"":""focus"",""trial"":28,""time"":214597}]",NA,NA,NA,NA,NA,4,#D89F1C,#3386FF,0,10,0,38,1,987,39,0,437.80000000447035,10,1,experiment,NA,NA,2,0.5,0.5,5,4,95,3,NA
fcp-trial,129,564979,0.0-104.0-0.0,voc_e2,11817,"[{""event"":""fullscreenenter"",""trial"":1,""time"":1329},{""event"":""fullscreenexit"",""trial"":1,""time"":1701},{""event"":""blur"",""trial"":6,""time"":18113},{""event"":""focus"",""trial"":6,""time"":22679},{""event"":""blur"",""trial"":15,""time"":73320},{""event"":""focus"",""trial"":15,""time"":84272},{""event"":""blur"",""trial"":28,""time"":213326},{""event"":""focus"",""trial"":28,""time"":214597}]",NA,NA,NA,NA,NA,4,#1CD855,#FA92F8,0,10,0,40,0,1051.2000000029802,37,1,510,0,0,experiment,NA,NA,1,0.3,0.7,3,2,96,3,NA
fcp-trial,130,567860,0.0-105.0-0.0,voc_e2,11817,"[{""event"":""fullscreenenter"",""trial"":1,""time"":1329},{""event"":""fullscreenexit"",""trial"":1,""time"":1701},{""event"":""blur"",""trial"":6,""time"":18113},{""event"":""focus"",""trial"":6,""time"":22679},{""event"":""blur"",""trial"":15,""time"":73320},{""event"":""focus"",""trial"":15,""time"":84272},{""event"":""blur"",""trial"":28,""time"":213326},{""event"":""focus"",""trial"":28,""time"":214597}]",NA,NA,NA,NA,NA,3,#1CD855,#FA92F8,10,10,0,38,1,1026.7999999970198,39,0,342.59999999403954,10,1,experiment,NA,NA,1,0.3,0.7,3,2,97,3,NA
fcp-trial,131,571380,0.0-106.0-0.0,voc_e2,11817,"[{""event"":""fullscreenenter"",""trial"":1,""time"":1329},{""event"":""fullscreenexit"",""trial"":1,""time"":1701},{""event"":""blur"",""trial"":6,""time"":18113},{""event"":""focus"",""trial"":6,""time"":22679},{""event"":""blur"",""trial"":15,""time"":73320},{""event"":""focus"",""trial"":15,""time"":84272},{""event"":""blur"",""trial"":28,""time"":213326},{""event"":""focus"",""trial"":28,""time"":214597}]",NA,NA,NA,NA,NA,4,#741CD8,#D8271C,10,0,1,40,0,1450.2000000029802,39,0,559,0,0,experiment,NA,NA,0,0.9,0.1,0,1,98,3,NA
fcp-trial,132,574427,0.0-107.0-0.0,voc_e2,11817,"[{""event"":""fullscreenenter"",""trial"":1,""time"":1329},{""event"":""fullscreenexit"",""trial"":1,""time"":1701},{""event"":""blur"",""trial"":6,""time"":18113},{""event"":""focus"",""trial"":6,""time"":22679},{""event"":""blur"",""trial"":15,""time"":73320},{""event"":""focus"",""trial"":15,""time"":84272},{""event"":""blur"",""trial"":28,""time"":213326},{""event"":""focus"",""trial"":28,""time"":214597}]",NA,NA,NA,NA,NA,1,#D89F1C,#3386FF,10,0,0,38,1,1234.0999999940395,39,0,301.20000000298023,0,1,experiment,NA,NA,2,0.5,0.5,5,4,99,3,NA
fcp-trial,133,577413,0.0-108.0-0.0,voc_e2,11817,"[{""event"":""fullscreenenter"",""trial"":1,""time"":1329},{""event"":""fullscreenexit"",""trial"":1,""time"":1701},{""event"":""blur"",""trial"":6,""time"":18113},{""event"":""focus"",""trial"":6,""time"":22679},{""event"":""blur"",""trial"":15,""time"":73320},{""event"":""focus"",""trial"":15,""time"":84272},{""event"":""blur"",""trial"":28,""time"":213326},{""event"":""focus"",""trial"":28,""time"":214597}]",NA,NA,NA,NA,NA,2,#D89F1C,#3386FF,10,10,0,38,1,978.8999999985099,37,1,494.5,10,0,experiment,NA,NA,2,0.5,0.5,5,4,100,3,NA
fcp-trial,134,580245,0.0-109.0-0.0,voc_e2,11817,"[{""event"":""fullscreenenter"",""trial"":1,""time"":1329},{""event"":""fullscreenexit"",""trial"":1,""time"":1701},{""event"":""blur"",""trial"":6,""time"":18113},{""event"":""focus"",""trial"":6,""time"":22679},{""event"":""blur"",""trial"":15,""time"":73320},{""event"":""focus"",""trial"":15,""time"":84272},{""event"":""blur"",""trial"":28,""time"":213326},{""event"":""focus"",""trial"":28,""time"":214597}]",NA,NA,NA,NA,NA,0,#3386FF,#D89F1C,10,0,1,38,1,969.4000000059605,37,1,350.3999999985099,10,1,experiment,NA,NA,2,0.5,0.5,4,5,101,3,NA
fcp-trial,135,583499,0.0-110.0-0.0,voc_e2,11817,"[{""event"":""fullscreenenter"",""trial"":1,""time"":1329},{""event"":""fullscreenexit"",""trial"":1,""time"":1701},{""event"":""blur"",""trial"":6,""time"":18113},{""event"":""focus"",""trial"":6,""time"":22679},{""event"":""blur"",""trial"":15,""time"":73320},{""event"":""focus"",""trial"":15,""time"":84272},{""event"":""blur"",""trial"":28,""time"":213326},{""event"":""focus"",""trial"":28,""time"":214597}]",NA,NA,NA,NA,NA,2,#FA92F8,#1CD855,10,10,1,38,1,1457.8999999985099,37,1,285.6000000014901,10,1,experiment,NA,NA,1,0.7,0.3,2,3,102,3,NA
fcp-trial,136,586226,0.0-111.0-0.0,voc_e2,11817,"[{""event"":""fullscreenenter"",""trial"":1,""time"":1329},{""event"":""fullscreenexit"",""trial"":1,""time"":1701},{""event"":""blur"",""trial"":6,""time"":18113},{""event"":""focus"",""trial"":6,""time"":22679},{""event"":""blur"",""trial"":15,""time"":73320},{""event"":""focus"",""trial"":15,""time"":84272},{""event"":""blur"",""trial"":28,""time"":213326},{""event"":""focus"",""trial"":28,""time"":214597}]",NA,NA,NA,NA,NA,5,#D8271C,#741CD8,0,0,0,38,1,754.8999999985099,39,0,462.1000000014901,0,1,experiment,NA,NA,0,0.1,0.9,1,0,103,3,NA
fcp-trial,137,588949,0.0-112.0-0.0,voc_e2,11817,"[{""event"":""fullscreenenter"",""trial"":1,""time"":1329},{""event"":""fullscreenexit"",""trial"":1,""time"":1701},{""event"":""blur"",""trial"":6,""time"":18113},{""event"":""focus"",""trial"":6,""time"":22679},{""event"":""blur"",""trial"":15,""time"":73320},{""event"":""focus"",""trial"":15,""time"":84272},{""event"":""blur"",""trial"":28,""time"":213326},{""event"":""focus"",""trial"":28,""time"":214597}]",NA,NA,NA,NA,NA,5,#FA92F8,#1CD855,10,0,1,38,1,811.7999999970198,37,1,398.6000000014901,10,1,experiment,NA,NA,1,0.7,0.3,2,3,104,3,NA
fcp-trial,138,592396,0.0-113.0-0.0,voc_e2,11817,"[{""event"":""fullscreenenter"",""trial"":1,""time"":1329},{""event"":""fullscreenexit"",""trial"":1,""time"":1701},{""event"":""blur"",""trial"":6,""time"":18113},{""event"":""focus"",""trial"":6,""time"":22679},{""event"":""blur"",""trial"":15,""time"":73320},{""event"":""focus"",""trial"":15,""time"":84272},{""event"":""blur"",""trial"":28,""time"":213326},{""event"":""focus"",""trial"":28,""time"":214597}]",NA,NA,NA,NA,NA,1,#D8271C,#741CD8,0,10,0,38,1,1552.5,39,0,381.6000000014901,10,1,experiment,NA,NA,0,0.1,0.9,1,0,105,3,NA
audio-instructions,139,597792,0.0-114.0,voc_e2,11817,"[{""event"":""fullscreenenter"",""trial"":1,""time"":1329},{""event"":""fullscreenexit"",""trial"":1,""time"":1701},{""event"":""blur"",""trial"":6,""time"":18113},{""event"":""focus"",""trial"":6,""time"":22679},{""event"":""blur"",""trial"":15,""time"":73320},{""event"":""focus"",""trial"":15,""time"":84272},{""event"":""blur"",""trial"":28,""time"":213326},{""event"":""focus"",""trial"":28,""time"":214597}]",NA,931.10000000149,static/audio/pause.wav,NA,0,NA,NA,NA,NA,NA,NA,NA,NA,NA,NA,NA,NA,NA,NA,NA,NA,NA,NA,NA,NA,NA,NA,NA,NA,NA
fcp-trial,140,600556,0.0-115.0-0.0,voc_e2,11817,"[{""event"":""fullscreenenter"",""trial"":1,""time"":1329},{""event"":""fullscreenexit"",""trial"":1,""time"":1701},{""event"":""blur"",""trial"":6,""time"":18113},{""event"":""focus"",""trial"":6,""time"":22679},{""event"":""blur"",""trial"":15,""time"":73320},{""event"":""focus"",""trial"":15,""time"":84272},{""event"":""blur"",""trial"":28,""time"":213326},{""event"":""focus"",""trial"":28,""time"":214597}]",NA,NA,NA,NA,NA,5,#FA92F8,#1CD855,10,0,1,38,1,893.8000000044703,37,1,351.79999999701977,10,1,experiment,NA,NA,1,0.7,0.3,2,3,106,3,NA
fcp-trial,141,603304,0.0-116.0-0.0,voc_e2,11817,"[{""event"":""fullscreenenter"",""trial"":1,""time"":1329},{""event"":""fullscreenexit"",""trial"":1,""time"":1701},{""event"":""blur"",""trial"":6,""time"":18113},{""event"":""focus"",""trial"":6,""time"":22679},{""event"":""blur"",""trial"":15,""time"":73320},{""event"":""focus"",""trial"":15,""time"":84272},{""event"":""blur"",""trial"":28,""time"":213326},{""event"":""focus"",""trial"":28,""time"":214597}]",NA,NA,NA,NA,NA,2,#741CD8,#D8271C,10,0,1,38,1,882.2999999970198,37,1,336.5,10,1,experiment,NA,NA,0,0.9,0.1,0,1,107,3,NA
fcp-trial,142,606089,0.0-117.0-0.0,voc_e2,11817,"[{""event"":""fullscreenenter"",""trial"":1,""time"":1329},{""event"":""fullscreenexit"",""trial"":1,""time"":1701},{""event"":""blur"",""trial"":6,""time"":18113},{""event"":""focus"",""trial"":6,""time"":22679},{""event"":""blur"",""trial"":15,""time"":73320},{""event"":""focus"",""trial"":15,""time"":84272},{""event"":""blur"",""trial"":28,""time"":213326},{""event"":""focus"",""trial"":28,""time"":214597}]",NA,NA,NA,NA,NA,1,#1CD855,#FA92F8,0,10,0,38,1,947.1000000014901,39,0,312.8999999985099,10,1,experiment,NA,NA,1,0.3,0.7,3,2,108,3,NA
fcp-trial,143,609887,0.0-118.0-0.0,voc_e2,11817,"[{""event"":""fullscreenenter"",""trial"":1,""time"":1329},{""event"":""fullscreenexit"",""trial"":1,""time"":1701},{""event"":""blur"",""trial"":6,""time"":18113},{""event"":""focus"",""trial"":6,""time"":22679},{""event"":""blur"",""trial"":15,""time"":73320},{""event"":""focus"",""trial"":15,""time"":84272},{""event"":""blur"",""trial"":28,""time"":213326},{""event"":""focus"",""trial"":28,""time"":214597}]",NA,NA,NA,NA,NA,3,#D89F1C,#3386FF,0,0,0,38,1,1972.8000000044703,39,0,309.1000000014901,0,1,experiment,NA,NA,2,0.5,0.5,5,4,109,3,NA
fcp-trial,144,612887,0.0-119.0-0.0,voc_e2,11817,"[{""event"":""fullscreenenter"",""trial"":1,""time"":1329},{""event"":""fullscreenexit"",""trial"":1,""time"":1701},{""event"":""blur"",""trial"":6,""time"":18113},{""event"":""focus"",""trial"":6,""time"":22679},{""event"":""blur"",""trial"":15,""time"":73320},{""event"":""focus"",""trial"":15,""time"":84272},{""event"":""blur"",""trial"":28,""time"":213326},{""event"":""focus"",""trial"":28,""time"":214597}]",NA,NA,NA,NA,NA,1,#D8271C,#741CD8,0,10,0,38,1,1131.7000000029802,39,0,345,10,1,experiment,NA,NA,0,0.1,0.9,1,0,110,3,NA
fcp-trial,145,615537,0.0-120.0-0.0,voc_e2,11817,"[{""event"":""fullscreenenter"",""trial"":1,""time"":1329},{""event"":""fullscreenexit"",""trial"":1,""time"":1701},{""event"":""blur"",""trial"":6,""time"":18113},{""event"":""focus"",""trial"":6,""time"":22679},{""event"":""blur"",""trial"":15,""time"":73320},{""event"":""focus"",""trial"":15,""time"":84272},{""event"":""blur"",""trial"":28,""time"":213326},{""event"":""focus"",""trial"":28,""time"":214597}]",NA,NA,NA,NA,NA,0,#FA92F8,#1CD855,10,10,1,38,1,703.5999999940395,37,1,410.70000000298023,10,1,experiment,NA,NA,1,0.7,0.3,2,3,111,3,NA
fcp-trial,146,618187,0.0-121.0-0.0,voc_e2,11817,"[{""event"":""fullscreenenter"",""trial"":1,""time"":1329},{""event"":""fullscreenexit"",""trial"":1,""time"":1701},{""event"":""blur"",""trial"":6,""time"":18113},{""event"":""focus"",""trial"":6,""time"":22679},{""event"":""blur"",""trial"":15,""time"":73320},{""event"":""focus"",""trial"":15,""time"":84272},{""event"":""blur"",""trial"":28,""time"":213326},{""event"":""focus"",""trial"":28,""time"":214597}]",NA,NA,NA,NA,NA,2,#FA92F8,#1CD855,10,0,1,38,1,793.2999999970198,37,1,332,10,1,experiment,NA,NA,1,0.7,0.3,2,3,112,3,NA
fcp-trial,147,621321,0.0-122.0-0.0,voc_e2,11817,"[{""event"":""fullscreenenter"",""trial"":1,""time"":1329},{""event"":""fullscreenexit"",""trial"":1,""time"":1701},{""event"":""blur"",""trial"":6,""time"":18113},{""event"":""focus"",""trial"":6,""time"":22679},{""event"":""blur"",""trial"":15,""time"":73320},{""event"":""focus"",""trial"":15,""time"":84272},{""event"":""blur"",""trial"":28,""time"":213326},{""event"":""focus"",""trial"":28,""time"":214597}]",NA,NA,NA,NA,NA,6,#D89F1C,#3386FF,0,10,0,40,0,1159.2999999970198,39,0,445,10,1,experiment,NA,NA,2,0.5,0.5,5,4,113,3,NA
fcp-trial,148,624404,0.0-123.0-0.0,voc_e2,11817,"[{""event"":""fullscreenenter"",""trial"":1,""time"":1329},{""event"":""fullscreenexit"",""trial"":1,""time"":1701},{""event"":""blur"",""trial"":6,""time"":18113},{""event"":""focus"",""trial"":6,""time"":22679},{""event"":""blur"",""trial"":15,""time"":73320},{""event"":""focus"",""trial"":15,""time"":84272},{""event"":""blur"",""trial"":28,""time"":213326},{""event"":""focus"",""trial"":28,""time"":214597}]",NA,NA,NA,NA,NA,4,#D8271C,#741CD8,0,10,0,40,0,1075.5,39,0,482.69999999552965,10,1,experiment,NA,NA,0,0.1,0.9,1,0,114,3,NA
fcp-trial,149,627146,0.0-124.0-0.0,voc_e2,11817,"[{""event"":""fullscreenenter"",""trial"":1,""time"":1329},{""event"":""fullscreenexit"",""trial"":1,""time"":1701},{""event"":""blur"",""trial"":6,""time"":18113},{""event"":""focus"",""trial"":6,""time"":22679},{""event"":""blur"",""trial"":15,""time"":73320},{""event"":""focus"",""trial"":15,""time"":84272},{""event"":""blur"",""trial"":28,""time"":213326},{""event"":""focus"",""trial"":28,""time"":214597}]",NA,NA,NA,NA,NA,2,#3386FF,#D89F1C,0,10,1,38,1,918.6000000014901,37,1,308.3999999985099,0,1,experiment,NA,NA,2,0.5,0.5,4,5,115,3,NA
fcp-trial,150,630049,0.0-125.0-0.0,voc_e2,11817,"[{""event"":""fullscreenenter"",""trial"":1,""time"":1329},{""event"":""fullscreenexit"",""trial"":1,""time"":1701},{""event"":""blur"",""trial"":6,""time"":18113},{""event"":""focus"",""trial"":6,""time"":22679},{""event"":""blur"",""trial"":15,""time"":73320},{""event"":""focus"",""trial"":15,""time"":84272},{""event"":""blur"",""trial"":28,""time"":213326},{""event"":""focus"",""trial"":28,""time"":214597}]",NA,NA,NA,NA,NA,0,#D89F1C,#3386FF,10,0,0,38,1,1087.5,39,0,310.3999999985099,0,1,experiment,NA,NA,2,0.5,0.5,5,4,116,3,NA
fcp-trial,151,633522,0.0-126.0-0.0,voc_e2,11817,"[{""event"":""fullscreenenter"",""trial"":1,""time"":1329},{""event"":""fullscreenexit"",""trial"":1,""time"":1701},{""event"":""blur"",""trial"":6,""time"":18113},{""event"":""focus"",""trial"":6,""time"":22679},{""event"":""blur"",""trial"":15,""time"":73320},{""event"":""focus"",""trial"":15,""time"":84272},{""event"":""blur"",""trial"":28,""time"":213326},{""event"":""focus"",""trial"":28,""time"":214597}]",NA,NA,NA,NA,NA,6,#1CD855,#FA92F8,0,10,0,40,0,1402.7000000029802,39,0,559.7999999970198,10,1,experiment,NA,NA,1,0.3,0.7,3,2,117,3,NA
fcp-trial,152,636411,0.0-127.0-0.0,voc_e2,11817,"[{""event"":""fullscreenenter"",""trial"":1,""time"":1329},{""event"":""fullscreenexit"",""trial"":1,""time"":1701},{""event"":""blur"",""trial"":6,""time"":18113},{""event"":""focus"",""trial"":6,""time"":22679},{""event"":""blur"",""trial"":15,""time"":73320},{""event"":""focus"",""trial"":15,""time"":84272},{""event"":""blur"",""trial"":28,""time"":213326},{""event"":""focus"",""trial"":28,""time"":214597}]",NA,NA,NA,NA,NA,5,#D8271C,#741CD8,0,10,0,40,0,875.7999999970198,37,1,502.3999999985099,0,0,experiment,NA,NA,0,0.1,0.9,1,0,118,3,NA
fcp-trial,153,639498,0.0-128.0-0.0,voc_e2,11817,"[{""event"":""fullscreenenter"",""trial"":1,""time"":1329},{""event"":""fullscreenexit"",""trial"":1,""time"":1701},{""event"":""blur"",""trial"":6,""time"":18113},{""event"":""focus"",""trial"":6,""time"":22679},{""event"":""blur"",""trial"":15,""time"":73320},{""event"":""focus"",""trial"":15,""time"":84272},{""event"":""blur"",""trial"":28,""time"":213326},{""event"":""focus"",""trial"":28,""time"":214597}]",NA,NA,NA,NA,NA,5,#D89F1C,#3386FF,0,0,0,40,0,1114.1000000014901,39,0,462.19999999552965,0,1,experiment,NA,NA,2,0.5,0.5,5,4,119,3,NA
fcp-trial,154,643145,0.0-129.0-0.0,voc_e2,11817,"[{""event"":""fullscreenenter"",""trial"":1,""time"":1329},{""event"":""fullscreenexit"",""trial"":1,""time"":1701},{""event"":""blur"",""trial"":6,""time"":18113},{""event"":""focus"",""trial"":6,""time"":22679},{""event"":""blur"",""trial"":15,""time"":73320},{""event"":""focus"",""trial"":15,""time"":84272},{""event"":""blur"",""trial"":28,""time"":213326},{""event"":""focus"",""trial"":28,""time"":214597}]",NA,NA,NA,NA,NA,3,#1CD855,#FA92F8,10,10,0,38,1,1810,37,1,327.3999999985099,10,0,experiment,NA,NA,1,0.3,0.7,3,2,120,3,NA
fcp-trial,155,646124,0.0-130.0-0.0,voc_e2,11817,"[{""event"":""fullscreenenter"",""trial"":1,""time"":1329},{""event"":""fullscreenexit"",""trial"":1,""time"":1701},{""event"":""blur"",""trial"":6,""time"":18113},{""event"":""focus"",""trial"":6,""time"":22679},{""event"":""blur"",""trial"":15,""time"":73320},{""event"":""focus"",""trial"":15,""time"":84272},{""event"":""blur"",""trial"":28,""time"":213326},{""event"":""focus"",""trial"":28,""time"":214597}]",NA,NA,NA,NA,NA,3,#D8271C,#741CD8,0,10,0,38,1,1099.5,39,0,366.8999999985099,10,1,experiment,NA,NA,0,0.1,0.9,1,0,121,3,NA
fcp-trial,156,648939,0.0-131.0-0.0,voc_e2,11817,"[{""event"":""fullscreenenter"",""trial"":1,""time"":1329},{""event"":""fullscreenexit"",""trial"":1,""time"":1701},{""event"":""blur"",""trial"":6,""time"":18113},{""event"":""focus"",""trial"":6,""time"":22679},{""event"":""blur"",""trial"":15,""time"":73320},{""event"":""focus"",""trial"":15,""time"":84272},{""event"":""blur"",""trial"":28,""time"":213326},{""event"":""focus"",""trial"":28,""time"":214597}]",NA,NA,NA,NA,NA,0,#D8271C,#741CD8,0,10,0,38,1,928.6000000014901,39,0,374.6000000014901,10,1,experiment,NA,NA,0,0.1,0.9,1,0,122,3,NA
fcp-trial,157,652426,0.0-132.0-0.0,voc_e2,11817,"[{""event"":""fullscreenenter"",""trial"":1,""time"":1329},{""event"":""fullscreenexit"",""trial"":1,""time"":1701},{""event"":""blur"",""trial"":6,""time"":18113},{""event"":""focus"",""trial"":6,""time"":22679},{""event"":""blur"",""trial"":15,""time"":73320},{""event"":""focus"",""trial"":15,""time"":84272},{""event"":""blur"",""trial"":28,""time"":213326},{""event"":""focus"",""trial"":28,""time"":214597}]",NA,NA,NA,NA,NA,4,#3386FF,#D89F1C,10,10,1,38,1,1043,37,1,932.9000000059604,10,1,experiment,NA,NA,2,0.5,0.5,4,5,123,3,NA
fcp-trial,158,655233,0.0-133.0-0.0,voc_e2,11817,"[{""event"":""fullscreenenter"",""trial"":1,""time"":1329},{""event"":""fullscreenexit"",""trial"":1,""time"":1701},{""event"":""blur"",""trial"":6,""time"":18113},{""event"":""focus"",""trial"":6,""time"":22679},{""event"":""blur"",""trial"":15,""time"":73320},{""event"":""focus"",""trial"":15,""time"":84272},{""event"":""blur"",""trial"":28,""time"":213326},{""event"":""focus"",""trial"":28,""time"":214597}]",NA,NA,NA,NA,NA,6,#741CD8,#D8271C,10,0,1,40,0,818.8999999985099,39,0,476.20000000298023,0,0,experiment,NA,NA,0,0.9,0.1,0,1,124,3,NA
fcp-trial,159,658242,0.0-134.0-0.0,voc_e2,11817,"[{""event"":""fullscreenenter"",""trial"":1,""time"":1329},{""event"":""fullscreenexit"",""trial"":1,""time"":1701},{""event"":""blur"",""trial"":6,""time"":18113},{""event"":""focus"",""trial"":6,""time"":22679},{""event"":""blur"",""trial"":15,""time"":73320},{""event"":""focus"",""trial"":15,""time"":84272},{""event"":""blur"",""trial"":28,""time"":213326},{""event"":""focus"",""trial"":28,""time"":214597}]",NA,NA,NA,NA,NA,4,#1CD855,#FA92F8,0,10,0,38,1,1164.1000000014901,39,0,332.8999999985099,10,1,experiment,NA,NA,1,0.3,0.7,3,2,125,3,NA
fcp-trial,160,661291,0.0-135.0-0.0,voc_e2,11817,"[{""event"":""fullscreenenter"",""trial"":1,""time"":1329},{""event"":""fullscreenexit"",""trial"":1,""time"":1701},{""event"":""blur"",""trial"":6,""time"":18113},{""event"":""focus"",""trial"":6,""time"":22679},{""event"":""blur"",""trial"":15,""time"":73320},{""event"":""focus"",""trial"":15,""time"":84272},{""event"":""blur"",""trial"":28,""time"":213326},{""event"":""focus"",""trial"":28,""time"":214597}]",NA,NA,NA,NA,NA,1,#D89F1C,#3386FF,0,0,0,38,1,1123.4000000059605,39,0,416.3999999985099,0,1,experiment,NA,NA,2,0.5,0.5,5,4,126,3,NA
fcp-trial,161,664170,0.0-136.0-0.0,voc_e2,11817,"[{""event"":""fullscreenenter"",""trial"":1,""time"":1329},{""event"":""fullscreenexit"",""trial"":1,""time"":1701},{""event"":""blur"",""trial"":6,""time"":18113},{""event"":""focus"",""trial"":6,""time"":22679},{""event"":""blur"",""trial"":15,""time"":73320},{""event"":""focus"",""trial"":15,""time"":84272},{""event"":""blur"",""trial"":28,""time"":213326},{""event"":""focus"",""trial"":28,""time"":214597}]",NA,NA,NA,NA,NA,5,#3386FF,#D89F1C,0,10,1,38,1,907.1000000014901,37,1,460.5,0,1,experiment,NA,NA,2,0.5,0.5,4,5,127,3,NA
fcp-trial,162,667465,0.0-137.0-0.0,voc_e2,11817,"[{""event"":""fullscreenenter"",""trial"":1,""time"":1329},{""event"":""fullscreenexit"",""trial"":1,""time"":1701},{""event"":""blur"",""trial"":6,""time"":18113},{""event"":""focus"",""trial"":6,""time"":22679},{""event"":""blur"",""trial"":15,""time"":73320},{""event"":""focus"",""trial"":15,""time"":84272},{""event"":""blur"",""trial"":28,""time"":213326},{""event"":""focus"",""trial"":28,""time"":214597}]",NA,NA,NA,NA,NA,2,#D89F1C,#3386FF,0,0,0,38,1,1427.7999999970198,39,0,349.8999999985099,0,1,experiment,NA,NA,2,0.5,0.5,5,4,128,3,NA
fcp-trial,163,670778,0.0-138.0-0.0,voc_e2,11817,"[{""event"":""fullscreenenter"",""trial"":1,""time"":1329},{""event"":""fullscreenexit"",""trial"":1,""time"":1701},{""event"":""blur"",""trial"":6,""time"":18113},{""event"":""focus"",""trial"":6,""time"":22679},{""event"":""blur"",""trial"":15,""time"":73320},{""event"":""focus"",""trial"":15,""time"":84272},{""event"":""blur"",""trial"":28,""time"":213326},{""event"":""focus"",""trial"":28,""time"":214597}]",NA,NA,NA,NA,NA,0,#1CD855,#FA92F8,10,0,0,38,1,1485.8000000044703,39,0,317.1000000014901,0,1,experiment,NA,NA,1,0.3,0.7,3,2,129,3,NA
fcp-trial,164,673762,0.0-139.0-0.0,voc_e2,11817,"[{""event"":""fullscreenenter"",""trial"":1,""time"":1329},{""event"":""fullscreenexit"",""trial"":1,""time"":1701},{""event"":""blur"",""trial"":6,""time"":18113},{""event"":""focus"",""trial"":6,""time"":22679},{""event"":""blur"",""trial"":15,""time"":73320},{""event"":""focus"",""trial"":15,""time"":84272},{""event"":""blur"",""trial"":28,""time"":213326},{""event"":""focus"",""trial"":28,""time"":214597}]",NA,NA,NA,NA,NA,6,#1CD855,#FA92F8,10,10,0,40,0,984.2999999970198,39,0,488.29999999701977,10,1,experiment,NA,NA,1,0.3,0.7,3,2,130,3,NA
fcp-trial,165,676593,0.0-140.0-0.0,voc_e2,11817,"[{""event"":""fullscreenenter"",""trial"":1,""time"":1329},{""event"":""fullscreenexit"",""trial"":1,""time"":1701},{""event"":""blur"",""trial"":6,""time"":18113},{""event"":""focus"",""trial"":6,""time"":22679},{""event"":""blur"",""trial"":15,""time"":73320},{""event"":""focus"",""trial"":15,""time"":84272},{""event"":""blur"",""trial"":28,""time"":213326},{""event"":""focus"",""trial"":28,""time"":214597}]",NA,NA,NA,NA,NA,4,#741CD8,#D8271C,10,0,1,38,1,966,37,1,357.6000000014901,10,1,experiment,NA,NA,0,0.9,0.1,0,1,131,3,NA
fcp-trial,166,679618,0.0-141.0-0.0,voc_e2,11817,"[{""event"":""fullscreenenter"",""trial"":1,""time"":1329},{""event"":""fullscreenexit"",""trial"":1,""time"":1701},{""event"":""blur"",""trial"":6,""time"":18113},{""event"":""focus"",""trial"":6,""time"":22679},{""event"":""blur"",""trial"":15,""time"":73320},{""event"":""focus"",""trial"":15,""time"":84272},{""event"":""blur"",""trial"":28,""time"":213326},{""event"":""focus"",""trial"":28,""time"":214597}]",NA,NA,NA,NA,NA,3,#3386FF,#D89F1C,10,10,1,38,1,1211.5,37,1,301.1000000014901,10,1,experiment,NA,NA,2,0.5,0.5,4,5,132,3,NA
fcp-trial,167,682594,0.0-142.0-0.0,voc_e2,11817,"[{""event"":""fullscreenenter"",""trial"":1,""time"":1329},{""event"":""fullscreenexit"",""trial"":1,""time"":1701},{""event"":""blur"",""trial"":6,""time"":18113},{""event"":""focus"",""trial"":6,""time"":22679},{""event"":""blur"",""trial"":15,""time"":73320},{""event"":""focus"",""trial"":15,""time"":84272},{""event"":""blur"",""trial"":28,""time"":213326},{""event"":""focus"",""trial"":28,""time"":214597}]",NA,NA,NA,NA,NA,5,#741CD8,#D8271C,10,0,1,40,0,966.7000000029802,37,1,493.69999999552965,10,1,experiment,NA,NA,0,0.9,0.1,0,1,133,3,NA
fcp-trial,168,685601,0.0-143.0-0.0,voc_e2,11817,"[{""event"":""fullscreenenter"",""trial"":1,""time"":1329},{""event"":""fullscreenexit"",""trial"":1,""time"":1701},{""event"":""blur"",""trial"":6,""time"":18113},{""event"":""focus"",""trial"":6,""time"":22679},{""event"":""blur"",""trial"":15,""time"":73320},{""event"":""focus"",""trial"":15,""time"":84272},{""event"":""blur"",""trial"":28,""time"":213326},{""event"":""focus"",""trial"":28,""time"":214597}]",NA,NA,NA,NA,NA,1,#D89F1C,#3386FF,10,10,0,38,1,1155.3999999985099,39,0,341.69999999552965,10,1,experiment,NA,NA,2,0.5,0.5,5,4,134,3,NA
fcp-trial,169,689137,0.0-144.0-0.0,voc_e2,11817,"[{""event"":""fullscreenenter"",""trial"":1,""time"":1329},{""event"":""fullscreenexit"",""trial"":1,""time"":1701},{""event"":""blur"",""trial"":6,""time"":18113},{""event"":""focus"",""trial"":6,""time"":22679},{""event"":""blur"",""trial"":15,""time"":73320},{""event"":""focus"",""trial"":15,""time"":84272},{""event"":""blur"",""trial"":28,""time"":213326},{""event"":""focus"",""trial"":28,""time"":214597}]",NA,NA,NA,NA,NA,5,#1CD855,#FA92F8,0,10,0,40,0,1527.8999999985099,39,0,494.30000000447035,10,1,experiment,NA,NA,1,0.3,0.7,3,2,135,3,NA
fcp-trial,170,691882,0.0-145.0-0.0,voc_e2,11817,"[{""event"":""fullscreenenter"",""trial"":1,""time"":1329},{""event"":""fullscreenexit"",""trial"":1,""time"":1701},{""event"":""blur"",""trial"":6,""time"":18113},{""event"":""focus"",""trial"":6,""time"":22679},{""event"":""blur"",""trial"":15,""time"":73320},{""event"":""focus"",""trial"":15,""time"":84272},{""event"":""blur"",""trial"":28,""time"":213326},{""event"":""focus"",""trial"":28,""time"":214597}]",NA,NA,NA,NA,NA,1,#1CD855,#FA92F8,0,10,0,38,1,895.7999999970198,39,0,333,10,1,experiment,NA,NA,1,0.3,0.7,3,2,136,4,NA
fcp-trial,171,694985,0.0-146.0-0.0,voc_e2,11817,"[{""event"":""fullscreenenter"",""trial"":1,""time"":1329},{""event"":""fullscreenexit"",""trial"":1,""time"":1701},{""event"":""blur"",""trial"":6,""time"":18113},{""event"":""focus"",""trial"":6,""time"":22679},{""event"":""blur"",""trial"":15,""time"":73320},{""event"":""focus"",""trial"":15,""time"":84272},{""event"":""blur"",""trial"":28,""time"":213326},{""event"":""focus"",""trial"":28,""time"":214597}]",NA,NA,NA,NA,NA,3,#741CD8,#D8271C,10,0,1,38,1,1225.1000000014901,37,1,366.80000000447035,10,1,experiment,NA,NA,0,0.9,0.1,0,1,137,4,NA
fcp-trial,172,698330,0.0-147.0-0.0,voc_e2,11817,"[{""event"":""fullscreenenter"",""trial"":1,""time"":1329},{""event"":""fullscreenexit"",""trial"":1,""time"":1701},{""event"":""blur"",""trial"":6,""time"":18113},{""event"":""focus"",""trial"":6,""time"":22679},{""event"":""blur"",""trial"":15,""time"":73320},{""event"":""focus"",""trial"":15,""time"":84272},{""event"":""blur"",""trial"":28,""time"":213326},{""event"":""focus"",""trial"":28,""time"":214597}]",NA,NA,NA,NA,NA,2,#D8271C,#741CD8,0,10,0,38,1,1120.1999999955297,39,0,709.1000000014901,10,1,experiment,NA,NA,0,0.1,0.9,1,0,138,4,NA
fcp-trial,173,701371,0.0-148.0-0.0,voc_e2,11817,"[{""event"":""fullscreenenter"",""trial"":1,""time"":1329},{""event"":""fullscreenexit"",""trial"":1,""time"":1701},{""event"":""blur"",""trial"":6,""time"":18113},{""event"":""focus"",""trial"":6,""time"":22679},{""event"":""blur"",""trial"":15,""time"":73320},{""event"":""focus"",""trial"":15,""time"":84272},{""event"":""blur"",""trial"":28,""time"":213326},{""event"":""focus"",""trial"":28,""time"":214597}]",NA,NA,NA,NA,NA,0,#D89F1C,#3386FF,10,0,0,38,1,921.5,39,0,607.1000000014901,0,1,experiment,NA,NA,2,0.5,0.5,5,4,139,4,NA
fcp-trial,174,704309,0.0-149.0-0.0,voc_e2,11817,"[{""event"":""fullscreenenter"",""trial"":1,""time"":1329},{""event"":""fullscreenexit"",""trial"":1,""time"":1701},{""event"":""blur"",""trial"":6,""time"":18113},{""event"":""focus"",""trial"":6,""time"":22679},{""event"":""blur"",""trial"":15,""time"":73320},{""event"":""focus"",""trial"":15,""time"":84272},{""event"":""blur"",""trial"":28,""time"":213326},{""event"":""focus"",""trial"":28,""time"":214597}]",NA,NA,NA,NA,NA,4,#3386FF,#D89F1C,10,10,1,38,1,854.6000000014901,37,1,570.6999999955297,10,1,experiment,NA,NA,2,0.5,0.5,4,5,140,4,NA
fcp-trial,175,707265,0.0-150.0-0.0,voc_e2,11817,"[{""event"":""fullscreenenter"",""trial"":1,""time"":1329},{""event"":""fullscreenexit"",""trial"":1,""time"":1701},{""event"":""blur"",""trial"":6,""time"":18113},{""event"":""focus"",""trial"":6,""time"":22679},{""event"":""blur"",""trial"":15,""time"":73320},{""event"":""focus"",""trial"":15,""time"":84272},{""event"":""blur"",""trial"":28,""time"":213326},{""event"":""focus"",""trial"":28,""time"":214597}]",NA,NA,NA,NA,NA,2,#1CD855,#FA92F8,10,10,0,38,1,934.8999999985099,39,0,510.30000000447035,10,1,experiment,NA,NA,1,0.3,0.7,3,2,141,4,NA
fcp-trial,176,710276,0.0-151.0-0.0,voc_e2,11817,"[{""event"":""fullscreenenter"",""trial"":1,""time"":1329},{""event"":""fullscreenexit"",""trial"":1,""time"":1701},{""event"":""blur"",""trial"":6,""time"":18113},{""event"":""focus"",""trial"":6,""time"":22679},{""event"":""blur"",""trial"":15,""time"":73320},{""event"":""focus"",""trial"":15,""time"":84272},{""event"":""blur"",""trial"":28,""time"":213326},{""event"":""focus"",""trial"":28,""time"":214597}]",NA,NA,NA,NA,NA,1,#741CD8,#D8271C,10,0,1,38,1,978.2999999970198,37,1,520.8000000044703,10,1,experiment,NA,NA,0,0.9,0.1,0,1,142,4,NA
