trial_type,trial_index,time_elapsed,internal_node_id,task_version,subject_id,interactions,success,rt,stimulus,key_press,button_pressed,offer,arcade_color_L,arcade_color_R,arcade_outcome_L,arcade_outcome_R,correct,stage_1_key,stage_1_choice,stage_1_rt,stage_2_key,stage_2_choice,stage_2_rt,stage_3_outcome,accuracy,phase,responses,num_errors,context,reward_prob_L,reward_prob_R,arcade_id_L,arcade_id_R,trial,block,response
pavlovia,0,18,0.0-0.0,voc_e2,11992,[],NA,NA,NA,NA,NA,NA,NA,NA,NA,NA,NA,NA,NA,NA,NA,NA,NA,NA,NA,NA,NA,NA,NA,NA,NA,NA,NA,NA,NA,NA
fullscreen,1,6009,0.0-1.0,voc_e2,11992,"[{""event"":""fullscreenenter"",""trial"":1,""time"":5065}]",TRUE,NA,NA,NA,NA,NA,NA,NA,NA,NA,NA,NA,NA,NA,NA,NA,NA,NA,NA,NA,NA,NA,NA,NA,NA,NA,NA,NA,NA,NA
audio-keyboard-response,2,10671,0.0-2.0,voc_e2,11992,"[{""event"":""fullscreenenter"",""trial"":1,""time"":5065}]",NA,0,static/audio/beep_loop.wav,32,NA,NA,NA,NA,NA,NA,NA,NA,NA,NA,NA,NA,NA,NA,NA,NA,NA,NA,NA,NA,NA,NA,NA,NA,NA,NA
audio-test,3,12618,0.0-3.0,voc_e2,11992,"[{""event"":""fullscreenenter"",""trial"":1,""time"":5065}]",NA,NA,static/audio/turtle.wav,NA,3,NA,NA,NA,NA,NA,NA,NA,NA,NA,NA,NA,NA,NA,NA,NA,NA,NA,NA,NA,NA,NA,NA,NA,NA,NA
audio-test,4,14856,0.0-4.0,voc_e2,11992,"[{""event"":""fullscreenenter"",""trial"":1,""time"":5065}]",NA,NA,static/audio/shark.wav,NA,2,NA,NA,NA,NA,NA,NA,NA,NA,NA,NA,NA,NA,NA,NA,NA,NA,NA,NA,NA,NA,NA,NA,NA,NA,NA
audio-instructions,5,22109,0.0-5.0-0.0,voc_e2,11992,"[{""event"":""fullscreenenter"",""trial"":1,""time"":5065}]",NA,1470.0000000000036,static/audio/instructions1.wav,NA,0,NA,NA,NA,NA,NA,NA,NA,NA,NA,NA,NA,NA,NA,NA,NA,NA,NA,NA,NA,NA,NA,NA,NA,NA,NA
audio-instructions,6,33610,0.0-5.0-1.0,voc_e2,11992,"[{""event"":""fullscreenenter"",""trial"":1,""time"":5065}]",NA,4756,static/audio/instructions2.wav,NA,0,NA,NA,NA,NA,NA,NA,NA,NA,NA,NA,NA,NA,NA,NA,NA,NA,NA,NA,NA,NA,NA,NA,NA,NA,NA
audio-instructions,7,58726,0.0-5.0-2.0,voc_e2,11992,"[{""event"":""fullscreenenter"",""trial"":1,""time"":5065}]",NA,19310,static/audio/instructions3.wav,NA,0,NA,NA,NA,NA,NA,NA,NA,NA,NA,NA,NA,NA,NA,NA,NA,NA,NA,NA,NA,NA,NA,NA,NA,NA,NA
audio-instructions,8,79517,0.0-5.0-3.0,voc_e2,11992,"[{""event"":""fullscreenenter"",""trial"":1,""time"":5065}]",NA,7562,static/audio/instructions4.wav,NA,0,NA,NA,NA,NA,NA,NA,NA,NA,NA,NA,NA,NA,NA,NA,NA,NA,NA,NA,NA,NA,NA,NA,NA,NA,NA
audio-instructions,9,116466,0.0-5.0-4.0,voc_e2,11992,"[{""event"":""fullscreenenter"",""trial"":1,""time"":5065}]",NA,27560,static/audio/instructions5.wav,NA,0,NA,NA,NA,NA,NA,NA,NA,NA,NA,NA,NA,NA,NA,NA,NA,NA,NA,NA,NA,NA,NA,NA,NA,NA,NA
fcp-practice,10,120275,0.0-5.0-5.0-0.0,voc_e2,11992,"[{""event"":""fullscreenenter"",""trial"":1,""time"":5065}]",NA,NA,NA,NA,NA,NA,#EDC948,#46d3c8,10,0,1,null,null,null,37,1,2296,10,1,practice,NA,NA,NA,NA,NA,NA,NA,NA,NA,NA
fcp-practice,11,122473,0.0-5.0-5.0-1.0,voc_e2,11992,"[{""event"":""fullscreenenter"",""trial"":1,""time"":5065}]",NA,NA,NA,NA,NA,NA,#EDC948,#46d3c8,10,0,1,null,null,null,37,1,692,10,1,practice,NA,NA,NA,NA,NA,NA,NA,NA,NA,NA
fcp-practice,12,124368,0.0-5.0-5.0-2.0,voc_e2,11992,"[{""event"":""fullscreenenter"",""trial"":1,""time"":5065}]",NA,NA,NA,NA,NA,NA,#EDC948,#46d3c8,0,10,1,null,null,null,37,1,388.9999999999709,0,1,practice,NA,NA,NA,NA,NA,NA,NA,NA,NA,NA
fcp-practice,13,126358,0.0-5.0-5.0-3.0,voc_e2,11992,"[{""event"":""fullscreenenter"",""trial"":1,""time"":5065}]",NA,NA,NA,NA,NA,NA,#EDC948,#46d3c8,10,0,1,null,null,null,37,1,482,10,1,practice,NA,NA,NA,NA,NA,NA,NA,NA,NA,NA
fcp-practice,14,129067,0.0-5.0-5.0-4.0,voc_e2,11992,"[{""event"":""fullscreenenter"",""trial"":1,""time"":5065}]",NA,NA,NA,NA,NA,NA,#EDC948,#46d3c8,10,0,1,null,null,null,37,1,1204,10,1,practice,NA,NA,NA,NA,NA,NA,NA,NA,NA,NA
audio-instructions,15,175643,0.0-5.0-6.0,voc_e2,11992,"[{""event"":""fullscreenenter"",""trial"":1,""time"":5065}]",NA,28566.00000000003,static/audio/instructions6.wav,NA,0,NA,NA,NA,NA,NA,NA,NA,NA,NA,NA,NA,NA,NA,NA,NA,NA,NA,NA,NA,NA,NA,NA,NA,NA,NA
audio-instructions,16,206192,0.0-5.0-7.0,voc_e2,11992,"[{""event"":""fullscreenenter"",""trial"":1,""time"":5065}]",NA,11347.00000000003,static/audio/instructions7.wav,NA,0,NA,NA,NA,NA,NA,NA,NA,NA,NA,NA,NA,NA,NA,NA,NA,NA,NA,NA,NA,NA,NA,NA,NA,NA,NA
audio-instructions,17,216618,0.0-5.0-8.0,voc_e2,11992,"[{""event"":""fullscreenenter"",""trial"":1,""time"":5065}]",NA,951,static/audio/instructions8.wav,NA,0,NA,NA,NA,NA,NA,NA,NA,NA,NA,NA,NA,NA,NA,NA,NA,NA,NA,NA,NA,NA,NA,NA,NA,NA,NA
fcp-comprehension,18,227670,0.0-5.0-9.0,voc_e2,11992,"[{""event"":""fullscreenenter"",""trial"":1,""time"":5065}]",NA,11048,NA,NA,NA,NA,NA,NA,NA,NA,NA,NA,NA,NA,NA,NA,NA,NA,NA,NA,"false,true",1,NA,NA,NA,NA,NA,NA,NA,NA
audio-instructions,19,232995,0.0-5.1-0.1,voc_e2,11992,"[{""event"":""fullscreenenter"",""trial"":1,""time"":5065}]",NA,540.0000000000291,static/audio/instructions1.wav,NA,0,NA,NA,NA,NA,NA,NA,NA,NA,NA,NA,NA,NA,NA,NA,NA,NA,NA,NA,NA,NA,NA,NA,NA,NA,NA
audio-instructions,20,241352,0.0-5.1-1.1,voc_e2,11992,"[{""event"":""fullscreenenter"",""trial"":1,""time"":5065}]",NA,1615,static/audio/instructions2.wav,NA,0,NA,NA,NA,NA,NA,NA,NA,NA,NA,NA,NA,NA,NA,NA,NA,NA,NA,NA,NA,NA,NA,NA,NA,NA,NA
audio-instructions,21,250192,0.0-5.1-2.1,voc_e2,11992,"[{""event"":""fullscreenenter"",""trial"":1,""time"":5065}]",NA,3033,static/audio/instructions3.wav,NA,0,NA,NA,NA,NA,NA,NA,NA,NA,NA,NA,NA,NA,NA,NA,NA,NA,NA,NA,NA,NA,NA,NA,NA,NA,NA
audio-instructions,22,267390,0.0-5.1-3.1,voc_e2,11992,"[{""event"":""fullscreenenter"",""trial"":1,""time"":5065}]",NA,3971,static/audio/instructions4.wav,NA,0,NA,NA,NA,NA,NA,NA,NA,NA,NA,NA,NA,NA,NA,NA,NA,NA,NA,NA,NA,NA,NA,NA,NA,NA,NA
audio-instructions,23,277684,0.0-5.1-4.1,voc_e2,11992,"[{""event"":""fullscreenenter"",""trial"":1,""time"":5065}]",NA,907.0000000000582,static/audio/instructions5.wav,NA,0,NA,NA,NA,NA,NA,NA,NA,NA,NA,NA,NA,NA,NA,NA,NA,NA,NA,NA,NA,NA,NA,NA,NA,NA,NA
fcp-practice,24,280314,0.0-5.1-5.1-0.1,voc_e2,11992,"[{""event"":""fullscreenenter"",""trial"":1,""time"":5065}]",NA,NA,NA,NA,NA,NA,#EDC948,#46d3c8,10,0,1,null,null,null,37,1,1125,10,1,practice,NA,NA,NA,NA,NA,NA,NA,NA,NA,NA
fcp-practice,25,282129,0.0-5.1-5.1-1.1,voc_e2,11992,"[{""event"":""fullscreenenter"",""trial"":1,""time"":5065}]",NA,NA,NA,NA,NA,NA,#EDC948,#46d3c8,10,0,1,null,null,null,37,1,305,10,1,practice,NA,NA,NA,NA,NA,NA,NA,NA,NA,NA
fcp-practice,26,283888,0.0-5.1-5.1-2.1,voc_e2,11992,"[{""event"":""fullscreenenter"",""trial"":1,""time"":5065}]",NA,NA,NA,NA,NA,NA,#EDC948,#46d3c8,0,10,1,null,null,null,37,1,254,0,1,practice,NA,NA,NA,NA,NA,NA,NA,NA,NA,NA
fcp-practice,27,285671,0.0-5.1-5.1-3.1,voc_e2,11992,"[{""event"":""fullscreenenter"",""trial"":1,""time"":5065}]",NA,NA,NA,NA,NA,NA,#EDC948,#46d3c8,10,0,1,null,null,null,37,1,274,10,1,practice,NA,NA,NA,NA,NA,NA,NA,NA,NA,NA
fcp-practice,28,287312,0.0-5.1-5.1-4.1,voc_e2,11992,"[{""event"":""fullscreenenter"",""trial"":1,""time"":5065}]",NA,NA,NA,NA,NA,NA,#EDC948,#46d3c8,10,0,1,null,null,null,37,1,133,10,1,practice,NA,NA,NA,NA,NA,NA,NA,NA,NA,NA
audio-instructions,29,312729,0.0-5.1-6.1,voc_e2,11992,"[{""event"":""fullscreenenter"",""trial"":1,""time"":5065}]",NA,7404,static/audio/instructions6.wav,NA,0,NA,NA,NA,NA,NA,NA,NA,NA,NA,NA,NA,NA,NA,NA,NA,NA,NA,NA,NA,NA,NA,NA,NA,NA,NA
audio-instructions,30,349912,0.0-5.1-7.1,voc_e2,11992,"[{""event"":""fullscreenenter"",""trial"":1,""time"":5065}]",NA,17983.00000000006,static/audio/instructions7.wav,NA,0,NA,NA,NA,NA,NA,NA,NA,NA,NA,NA,NA,NA,NA,NA,NA,NA,NA,NA,NA,NA,NA,NA,NA,NA,NA
audio-instructions,31,360508,0.0-5.1-8.1,voc_e2,11992,"[{""event"":""fullscreenenter"",""trial"":1,""time"":5065}]",NA,1120,static/audio/instructions8.wav,NA,0,NA,NA,NA,NA,NA,NA,NA,NA,NA,NA,NA,NA,NA,NA,NA,NA,NA,NA,NA,NA,NA,NA,NA,NA,NA
fcp-comprehension,32,373296,0.0-5.1-9.1,voc_e2,11992,"[{""event"":""fullscreenenter"",""trial"":1,""time"":5065}]",NA,12786.999999999942,NA,NA,NA,NA,NA,NA,NA,NA,NA,NA,NA,NA,NA,NA,NA,NA,NA,NA,"true,true",0,NA,NA,NA,NA,NA,NA,NA,NA
audio-instructions,33,381062,0.0-6.0-0.0,voc_e2,11992,"[{""event"":""fullscreenenter"",""trial"":1,""time"":5065}]",NA,2215,static/audio/instructions9.wav,NA,0,NA,NA,NA,NA,NA,NA,NA,NA,NA,NA,NA,NA,NA,NA,NA,NA,NA,NA,NA,NA,NA,NA,NA,NA,NA
audio-instructions,34,395653,0.0-6.0-1.0,voc_e2,11992,"[{""event"":""fullscreenenter"",""trial"":1,""time"":5065}]",NA,2474,static/audio/instructions10.wav,NA,0,NA,NA,NA,NA,NA,NA,NA,NA,NA,NA,NA,NA,NA,NA,NA,NA,NA,NA,NA,NA,NA,NA,NA,NA,NA
fcp-trial,35,405028,0.0-6.0-2.0,voc_e2,11992,"[{""event"":""fullscreenenter"",""trial"":1,""time"":5065}]",NA,NA,NA,NA,NA,0,#EDC948,#46d3c8,10,10,1,38,1,5012,39,0,2854.000000000058,10,0,practice,NA,NA,NA,NA,NA,NA,NA,NA,NA,NA
audio-instructions,36,424647,0.0-6.0-3.0,voc_e2,11992,"[{""event"":""fullscreenenter"",""trial"":1,""time"":5065}]",NA,8608,static/audio/instructions11.wav,NA,0,NA,NA,NA,NA,NA,NA,NA,NA,NA,NA,NA,NA,NA,NA,NA,NA,NA,NA,NA,NA,NA,NA,NA,NA,NA
fcp-trial,37,430931,0.0-6.0-4.0,voc_e2,11992,"[{""event"":""fullscreenenter"",""trial"":1,""time"":5065}]",NA,NA,NA,NA,NA,6,#EDC948,#46d3c8,10,10,1,40,0,2327.999999999942,37,1,2449,10,1,practice,NA,NA,NA,NA,NA,NA,NA,NA,NA,NA
audio-instructions,38,476788,0.0-6.0-5.0,voc_e2,11992,"[{""event"":""fullscreenenter"",""trial"":1,""time"":5065}]",NA,27165,static/audio/instructions12.wav,NA,0,NA,NA,NA,NA,NA,NA,NA,NA,NA,NA,NA,NA,NA,NA,NA,NA,NA,NA,NA,NA,NA,NA,NA,NA,NA
audio-instructions,39,522393,0.0-6.0-6.0,voc_e2,11992,"[{""event"":""fullscreenenter"",""trial"":1,""time"":5065}]",NA,38009,static/audio/instructions13.wav,NA,0,NA,NA,NA,NA,NA,NA,NA,NA,NA,NA,NA,NA,NA,NA,NA,NA,NA,NA,NA,NA,NA,NA,NA,NA,NA
audio-instructions,40,531520,0.0-6.0-7.0,voc_e2,11992,"[{""event"":""fullscreenenter"",""trial"":1,""time"":5065}]",NA,675,static/audio/instructions14.wav,NA,0,NA,NA,NA,NA,NA,NA,NA,NA,NA,NA,NA,NA,NA,NA,NA,NA,NA,NA,NA,NA,NA,NA,NA,NA,NA
audio-instructions,41,538923,0.0-7.0-0.0,voc_e2,11992,"[{""event"":""fullscreenenter"",""trial"":1,""time"":5065}]",NA,486.9999999998836,static/audio/instructions15.wav,NA,0,NA,NA,NA,NA,NA,NA,NA,NA,NA,NA,NA,NA,NA,NA,NA,NA,NA,NA,NA,NA,NA,NA,NA,NA,NA
audio-instructions,42,546058,0.0-7.0-1.0,voc_e2,11992,"[{""event"":""fullscreenenter"",""trial"":1,""time"":5065}]",NA,308,static/audio/instructions16.wav,NA,0,NA,NA,NA,NA,NA,NA,NA,NA,NA,NA,NA,NA,NA,NA,NA,NA,NA,NA,NA,NA,NA,NA,NA,NA,NA
audio-instructions,43,554381,0.0-7.0-2.0,voc_e2,11992,"[{""event"":""fullscreenenter"",""trial"":1,""time"":5065}]",NA,643,static/audio/instructions17.wav,NA,0,NA,NA,NA,NA,NA,NA,NA,NA,NA,NA,NA,NA,NA,NA,NA,NA,NA,NA,NA,NA,NA,NA,NA,NA,NA
audio-instructions,44,567132,0.0-7.0-3.0,voc_e2,11992,"[{""event"":""fullscreenenter"",""trial"":1,""time"":5065}]",NA,4986,static/audio/instructions18.wav,NA,0,NA,NA,NA,NA,NA,NA,NA,NA,NA,NA,NA,NA,NA,NA,NA,NA,NA,NA,NA,NA,NA,NA,NA,NA,NA
audio-instructions,45,574184,0.0-7.0-4.0,voc_e2,11992,"[{""event"":""fullscreenenter"",""trial"":1,""time"":5065}]",NA,308,static/audio/instructions19.wav,NA,0,NA,NA,NA,NA,NA,NA,NA,NA,NA,NA,NA,NA,NA,NA,NA,NA,NA,NA,NA,NA,NA,NA,NA,NA,NA
fcp-comprehension,46,585785,0.0-7.0-5.0,voc_e2,11992,"[{""event"":""fullscreenenter"",""trial"":1,""time"":5065}]",NA,11599,NA,NA,NA,NA,NA,NA,NA,NA,NA,NA,NA,NA,NA,NA,NA,NA,NA,NA,"false,false,false,true",0,NA,NA,NA,NA,NA,NA,NA,NA
audio-instructions,47,609680,0.0-8.0,voc_e2,11992,"[{""event"":""fullscreenenter"",""trial"":1,""time"":5065}]",NA,14672,static/audio/ready.wav,NA,0,NA,NA,NA,NA,NA,NA,NA,NA,NA,NA,NA,NA,NA,NA,NA,NA,NA,NA,NA,NA,NA,NA,NA,NA,NA
fcp-trial,48,614512,0.0-9.0-0.0,voc_e2,11992,"[{""event"":""fullscreenenter"",""trial"":1,""time"":5065}]",NA,NA,NA,NA,NA,0,#FA92F8,#1CD855,0,0,0,38,1,2453,37,1,870,0,0,experiment,NA,NA,1,0.3,0.7,3,2,1,1,NA
fcp-trial,49,618637,0.0-10.0-0.0,voc_e2,11992,"[{""event"":""fullscreenenter"",""trial"":1,""time"":5065}]",NA,NA,NA,NA,NA,5,#D89F1C,#3386FF,0,10,0,40,0,1785.0000000001164,39,0,832,10,1,experiment,NA,NA,0,0.1,0.9,1,0,2,1,NA
fcp-trial,50,623067,0.0-11.0-0.0,voc_e2,11992,"[{""event"":""fullscreenenter"",""trial"":1,""time"":5065}]",NA,NA,NA,NA,NA,2,#D89F1C,#3386FF,0,10,0,38,1,2037,39,0,885,10,1,experiment,NA,NA,0,0.1,0.9,1,0,3,1,NA
fcp-trial,51,626808,0.0-12.0-0.0,voc_e2,11992,"[{""event"":""fullscreenenter"",""trial"":1,""time"":5065}]",NA,NA,NA,NA,NA,5,#1CD855,#FA92F8,10,10,1,40,0,1667,39,0,564,10,0,experiment,NA,NA,1,0.7,0.3,2,3,4,1,NA
fcp-trial,52,630867,0.0-13.0-0.0,voc_e2,11992,"[{""event"":""fullscreenenter"",""trial"":1,""time"":5065}]",NA,NA,NA,NA,NA,3,#3386FF,#D89F1C,10,0,1,40,0,1720,37,1,830,10,1,experiment,NA,NA,0,0.9,0.1,0,1,5,1,NA
fcp-trial,53,634580,0.0-14.0-0.0,voc_e2,11992,"[{""event"":""fullscreenenter"",""trial"":1,""time"":5065}]",NA,NA,NA,NA,NA,4,#D89F1C,#3386FF,0,10,0,40,0,1067,39,0,1134.0000000001164,10,1,experiment,NA,NA,0,0.1,0.9,1,0,6,1,NA
fcp-trial,54,638240,0.0-15.0-0.0,voc_e2,11992,"[{""event"":""fullscreenenter"",""trial"":1,""time"":5065}]",NA,NA,NA,NA,NA,1,#741CD8,#D8271C,0,0,1,38,1,1554.9999999998836,39,0,596,0,0,experiment,NA,NA,2,0.5,0.5,4,5,7,1,NA
fcp-trial,55,641202,0.0-16.0-0.0,voc_e2,11992,"[{""event"":""fullscreenenter"",""trial"":1,""time"":5065}]",NA,NA,NA,NA,NA,6,#FA92F8,#1CD855,0,10,0,40,0,799,37,1,655,0,0,experiment,NA,NA,1,0.3,0.7,3,2,8,1,NA
fcp-trial,56,644791,0.0-17.0-0.0,voc_e2,11992,"[{""event"":""fullscreenenter"",""trial"":1,""time"":5065}]",NA,NA,NA,NA,NA,3,#741CD8,#D8271C,10,10,1,38,1,1395,39,0,683.9999999998836,10,0,experiment,NA,NA,2,0.5,0.5,4,5,9,1,NA
fcp-trial,57,648936,0.0-18.0-0.0,voc_e2,11992,"[{""event"":""fullscreenenter"",""trial"":1,""time"":5065}]",NA,NA,NA,NA,NA,0,#D8271C,#741CD8,0,10,0,38,1,2017,39,0,616.0000000001164,10,1,experiment,NA,NA,2,0.5,0.5,5,4,10,1,NA
fcp-trial,58,652615,0.0-19.0-0.0,voc_e2,11992,"[{""event"":""fullscreenenter"",""trial"":1,""time"":5065}]",NA,NA,NA,NA,NA,6,#3386FF,#D89F1C,10,0,1,40,0,1570,37,1,600,10,1,experiment,NA,NA,0,0.9,0.1,0,1,11,1,NA
fcp-trial,59,656920,0.0-20.0-0.0,voc_e2,11992,"[{""event"":""fullscreenenter"",""trial"":1,""time"":5065}]",NA,NA,NA,NA,NA,3,#FA92F8,#1CD855,0,10,0,40,0,2254,37,1,541,0,0,experiment,NA,NA,1,0.3,0.7,3,2,12,1,NA
fcp-trial,60,661520,0.0-21.0-0.0,voc_e2,11992,"[{""event"":""fullscreenenter"",""trial"":1,""time"":5065}]",NA,NA,NA,NA,NA,4,#741CD8,#D8271C,10,0,1,40,0,2610,37,1,477,10,1,experiment,NA,NA,2,0.5,0.5,4,5,13,1,NA
fcp-trial,61,664895,0.0-22.0-0.0,voc_e2,11992,"[{""event"":""fullscreenenter"",""trial"":1,""time"":5065}]",NA,NA,NA,NA,NA,4,#1CD855,#FA92F8,10,0,1,40,0,1266,39,0,601,0,0,experiment,NA,NA,1,0.7,0.3,2,3,14,1,NA
fcp-trial,62,668070,0.0-23.0-0.0,voc_e2,11992,"[{""event"":""fullscreenenter"",""trial"":1,""time"":5065}]",NA,NA,NA,NA,NA,0,#D89F1C,#3386FF,0,10,0,38,1,1183,39,0,482,10,1,experiment,NA,NA,0,0.1,0.9,1,0,15,1,NA
fcp-trial,63,671298,0.0-24.0-0.0,voc_e2,11992,"[{""event"":""fullscreenenter"",""trial"":1,""time"":5065}]",NA,NA,NA,NA,NA,1,#1CD855,#FA92F8,0,0,1,38,1,1170,39,0,550,0,0,experiment,NA,NA,1,0.7,0.3,2,3,16,1,NA
fcp-trial,64,676115,0.0-25.0-0.0,voc_e2,11992,"[{""event"":""fullscreenenter"",""trial"":1,""time"":5065}]",NA,NA,NA,NA,NA,2,#741CD8,#D8271C,10,10,1,38,1,2685,37,1,622,10,1,experiment,NA,NA,2,0.5,0.5,4,5,17,1,NA
fcp-trial,65,679787,0.0-26.0-0.0,voc_e2,11992,"[{""event"":""fullscreenenter"",""trial"":1,""time"":5065}]",NA,NA,NA,NA,NA,5,#741CD8,#D8271C,10,10,1,40,0,1644,39,0,518.0000000001164,10,0,experiment,NA,NA,2,0.5,0.5,4,5,18,1,NA
fcp-trial,66,684321,0.0-27.0-0.0,voc_e2,11992,"[{""event"":""fullscreenenter"",""trial"":1,""time"":5065}]",NA,NA,NA,NA,NA,1,#D89F1C,#3386FF,10,0,0,38,1,2526,39,0,488,0,1,experiment,NA,NA,0,0.1,0.9,1,0,19,1,NA
fcp-trial,67,687507,0.0-28.0-0.0,voc_e2,11992,"[{""event"":""fullscreenenter"",""trial"":1,""time"":5065}]",NA,NA,NA,NA,NA,6,#D8271C,#741CD8,0,10,0,40,0,1194,37,1,481,0,0,experiment,NA,NA,2,0.5,0.5,5,4,20,1,NA
fcp-trial,68,690750,0.0-29.0-0.0,voc_e2,11992,"[{""event"":""fullscreenenter"",""trial"":1,""time"":5065}]",NA,NA,NA,NA,NA,2,#1CD855,#FA92F8,10,0,1,38,1,1316,37,1,418,10,1,experiment,NA,NA,1,0.7,0.3,2,3,21,1,NA
fcp-trial,69,694509,0.0-30.0-0.0,voc_e2,11992,"[{""event"":""fullscreenenter"",""trial"":1,""time"":5065}]",NA,NA,NA,NA,NA,6,#1CD855,#FA92F8,10,10,1,40,0,1858.9999999998836,37,1,392,10,1,experiment,NA,NA,1,0.7,0.3,2,3,22,1,NA
fcp-trial,70,697538,0.0-31.0-0.0,voc_e2,11992,"[{""event"":""fullscreenenter"",""trial"":1,""time"":5065}]",NA,NA,NA,NA,NA,1,#D89F1C,#3386FF,0,10,0,38,1,1099,39,0,421,10,1,experiment,NA,NA,0,0.1,0.9,1,0,23,1,NA
fcp-trial,71,700595,0.0-32.0-0.0,voc_e2,11992,"[{""event"":""fullscreenenter"",""trial"":1,""time"":5065}]",NA,NA,NA,NA,NA,6,#D8271C,#741CD8,0,10,0,40,0,1109,39,0,435,10,1,experiment,NA,NA,2,0.5,0.5,5,4,24,1,NA
fcp-trial,72,704000,0.0-33.0-0.0,voc_e2,11992,"[{""event"":""fullscreenenter"",""trial"":1,""time"":5065}]",NA,NA,NA,NA,NA,4,#3386FF,#D89F1C,0,0,1,40,0,1380,37,1,512,0,1,experiment,NA,NA,0,0.9,0.1,0,1,25,1,NA
fcp-trial,73,707360,0.0-34.0-0.0,voc_e2,11992,"[{""event"":""fullscreenenter"",""trial"":1,""time"":5065}]",NA,NA,NA,NA,NA,3,#FA92F8,#1CD855,0,0,0,38,1,1151.9999999998836,39,0,699.0000000001164,0,1,experiment,NA,NA,1,0.3,0.7,3,2,26,1,NA
fcp-trial,74,710485,0.0-35.0-0.0,voc_e2,11992,"[{""event"":""fullscreenenter"",""trial"":1,""time"":5065}]",NA,NA,NA,NA,NA,5,#741CD8,#D8271C,10,0,1,40,0,973,37,1,639,10,1,experiment,NA,NA,2,0.5,0.5,4,5,27,1,NA
fcp-trial,75,714095,0.0-36.0-0.0,voc_e2,11992,"[{""event"":""fullscreenenter"",""trial"":1,""time"":5065}]",NA,NA,NA,NA,NA,3,#741CD8,#D8271C,0,0,1,38,1,1416,37,1,684,0,1,experiment,NA,NA,2,0.5,0.5,4,5,28,1,NA
fcp-trial,76,717116,0.0-37.0-0.0,voc_e2,11992,"[{""event"":""fullscreenenter"",""trial"":1,""time"":5065}]",NA,NA,NA,NA,NA,6,#D89F1C,#3386FF,0,10,0,40,0,965,39,0,546,10,1,experiment,NA,NA,0,0.1,0.9,1,0,29,1,NA
fcp-trial,77,720215,0.0-38.0-0.0,voc_e2,11992,"[{""event"":""fullscreenenter"",""trial"":1,""time"":5065}]",NA,NA,NA,NA,NA,2,#D8271C,#741CD8,0,0,0,38,1,1171,39,0,418,0,1,experiment,NA,NA,2,0.5,0.5,5,4,30,1,NA
fcp-trial,78,724560,0.0-39.0-0.0,voc_e2,11992,"[{""event"":""fullscreenenter"",""trial"":1,""time"":5065}]",NA,NA,NA,NA,NA,4,#1CD855,#FA92F8,10,0,1,40,0,2281,37,1,554,10,1,experiment,NA,NA,1,0.7,0.3,2,3,31,1,NA
fcp-trial,79,727916,0.0-40.0-0.0,voc_e2,11992,"[{""event"":""fullscreenenter"",""trial"":1,""time"":5065}]",NA,NA,NA,NA,NA,2,#D89F1C,#3386FF,10,10,0,38,1,1079,37,1,767,10,0,experiment,NA,NA,0,0.1,0.9,1,0,32,1,NA
fcp-trial,80,731850,0.0-41.0-0.0,voc_e2,11992,"[{""event"":""fullscreenenter"",""trial"":1,""time"":5065}]",NA,NA,NA,NA,NA,0,#741CD8,#D8271C,0,10,1,38,1,1715,39,0,707,10,0,experiment,NA,NA,2,0.5,0.5,4,5,33,1,NA
fcp-trial,81,736321,0.0-42.0-0.0,voc_e2,11992,"[{""event"":""fullscreenenter"",""trial"":1,""time"":5065}]",NA,NA,NA,NA,NA,4,#D8271C,#741CD8,0,10,0,40,0,2511.9999999998836,39,0,446,10,1,experiment,NA,NA,2,0.5,0.5,5,4,34,1,NA
fcp-trial,82,740690,0.0-43.0-0.0,voc_e2,11992,"[{""event"":""fullscreenenter"",""trial"":1,""time"":5065}]",NA,NA,NA,NA,NA,0,#FA92F8,#1CD855,0,10,0,40,0,2119,37,1,741,0,0,experiment,NA,NA,1,0.3,0.7,3,2,35,1,NA
fcp-trial,83,744329,0.0-44.0-0.0,voc_e2,11992,"[{""event"":""fullscreenenter"",""trial"":1,""time"":5065}]",NA,NA,NA,NA,NA,0,#D89F1C,#3386FF,0,10,0,38,1,1677,37,1,452,0,0,experiment,NA,NA,0,0.1,0.9,1,0,36,1,NA
fcp-trial,84,747255,0.0-45.0-0.0,voc_e2,11992,"[{""event"":""fullscreenenter"",""trial"":1,""time"":5065}]",NA,NA,NA,NA,NA,5,#1CD855,#FA92F8,10,0,1,40,0,962,39,0,454,0,0,experiment,NA,NA,1,0.7,0.3,2,3,37,1,NA
fcp-trial,85,750410,0.0-46.0-0.0,voc_e2,11992,"[{""event"":""fullscreenenter"",""trial"":1,""time"":5065}]",NA,NA,NA,NA,NA,3,#3386FF,#D89F1C,10,0,1,40,0,1176,37,1,467.9999999998836,10,1,experiment,NA,NA,0,0.9,0.1,0,1,38,1,NA
fcp-trial,86,753435,0.0-47.0-0.0,voc_e2,11992,"[{""event"":""fullscreenenter"",""trial"":1,""time"":5065}]",NA,NA,NA,NA,NA,1,#741CD8,#D8271C,10,0,1,38,1,1065.9999999998836,39,0,450,0,0,experiment,NA,NA,2,0.5,0.5,4,5,39,1,NA
fcp-trial,87,757130,0.0-48.0-0.0,voc_e2,11992,"[{""event"":""fullscreenenter"",""trial"":1,""time"":5065}]",NA,NA,NA,NA,NA,1,#FA92F8,#1CD855,10,10,0,38,1,1684.9999999998836,39,0,502.0000000001164,10,1,experiment,NA,NA,1,0.3,0.7,3,2,40,1,NA
fcp-trial,88,761724,0.0-49.0-0.0,voc_e2,11992,"[{""event"":""fullscreenenter"",""trial"":1,""time"":5065}]",NA,NA,NA,NA,NA,2,#FA92F8,#1CD855,10,10,0,38,1,2633.9999999998836,37,1,449,10,0,experiment,NA,NA,1,0.3,0.7,3,2,41,1,NA
fcp-trial,89,764514,0.0-50.0-0.0,voc_e2,11992,"[{""event"":""fullscreenenter"",""trial"":1,""time"":5065}]",NA,NA,NA,NA,NA,5,#D89F1C,#3386FF,0,10,0,40,0,817,39,0,462,10,1,experiment,NA,NA,0,0.1,0.9,1,0,42,1,NA
fcp-trial,90,767455,0.0-51.0-0.0,voc_e2,11992,"[{""event"":""fullscreenenter"",""trial"":1,""time"":5065}]",NA,NA,NA,NA,NA,4,#D89F1C,#3386FF,0,10,0,40,0,949,39,0,482,10,1,experiment,NA,NA,0,0.1,0.9,1,0,43,1,NA
fcp-trial,91,770635,0.0-52.0-0.0,voc_e2,11992,"[{""event"":""fullscreenenter"",""trial"":1,""time"":5065}]",NA,NA,NA,NA,NA,1,#741CD8,#D8271C,0,0,1,38,1,1085,39,0,585.0000000001164,0,0,experiment,NA,NA,2,0.5,0.5,4,5,44,1,NA
fcp-trial,92,773588,0.0-53.0-0.0,voc_e2,11992,"[{""event"":""fullscreenenter"",""trial"":1,""time"":5065}]",NA,NA,NA,NA,NA,2,#D89F1C,#3386FF,0,10,0,38,1,1001,39,0,442,10,1,experiment,NA,NA,0,0.1,0.9,1,0,45,1,NA
fcp-trial,93,776580,0.0-54.0-0.0,voc_e2,11992,"[{""event"":""fullscreenenter"",""trial"":1,""time"":5065}]",NA,NA,NA,NA,NA,4,#1CD855,#FA92F8,0,0,1,40,0,1032,39,0,451,0,0,experiment,NA,NA,1,0.7,0.3,2,3,46,2,NA
fcp-trial,94,780179,0.0-55.0-0.0,voc_e2,11992,"[{""event"":""fullscreenenter"",""trial"":1,""time"":5065}]",NA,NA,NA,NA,NA,0,#741CD8,#D8271C,0,0,1,38,1,1485,37,1,605,0,1,experiment,NA,NA,2,0.5,0.5,4,5,47,2,NA
fcp-trial,95,783467,0.0-56.0-0.0,voc_e2,11992,"[{""event"":""fullscreenenter"",""trial"":1,""time"":5065}]",NA,NA,NA,NA,NA,5,#3386FF,#D89F1C,10,0,1,40,0,1409,39,0,367,0,0,experiment,NA,NA,0,0.9,0.1,0,1,48,2,NA
fcp-trial,96,786424,0.0-57.0-0.0,voc_e2,11992,"[{""event"":""fullscreenenter"",""trial"":1,""time"":5065}]",NA,NA,NA,NA,NA,0,#1CD855,#FA92F8,0,0,1,38,1,919,37,1,529,0,1,experiment,NA,NA,1,0.7,0.3,2,3,49,2,NA
fcp-trial,97,789364,0.0-58.0-0.0,voc_e2,11992,"[{""event"":""fullscreenenter"",""trial"":1,""time"":5065}]",NA,NA,NA,NA,NA,6,#1CD855,#FA92F8,10,0,1,40,0,947,37,1,483.9999999998836,10,1,experiment,NA,NA,1,0.7,0.3,2,3,50,2,NA
fcp-trial,98,792473,0.0-59.0-0.0,voc_e2,11992,"[{""event"":""fullscreenenter"",""trial"":1,""time"":5065}]",NA,NA,NA,NA,NA,0,#3386FF,#D89F1C,0,0,1,38,1,1172.0000000001164,39,0,427,0,0,experiment,NA,NA,0,0.9,0.1,0,1,51,2,NA
fcp-trial,99,795229,0.0-60.0-0.0,voc_e2,11992,"[{""event"":""fullscreenenter"",""trial"":1,""time"":5065}]",NA,NA,NA,NA,NA,5,#741CD8,#D8271C,10,0,1,40,0,736,37,1,509,10,1,experiment,NA,NA,2,0.5,0.5,4,5,52,2,NA
fcp-trial,100,798258,0.0-61.0-0.0,voc_e2,11992,"[{""event"":""fullscreenenter"",""trial"":1,""time"":5065}]",NA,NA,NA,NA,NA,6,#3386FF,#D89F1C,0,0,1,40,0,1032,39,0,487,0,0,experiment,NA,NA,0,0.9,0.1,0,1,53,2,NA
fcp-trial,101,801815,0.0-62.0-0.0,voc_e2,11992,"[{""event"":""fullscreenenter"",""trial"":1,""time"":5065}]",NA,NA,NA,NA,NA,2,#D8271C,#741CD8,10,0,0,38,1,1464,39,0,584,0,1,experiment,NA,NA,2,0.5,0.5,5,4,54,2,NA
fcp-trial,102,804694,0.0-63.0-0.0,voc_e2,11992,"[{""event"":""fullscreenenter"",""trial"":1,""time"":5065}]",NA,NA,NA,NA,NA,2,#1CD855,#FA92F8,10,0,1,38,1,1009,37,1,352,10,1,experiment,NA,NA,1,0.7,0.3,2,3,55,2,NA
fcp-trial,103,807627,0.0-64.0-0.0,voc_e2,11992,"[{""event"":""fullscreenenter"",""trial"":1,""time"":5065}]",NA,NA,NA,NA,NA,3,#D8271C,#741CD8,10,10,0,40,0,912.0000000001164,37,1,507,10,0,experiment,NA,NA,2,0.5,0.5,5,4,56,2,NA
fcp-trial,104,810798,0.0-65.0-0.0,voc_e2,11992,"[{""event"":""fullscreenenter"",""trial"":1,""time"":5065}]",NA,NA,NA,NA,NA,4,#741CD8,#D8271C,10,0,1,40,0,1277,39,0,379,0,0,experiment,NA,NA,2,0.5,0.5,4,5,57,2,NA
fcp-trial,105,814009,0.0-66.0-0.0,voc_e2,11992,"[{""event"":""fullscreenenter"",""trial"":1,""time"":5065}]",NA,NA,NA,NA,NA,1,#D89F1C,#3386FF,0,10,0,38,1,1119,37,1,580,0,0,experiment,NA,NA,0,0.1,0.9,1,0,58,2,NA
fcp-trial,106,817595,0.0-67.0-0.0,voc_e2,11992,"[{""event"":""fullscreenenter"",""trial"":1,""time"":5065}]",NA,NA,NA,NA,NA,6,#741CD8,#D8271C,0,10,1,40,0,1566.9999999998836,37,1,506,0,1,experiment,NA,NA,2,0.5,0.5,4,5,59,2,NA
fcp-trial,107,821223,0.0-68.0-0.0,voc_e2,11992,"[{""event"":""fullscreenenter"",""trial"":1,""time"":5065}]",NA,NA,NA,NA,NA,3,#FA92F8,#1CD855,10,10,0,38,1,1606,37,1,489,10,0,experiment,NA,NA,1,0.3,0.7,3,2,60,2,NA
fcp-trial,108,829650,0.0-69.0-0.0,voc_e2,11992,"[{""event"":""fullscreenenter"",""trial"":1,""time"":5065}]",NA,NA,NA,NA,NA,3,#3386FF,#D89F1C,10,0,1,40,0,6471,37,1,440,10,1,experiment,NA,NA,0,0.9,0.1,0,1,61,2,NA
fcp-trial,109,837138,0.0-70.0-0.0,voc_e2,11992,"[{""event"":""fullscreenenter"",""trial"":1,""time"":5065}]",NA,NA,NA,NA,NA,1,#1CD855,#FA92F8,0,0,1,38,1,5551.999999999884,39,0,423,0,0,experiment,NA,NA,1,0.7,0.3,2,3,62,2,NA
fcp-trial,110,841364,0.0-71.0-0.0,voc_e2,11992,"[{""event"":""fullscreenenter"",""trial"":1,""time"":5065}]",NA,NA,NA,NA,NA,5,#1CD855,#FA92F8,10,10,1,40,0,2348,39,0,367,10,0,experiment,NA,NA,1,0.7,0.3,2,3,63,2,NA
fcp-trial,111,845807,0.0-72.0-0.0,voc_e2,11992,"[{""event"":""fullscreenenter"",""trial"":1,""time"":5065}]",NA,NA,NA,NA,NA,2,#D89F1C,#3386FF,0,0,0,38,1,2530,37,1,401,0,0,experiment,NA,NA,0,0.1,0.9,1,0,64,2,NA
fcp-trial,112,848646,0.0-73.0-0.0,voc_e2,11992,"[{""event"":""fullscreenenter"",""trial"":1,""time"":5065}]",NA,NA,NA,NA,NA,5,#1CD855,#FA92F8,0,0,1,40,0,998,37,1,331,0,1,experiment,NA,NA,1,0.7,0.3,2,3,65,2,NA
fcp-trial,113,853191,0.0-74.0-0.0,voc_e2,11992,"[{""event"":""fullscreenenter"",""trial"":1,""time"":5065}]",NA,NA,NA,NA,NA,1,#D8271C,#741CD8,10,0,0,38,1,2083,37,1,950.9999999998836,10,0,experiment,NA,NA,2,0.5,0.5,5,4,66,2,NA
fcp-trial,114,859010,0.0-75.0-0.0,voc_e2,11992,"[{""event"":""fullscreenenter"",""trial"":1,""time"":5065}]",NA,NA,NA,NA,NA,0,#D8271C,#741CD8,10,10,0,38,1,3990,39,0,319.0000000001164,10,1,experiment,NA,NA,2,0.5,0.5,5,4,67,2,NA
fcp-trial,115,861998,0.0-76.0-0.0,voc_e2,11992,"[{""event"":""fullscreenenter"",""trial"":1,""time"":5065}]",NA,NA,NA,NA,NA,6,#D89F1C,#3386FF,0,10,0,40,0,1146,39,0,332,10,1,experiment,NA,NA,0,0.1,0.9,1,0,68,2,NA
fcp-trial,116,865392,0.0-77.0-0.0,voc_e2,11992,"[{""event"":""fullscreenenter"",""trial"":1,""time"":5065}]",NA,NA,NA,NA,NA,0,#1CD855,#FA92F8,0,0,1,38,1,1400,37,1,483,0,1,experiment,NA,NA,1,0.7,0.3,2,3,69,2,NA
fcp-trial,117,868753,0.0-78.0-0.0,voc_e2,11992,"[{""event"":""fullscreenenter"",""trial"":1,""time"":5065}]",NA,NA,NA,NA,NA,2,#D8271C,#741CD8,10,10,0,40,0,1399,37,1,453,10,0,experiment,NA,NA,2,0.5,0.5,5,4,70,2,NA
fcp-trial,118,871825,0.0-79.0-0.0,voc_e2,11992,"[{""event"":""fullscreenenter"",""trial"":1,""time"":5065}]",NA,NA,NA,NA,NA,4,#FA92F8,#1CD855,10,10,0,40,0,1099,39,0,461.9999999998836,10,1,experiment,NA,NA,1,0.3,0.7,3,2,71,2,NA
fcp-trial,119,879229,0.0-80.0-0.0,voc_e2,11992,"[{""event"":""fullscreenenter"",""trial"":1,""time"":5065}]",NA,NA,NA,NA,NA,0,#3386FF,#D89F1C,10,0,1,38,1,5163.999999999884,39,0,731,0,0,experiment,NA,NA,0,0.9,0.1,0,1,72,2,NA
fcp-trial,120,885029,0.0-81.0-0.0,voc_e2,11992,"[{""event"":""fullscreenenter"",""trial"":1,""time"":5065}]",NA,NA,NA,NA,NA,5,#D89F1C,#3386FF,0,0,0,40,0,3947,39,0,344,0,1,experiment,NA,NA,0,0.1,0.9,1,0,73,2,NA
fcp-trial,121,891211,0.0-82.0-0.0,voc_e2,11992,"[{""event"":""fullscreenenter"",""trial"":1,""time"":5065}]",NA,NA,NA,NA,NA,3,#D89F1C,#3386FF,0,10,0,40,0,4241,39,0,432,10,1,experiment,NA,NA,0,0.1,0.9,1,0,74,2,NA
fcp-trial,122,896963,0.0-83.0-0.0,voc_e2,11992,"[{""event"":""fullscreenenter"",""trial"":1,""time"":5065}]",NA,NA,NA,NA,NA,4,#741CD8,#D8271C,0,10,1,40,0,3757,39,0,486,10,0,experiment,NA,NA,2,0.5,0.5,4,5,75,2,NA
fcp-trial,123,903195,0.0-84.0-0.0,voc_e2,11992,"[{""event"":""fullscreenenter"",""trial"":1,""time"":5065}]",NA,NA,NA,NA,NA,6,#1CD855,#FA92F8,0,10,1,40,0,4209,39,0,512.0000000001164,10,0,experiment,NA,NA,1,0.7,0.3,2,3,76,2,NA
fcp-trial,124,907040,0.0-85.0-0.0,voc_e2,11992,"[{""event"":""fullscreenenter"",""trial"":1,""time"":5065}]",NA,NA,NA,NA,NA,1,#3386FF,#D89F1C,10,0,1,38,1,1751.0000000001164,39,0,584.9999999998836,0,0,experiment,NA,NA,0,0.9,0.1,0,1,77,2,NA
fcp-trial,125,912228,0.0-86.0-0.0,voc_e2,11992,"[{""event"":""fullscreenenter"",""trial"":1,""time"":5065}]",NA,NA,NA,NA,NA,2,#1CD855,#FA92F8,0,10,1,38,1,2636,37,1,1044.0000000001164,0,1,experiment,NA,NA,1,0.7,0.3,2,3,78,2,NA
fcp-trial,126,914742,0.0-87.0-0.0,voc_e2,11992,"[{""event"":""fullscreenenter"",""trial"":1,""time"":5065}]",NA,NA,NA,NA,NA,3,#741CD8,#D8271C,0,10,1,40,0,557,39,0,444,10,0,experiment,NA,NA,2,0.5,0.5,4,5,79,2,NA
fcp-trial,127,917436,0.0-88.0-0.0,voc_e2,11992,"[{""event"":""fullscreenenter"",""trial"":1,""time"":5065}]",NA,NA,NA,NA,NA,4,#3386FF,#D89F1C,10,0,1,40,0,764,39,0,421,0,0,experiment,NA,NA,0,0.9,0.1,0,1,80,2,NA
fcp-trial,128,920514,0.0-89.0-0.0,voc_e2,11992,"[{""event"":""fullscreenenter"",""trial"":1,""time"":5065}]",NA,NA,NA,NA,NA,1,#FA92F8,#1CD855,0,0,0,38,1,878,39,0,687.0000000001164,0,1,experiment,NA,NA,1,0.3,0.7,3,2,81,2,NA
fcp-trial,129,923180,0.0-90.0-0.0,voc_e2,11992,"[{""event"":""fullscreenenter"",""trial"":1,""time"":5065}]",NA,NA,NA,NA,NA,5,#741CD8,#D8271C,10,0,1,40,0,676,37,1,480,10,1,experiment,NA,NA,2,0.5,0.5,4,5,82,2,NA
fcp-trial,130,928294,0.0-91.0-0.0,voc_e2,11992,"[{""event"":""fullscreenenter"",""trial"":1,""time"":5065}]",NA,NA,NA,NA,NA,6,#741CD8,#D8271C,0,0,1,40,0,3092,37,1,514,0,1,experiment,NA,NA,2,0.5,0.5,4,5,83,2,NA
fcp-trial,131,931322,0.0-92.0-0.0,voc_e2,11992,"[{""event"":""fullscreenenter"",""trial"":1,""time"":5065}]",NA,NA,NA,NA,NA,3,#FA92F8,#1CD855,10,10,0,40,0,1167,37,1,350,10,0,experiment,NA,NA,1,0.3,0.7,3,2,84,2,NA
fcp-trial,132,934979,0.0-93.0-0.0,voc_e2,11992,"[{""event"":""fullscreenenter"",""trial"":1,""time"":5065}]",NA,NA,NA,NA,NA,5,#741CD8,#D8271C,0,0,1,40,0,1731,39,0,416,0,0,experiment,NA,NA,2,0.5,0.5,4,5,85,2,NA
fcp-trial,133,938927,0.0-94.0-0.0,voc_e2,11992,"[{""event"":""fullscreenenter"",""trial"":1,""time"":5065}]",NA,NA,NA,NA,NA,3,#741CD8,#D8271C,10,0,1,38,1,2135,39,0,303,0,0,experiment,NA,NA,2,0.5,0.5,4,5,86,2,NA
fcp-trial,134,941636,0.0-95.0-0.0,voc_e2,11992,"[{""event"":""fullscreenenter"",""trial"":1,""time"":5065}]",NA,NA,NA,NA,NA,1,#D89F1C,#3386FF,0,10,0,38,1,877,37,1,318,0,0,experiment,NA,NA,0,0.1,0.9,1,0,87,2,NA
fcp-trial,135,944642,0.0-96.0-0.0,voc_e2,11992,"[{""event"":""fullscreenenter"",""trial"":1,""time"":5065}]",NA,NA,NA,NA,NA,1,#FA92F8,#1CD855,0,10,0,38,1,1027,37,1,468,0,0,experiment,NA,NA,1,0.3,0.7,3,2,88,2,NA
fcp-trial,136,947769,0.0-97.0-0.0,voc_e2,11992,"[{""event"":""fullscreenenter"",""trial"":1,""time"":5065}]",NA,NA,NA,NA,NA,5,#1CD855,#FA92F8,0,0,1,40,0,824.0000000001164,37,1,775,0,1,experiment,NA,NA,1,0.7,0.3,2,3,89,2,NA
fcp-trial,137,950567,0.0-98.0-0.0,voc_e2,11992,"[{""event"":""fullscreenenter"",""trial"":1,""time"":5065}]",NA,NA,NA,NA,NA,1,#741CD8,#D8271C,10,10,1,38,1,959,39,0,322,10,0,experiment,NA,NA,2,0.5,0.5,4,5,90,2,NA
fcp-trial,138,953316,0.0-99.0-0.0,voc_e2,11992,"[{""event"":""fullscreenenter"",""trial"":1,""time"":5065}]",NA,NA,NA,NA,NA,6,#D8271C,#741CD8,10,10,0,40,0,840,39,0,397.9999999998836,10,1,experiment,NA,NA,2,0.5,0.5,5,4,91,3,NA
fcp-trial,139,956053,0.0-100.0-0.0,voc_e2,11992,"[{""event"":""fullscreenenter"",""trial"":1,""time"":5065}]",NA,NA,NA,NA,NA,4,#3386FF,#D89F1C,10,0,1,40,0,878,39,0,349,0,0,experiment,NA,NA,0,0.9,0.1,0,1,92,3,NA
fcp-trial,140,958812,0.0-101.0-0.0,voc_e2,11992,"[{""event"":""fullscreenenter"",""trial"":1,""time"":5065}]",NA,NA,NA,NA,NA,3,#FA92F8,#1CD855,10,10,0,38,1,780.9999999998836,37,1,467.0000000001164,10,0,experiment,NA,NA,1,0.3,0.7,3,2,93,3,NA
fcp-trial,141,962494,0.0-102.0-0.0,voc_e2,11992,"[{""event"":""fullscreenenter"",""trial"":1,""time"":5065}]",NA,NA,NA,NA,NA,2,#D8271C,#741CD8,10,10,0,38,1,1767,39,0,401.9999999998836,10,1,experiment,NA,NA,2,0.5,0.5,5,4,94,3,NA
fcp-trial,142,965969,0.0-103.0-0.0,voc_e2,11992,"[{""event"":""fullscreenenter"",""trial"":1,""time"":5065}]",NA,NA,NA,NA,NA,5,#3386FF,#D89F1C,10,10,1,40,0,1476,37,1,487,10,1,experiment,NA,NA,0,0.9,0.1,0,1,95,3,NA
fcp-trial,143,970541,0.0-104.0-0.0,voc_e2,11992,"[{""event"":""fullscreenenter"",""trial"":1,""time"":5065}]",NA,NA,NA,NA,NA,4,#741CD8,#D8271C,10,0,1,40,0,2463.0000000001164,39,0,597,0,0,experiment,NA,NA,2,0.5,0.5,4,5,96,3,NA
fcp-trial,144,975054,0.0-105.0-0.0,voc_e2,11992,"[{""event"":""fullscreenenter"",""trial"":1,""time"":5065}]",NA,NA,NA,NA,NA,6,#3386FF,#D89F1C,10,0,1,40,0,2623,39,0,380,0,0,experiment,NA,NA,0,0.9,0.1,0,1,97,3,NA
fcp-trial,145,981011,0.0-106.0-0.0,voc_e2,11992,"[{""event"":""fullscreenenter"",""trial"":1,""time"":5065}]",NA,NA,NA,NA,NA,4,#1CD855,#FA92F8,10,0,1,40,0,3455,37,1,992,10,1,experiment,NA,NA,1,0.7,0.3,2,3,98,3,NA
fcp-trial,146,987606,0.0-107.0-0.0,voc_e2,11992,"[{""event"":""fullscreenenter"",""trial"":1,""time"":5065}]",NA,NA,NA,NA,NA,2,#D89F1C,#3386FF,0,10,0,38,1,4651,39,0,434,10,1,experiment,NA,NA,0,0.1,0.9,1,0,99,3,NA
fcp-trial,147,991298,0.0-108.0-0.0,voc_e2,11992,"[{""event"":""fullscreenenter"",""trial"":1,""time"":5065}]",NA,NA,NA,NA,NA,3,#D89F1C,#3386FF,10,10,0,40,0,1464,37,1,718,10,0,experiment,NA,NA,0,0.1,0.9,1,0,100,3,NA
fcp-trial,148,997083,0.0-109.0-0.0,voc_e2,11992,"[{""event"":""fullscreenenter"",""trial"":1,""time"":5065}]",NA,NA,NA,NA,NA,0,#D8271C,#741CD8,0,10,0,38,1,3866,39,0,402,10,1,experiment,NA,NA,2,0.5,0.5,5,4,101,3,NA
fcp-trial,149,1000393,0.0-110.0-0.0,voc_e2,11992,"[{""event"":""fullscreenenter"",""trial"":1,""time"":5065}]",NA,NA,NA,NA,NA,0,#1CD855,#FA92F8,10,0,1,38,1,1381.0000000001164,39,0,419,0,0,experiment,NA,NA,1,0.7,0.3,2,3,102,3,NA
fcp-trial,150,1009046,0.0-111.0-0.0,voc_e2,11992,"[{""event"":""fullscreenenter"",""trial"":1,""time"":5065}]",NA,NA,NA,NA,NA,6,#1CD855,#FA92F8,10,0,1,40,0,6714,37,1,426.0000000001164,10,1,experiment,NA,NA,1,0.7,0.3,2,3,103,3,NA
fcp-trial,151,1013345,0.0-112.0-0.0,voc_e2,11992,"[{""event"":""fullscreenenter"",""trial"":1,""time"":5065}]",NA,NA,NA,NA,NA,2,#1CD855,#FA92F8,10,0,1,38,1,2457,39,0,333,0,0,experiment,NA,NA,1,0.7,0.3,2,3,104,3,NA
fcp-trial,152,1016418,0.0-113.0-0.0,voc_e2,11992,"[{""event"":""fullscreenenter"",""trial"":1,""time"":5065}]",NA,NA,NA,NA,NA,0,#D89F1C,#3386FF,0,10,0,38,1,1277,37,1,285,0,0,experiment,NA,NA,0,0.1,0.9,1,0,105,3,NA
audio-instructions,153,1021897,0.0-114.0,voc_e2,11992,"[{""event"":""fullscreenenter"",""trial"":1,""time"":5065}]",NA,1038,static/audio/pause.wav,NA,0,NA,NA,NA,NA,NA,NA,NA,NA,NA,NA,NA,NA,NA,NA,NA,NA,NA,NA,NA,NA,NA,NA,NA,NA,NA
fcp-trial,154,1024924,0.0-115.0-0.0,voc_e2,11992,"[{""event"":""fullscreenenter"",""trial"":1,""time"":5065}]",NA,NA,NA,NA,NA,4,#3386FF,#D89F1C,10,0,1,40,0,1099,39,0,417.00000000023283,0,0,experiment,NA,NA,0,0.9,0.1,0,1,106,3,NA
fcp-trial,155,1027548,0.0-116.0-0.0,voc_e2,11992,"[{""event"":""fullscreenenter"",""trial"":1,""time"":5065}]",NA,NA,NA,NA,NA,3,#741CD8,#D8271C,0,10,1,40,0,799,37,1,315.0000000001164,0,1,experiment,NA,NA,2,0.5,0.5,4,5,107,3,NA
fcp-trial,156,1031223,0.0-117.0-0.0,voc_e2,11992,"[{""event"":""fullscreenenter"",""trial"":1,""time"":5065}]",NA,NA,NA,NA,NA,0,#D8271C,#741CD8,10,0,0,38,1,1683,39,0,482,0,1,experiment,NA,NA,2,0.5,0.5,5,4,108,3,NA
fcp-trial,157,1034516,0.0-118.0-0.0,voc_e2,11992,"[{""event"":""fullscreenenter"",""trial"":1,""time"":5065}]",NA,NA,NA,NA,NA,1,#3386FF,#D89F1C,0,0,1,38,1,1302.9999999998836,39,0,481,0,0,experiment,NA,NA,0,0.9,0.1,0,1,109,3,NA
fcp-trial,158,1037129,0.0-119.0-0.0,voc_e2,11992,"[{""event"":""fullscreenenter"",""trial"":1,""time"":5065}]",NA,NA,NA,NA,NA,3,#FA92F8,#1CD855,0,0,0,40,0,682,39,0,421,0,1,experiment,NA,NA,1,0.3,0.7,3,2,110,3,NA
fcp-trial,159,1039886,0.0-120.0-0.0,voc_e2,11992,"[{""event"":""fullscreenenter"",""trial"":1,""time"":5065}]",NA,NA,NA,NA,NA,6,#D89F1C,#3386FF,0,10,0,40,0,957.0000000001164,37,1,289,0,0,experiment,NA,NA,0,0.1,0.9,1,0,111,3,NA
fcp-trial,160,1043191,0.0-121.0-0.0,voc_e2,11992,"[{""event"":""fullscreenenter"",""trial"":1,""time"":5065}]",NA,NA,NA,NA,NA,0,#1CD855,#FA92F8,10,10,1,38,1,1445,39,0,347,10,0,experiment,NA,NA,1,0.7,0.3,2,3,112,3,NA
fcp-trial,161,1045937,0.0-122.0-0.0,voc_e2,11992,"[{""event"":""fullscreenenter"",""trial"":1,""time"":5065}]",NA,NA,NA,NA,NA,5,#741CD8,#D8271C,0,10,1,40,0,862,39,0,374,10,0,experiment,NA,NA,2,0.5,0.5,4,5,113,3,NA
fcp-trial,162,1048620,0.0-123.0-0.0,voc_e2,11992,"[{""event"":""fullscreenenter"",""trial"":1,""time"":5065}]",NA,NA,NA,NA,NA,1,#741CD8,#D8271C,0,0,1,38,1,804,37,1,349,0,1,experiment,NA,NA,2,0.5,0.5,4,5,114,3,NA
fcp-trial,163,1052082,0.0-124.0-0.0,voc_e2,11992,"[{""event"":""fullscreenenter"",""trial"":1,""time"":5065}]",NA,NA,NA,NA,NA,4,#FA92F8,#1CD855,0,10,0,40,0,1587,39,0,366,10,1,experiment,NA,NA,1,0.3,0.7,3,2,115,3,NA
fcp-trial,164,1056525,0.0-125.0-0.0,voc_e2,11992,"[{""event"":""fullscreenenter"",""trial"":1,""time"":5065}]",NA,NA,NA,NA,NA,0,#D89F1C,#3386FF,0,10,0,38,1,2453,39,0,479,10,1,experiment,NA,NA,0,0.1,0.9,1,0,116,3,NA
fcp-trial,165,1059633,0.0-126.0-0.0,voc_e2,11992,"[{""event"":""fullscreenenter"",""trial"":1,""time"":5065}]",NA,NA,NA,NA,NA,6,#741CD8,#D8271C,10,0,1,40,0,1203,39,0,394,0,0,experiment,NA,NA,2,0.5,0.5,4,5,117,3,NA
fcp-trial,166,1065282,0.0-127.0-0.0,voc_e2,11992,"[{""event"":""fullscreenenter"",""trial"":1,""time"":5065}]",NA,NA,NA,NA,NA,2,#D89F1C,#3386FF,0,10,0,38,1,3556,37,1,581,0,0,experiment,NA,NA,0,0.1,0.9,1,0,118,3,NA
fcp-trial,167,1068022,0.0-128.0-0.0,voc_e2,11992,"[{""event"":""fullscreenenter"",""trial"":1,""time"":5065}]",NA,NA,NA,NA,NA,5,#1CD855,#FA92F8,10,0,1,40,0,851,39,0,378,0,0,experiment,NA,NA,1,0.7,0.3,2,3,119,3,NA
fcp-trial,168,1071317,0.0-129.0-0.0,voc_e2,11992,"[{""event"":""fullscreenenter"",""trial"":1,""time"":5065}]",NA,NA,NA,NA,NA,2,#D8271C,#741CD8,10,10,0,38,1,1425,39,0,359,10,1,experiment,NA,NA,2,0.5,0.5,5,4,120,3,NA
fcp-trial,169,1074177,0.0-130.0-0.0,voc_e2,11992,"[{""event"":""fullscreenenter"",""trial"":1,""time"":5065}]",NA,NA,NA,NA,NA,1,#1CD855,#FA92F8,0,0,1,38,1,835,39,0,515,0,0,experiment,NA,NA,1,0.7,0.3,2,3,121,3,NA
fcp-trial,170,1077130,0.0-131.0-0.0,voc_e2,11992,"[{""event"":""fullscreenenter"",""trial"":1,""time"":5065}]",NA,NA,NA,NA,NA,4,#741CD8,#D8271C,10,10,1,40,0,993,37,1,447,10,1,experiment,NA,NA,2,0.5,0.5,4,5,122,3,NA
fcp-trial,171,1081997,0.0-132.0-0.0,voc_e2,11992,"[{""event"":""fullscreenenter"",""trial"":1,""time"":5065}]",NA,NA,NA,NA,NA,5,#3386FF,#D89F1C,0,10,1,40,0,2976,39,0,382,10,0,experiment,NA,NA,0,0.9,0.1,0,1,123,3,NA
fcp-trial,172,1088532,0.0-133.0-0.0,voc_e2,11992,"[{""event"":""fullscreenenter"",""trial"":1,""time"":5065}]",NA,NA,NA,NA,NA,3,#3386FF,#D89F1C,0,0,1,38,1,4705,39,0,320,0,0,experiment,NA,NA,0,0.9,0.1,0,1,124,3,NA
fcp-trial,173,1092090,0.0-134.0-0.0,voc_e2,11992,"[{""event"":""fullscreenenter"",""trial"":1,""time"":5065}]",NA,NA,NA,NA,NA,2,#1CD855,#FA92F8,10,0,1,38,1,1677,37,1,367.99999999976717,10,1,experiment,NA,NA,1,0.7,0.3,2,3,125,3,NA
fcp-trial,174,1095429,0.0-135.0-0.0,voc_e2,11992,"[{""event"":""fullscreenenter"",""trial"":1,""time"":5065}]",NA,NA,NA,NA,NA,6,#FA92F8,#1CD855,0,10,0,40,0,1429.0000000002328,37,1,398,0,0,experiment,NA,NA,1,0.3,0.7,3,2,126,3,NA
fcp-trial,175,1098003,0.0-136.0-0.0,voc_e2,11992,"[{""event"":""fullscreenenter"",""trial"":1,""time"":5065}]",NA,NA,NA,NA,NA,4,#1CD855,#FA92F8,10,10,1,40,0,632,37,1,431.00000000023283,10,1,experiment,NA,NA,1,0.7,0.3,2,3,127,3,NA
fcp-trial,176,1101030,0.0-137.0-0.0,voc_e2,11992,"[{""event"":""fullscreenenter"",""trial"":1,""time"":5065}]",NA,NA,NA,NA,NA,0,#D89F1C,#3386FF,0,10,0,38,1,1219.9999999997672,39,0,299.00000000023283,10,1,experiment,NA,NA,0,0.1,0.9,1,0,128,3,NA
fcp-trial,177,1104306,0.0-138.0-0.0,voc_e2,11992,"[{""event"":""fullscreenenter"",""trial"":1,""time"":5065}]",NA,NA,NA,NA,NA,1,#741CD8,#D8271C,10,0,1,40,0,1397,37,1,368,10,1,experiment,NA,NA,2,0.5,0.5,4,5,129,3,NA
fcp-trial,178,1107191,0.0-139.0-0.0,voc_e2,11992,"[{""event"":""fullscreenenter"",""trial"":1,""time"":5065}]",NA,NA,NA,NA,NA,1,#FA92F8,#1CD855,10,10,0,40,0,651,37,1,722,10,0,experiment,NA,NA,1,0.3,0.7,3,2,130,3,NA
fcp-trial,179,1109846,0.0-140.0-0.0,voc_e2,11992,"[{""event"":""fullscreenenter"",""trial"":1,""time"":5065}]",NA,NA,NA,NA,NA,6,#741CD8,#D8271C,0,10,1,40,0,620,39,0,486,10,0,experiment,NA,NA,2,0.5,0.5,4,5,131,3,NA
fcp-trial,180,1112476,0.0-141.0-0.0,voc_e2,11992,"[{""event"":""fullscreenenter"",""trial"":1,""time"":5065}]",NA,NA,NA,NA,NA,3,#741CD8,#D8271C,0,10,1,40,0,739,39,0,380,10,0,experiment,NA,NA,2,0.5,0.5,4,5,132,3,NA
fcp-trial,181,1115232,0.0-142.0-0.0,voc_e2,11992,"[{""event"":""fullscreenenter"",""trial"":1,""time"":5065}]",NA,NA,NA,NA,NA,2,#3386FF,#D89F1C,10,0,1,40,0,782,39,0,466.00000000023283,0,0,experiment,NA,NA,0,0.9,0.1,0,1,133,3,NA
fcp-trial,182,1118225,0.0-143.0-0.0,voc_e2,11992,"[{""event"":""fullscreenenter"",""trial"":1,""time"":5065}]",NA,NA,NA,NA,NA,3,#1CD855,#FA92F8,0,0,1,40,0,915.9999999997672,37,1,566,0,1,experiment,NA,NA,1,0.7,0.3,2,3,134,3,NA
fcp-trial,183,1120982,0.0-144.0-0.0,voc_e2,11992,"[{""event"":""fullscreenenter"",""trial"":1,""time"":5065}]",NA,NA,NA,NA,NA,5,#741CD8,#D8271C,10,0,1,40,0,647,39,0,597,0,0,experiment,NA,NA,2,0.5,0.5,4,5,135,3,NA
fcp-trial,184,1123511,0.0-145.0-0.0,voc_e2,11992,"[{""event"":""fullscreenenter"",""trial"":1,""time"":5065}]",NA,NA,NA,NA,NA,6,#D89F1C,#3386FF,0,10,0,40,0,651,37,1,369,0,0,experiment,NA,NA,0,0.1,0.9,1,0,136,4,NA
fcp-trial,185,1126499,0.0-146.0-0.0,voc_e2,11992,"[{""event"":""fullscreenenter"",""trial"":1,""time"":5065}]",NA,NA,NA,NA,NA,0,#1CD855,#FA92F8,10,0,1,38,1,1143.9999999997672,39,0,333,0,0,experiment,NA,NA,1,0.7,0.3,2,3,137,4,NA
fcp-trial,186,1129088,0.0-147.0-0.0,voc_e2,11992,"[{""event"":""fullscreenenter"",""trial"":1,""time"":5065}]",NA,NA,NA,NA,NA,4,#D8271C,#741CD8,10,0,0,40,0,667.0000000002328,39,0,412,0,1,experiment,NA,NA,2,0.5,0.5,5,4,138,4,NA
fcp-trial,187,1132530,0.0-148.0-0.0,voc_e2,11992,"[{""event"":""fullscreenenter"",""trial"":1,""time"":5065}]",NA,NA,NA,NA,NA,2,#1CD855,#FA92F8,10,0,1,38,1,1463.9999999997672,37,1,466,10,1,experiment,NA,NA,1,0.7,0.3,2,3,139,4,NA
fcp-trial,188,1135277,0.0-149.0-0.0,voc_e2,11992,"[{""event"":""fullscreenenter"",""trial"":1,""time"":5065}]",NA,NA,NA,NA,NA,4,#D89F1C,#3386FF,0,10,0,40,0,884,39,0,353,10,1,experiment,NA,NA,0,0.1,0.9,1,0,140,4,NA
fcp-trial,189,1138530,0.0-150.0-0.0,voc_e2,11992,"[{""event"":""fullscreenenter"",""trial"":1,""time"":5065}]",NA,NA,NA,NA,NA,5,#3386FF,#D89F1C,10,0,1,40,0,1377,39,0,364,0,0,experiment,NA,NA,0,0.9,0.1,0,1,141,4,NA
fcp-trial,190,1144362,0.0-151.0-0.0,voc_e2,11992,"[{""event"":""fullscreenenter"",""trial"":1,""time"":5065}]",NA,NA,NA,NA,NA,0,#741CD8,#D8271C,10,0,1,38,1,3599.000000000233,39,0,715,0,0,experiment,NA,NA,2,0.5,0.5,4,5,142,4,NA
fcp-trial,191,1147703,0.0-152.0-0.0,voc_e2,11992,"[{""event"":""fullscreenenter"",""trial"":1,""time"":5065}]",NA,NA,NA,NA,NA,2,#741CD8,#D8271C,10,0,1,40,0,1366,39,0,464,0,0,experiment,NA,NA,2,0.5,0.5,4,5,143,4,NA
fcp-trial,192,1150445,0.0-153.0-0.0,voc_e2,11992,"[{""event"":""fullscreenenter"",""trial"":1,""time"":5065}]",NA,NA,NA,NA,NA,5,#1CD855,#FA92F8,10,10,1,40,0,833,37,1,398.00000000023283,10,1,experiment,NA,NA,1,0.7,0.3,2,3,144,4,NA
fcp-trial,193,1156361,0.0-154.0-0.0,voc_e2,11992,"[{""event"":""fullscreenenter"",""trial"":1,""time"":5065}]",NA,NA,NA,NA,NA,3,#3386FF,#D89F1C,10,0,1,38,1,3642,37,1,764,10,1,experiment,NA,NA,0,0.9,0.1,0,1,145,4,NA
fcp-trial,194,1161893,0.0-155.0-0.0,voc_e2,11992,"[{""event"":""fullscreenenter"",""trial"":1,""time"":5065}]",NA,NA,NA,NA,NA,1,#3386FF,#D89F1C,10,0,1,38,1,3543,39,0,480,0,0,experiment,NA,NA,0,0.9,0.1,0,1,146,4,NA
fcp-trial,195,1165536,0.0-156.0-0.0,voc_e2,11992,"[{""event"":""fullscreenenter"",""trial"":1,""time"":5065}]",NA,NA,NA,NA,NA,6,#1CD855,#FA92F8,0,0,1,40,0,1616,37,1,514,0,1,experiment,NA,NA,1,0.7,0.3,2,3,147,4,NA
fcp-trial,196,1168059,0.0-157.0-0.0,voc_e2,11992,"[{""event"":""fullscreenenter"",""trial"":1,""time"":5065}]",NA,NA,NA,NA,NA,3,#D89F1C,#3386FF,0,10,0,40,0,630,39,0,381.99999999976717,10,1,experiment,NA,NA,0,0.1,0.9,1,0,148,4,NA
fcp-trial,197,1170817,0.0-158.0-0.0,voc_e2,11992,"[{""event"":""fullscreenenter"",""trial"":1,""time"":5065}]",NA,NA,NA,NA,NA,3,#741CD8,#D8271C,0,0,1,40,0,805,39,0,443,0,0,experiment,NA,NA,2,0.5,0.5,4,5,149,4,NA
fcp-trial,198,1173457,0.0-159.0-0.0,voc_e2,11992,"[{""event"":""fullscreenenter"",""trial"":1,""time"":5065}]",NA,NA,NA,NA,NA,6,#D89F1C,#3386FF,0,10,0,40,0,665,37,1,464.00000000023283,0,0,experiment,NA,NA,0,0.1,0.9,1,0,150,4,NA
fcp-trial,199,1176300,0.0-160.0-0.0,voc_e2,11992,"[{""event"":""fullscreenenter"",""trial"":1,""time"":5065}]",NA,NA,NA,NA,NA,2,#FA92F8,#1CD855,0,0,0,38,1,1002,39,0,333,0,1,experiment,NA,NA,1,0.3,0.7,3,2,151,4,NA
fcp-trial,200,1178724,0.0-161.0-0.0,voc_e2,11992,"[{""event"":""fullscreenenter"",""trial"":1,""time"":5065}]",NA,NA,NA,NA,NA,1,#FA92F8,#1CD855,10,10,0,38,1,561,39,0,352.00000000023283,10,1,experiment,NA,NA,1,0.3,0.7,3,2,152,4,NA
fcp-trial,201,1181261,0.0-162.0-0.0,voc_e2,11992,"[{""event"":""fullscreenenter"",""trial"":1,""time"":5065}]",NA,NA,NA,NA,NA,6,#741CD8,#D8271C,10,0,1,40,0,661,37,1,366,10,1,experiment,NA,NA,2,0.5,0.5,4,5,153,4,NA
fcp-trial,202,1183819,0.0-163.0-0.0,voc_e2,11992,"[{""event"":""fullscreenenter"",""trial"":1,""time"":5065}]",NA,NA,NA,NA,NA,2,#D8271C,#741CD8,0,0,0,40,0,663,37,1,385,0,0,experiment,NA,NA,2,0.5,0.5,5,4,154,4,NA
fcp-trial,203,1186927,0.0-164.0-0.0,voc_e2,11992,"[{""event"":""fullscreenenter"",""trial"":1,""time"":5065}]",NA,NA,NA,NA,NA,2,#D89F1C,#3386FF,0,10,0,38,1,1082,37,1,517,0,0,experiment,NA,NA,0,0.1,0.9,1,0,155,4,NA
fcp-trial,204,1190391,0.0-165.0-0.0,voc_e2,11992,"[{""event"":""fullscreenenter"",""trial"":1,""time"":5065}]",NA,NA,NA,NA,NA,0,#FA92F8,#1CD855,10,10,0,38,1,1583,39,0,370,10,1,experiment,NA,NA,1,0.3,0.7,3,2,156,4,NA
fcp-trial,205,1193460,0.0-166.0-0.0,voc_e2,11992,"[{""event"":""fullscreenenter"",""trial"":1,""time"":5065}]",NA,NA,NA,NA,NA,5,#FA92F8,#1CD855,10,10,0,40,0,1211,37,1,348,10,0,experiment,NA,NA,1,0.3,0.7,3,2,157,4,NA
fcp-trial,206,1196405,0.0-167.0-0.0,voc_e2,11992,"[{""event"":""fullscreenenter"",""trial"":1,""time"":5065}]",NA,NA,NA,NA,NA,1,#3386FF,#D89F1C,10,0,1,38,1,1049,39,0,386,0,0,experiment,NA,NA,0,0.9,0.1,0,1,158,4,NA
fcp-trial,207,1199361,0.0-168.0-0.0,voc_e2,11992,"[{""event"":""fullscreenenter"",""trial"":1,""time"":5065}]",NA,NA,NA,NA,NA,0,#D8271C,#741CD8,0,0,0,38,1,959,39,0,484,0,1,experiment,NA,NA,2,0.5,0.5,5,4,159,4,NA
fcp-trial,208,1202018,0.0-169.0-0.0,voc_e2,11992,"[{""event"":""fullscreenenter"",""trial"":1,""time"":5065}]",NA,NA,NA,NA,NA,5,#3386FF,#D89F1C,10,0,1,40,0,698,39,0,450,0,0,experiment,NA,NA,0,0.9,0.1,0,1,160,4,NA
fcp-trial,209,1205526,0.0-170.0-0.0,voc_e2,11992,"[{""event"":""fullscreenenter"",""trial"":1,""time"":5065}]",NA,NA,NA,NA,NA,5,#741CD8,#D8271C,10,0,1,40,0,1507.0000000002328,37,1,492,10,1,experiment,NA,NA,2,0.5,0.5,4,5,161,4,NA
fcp-trial,210,1209024,0.0-171.0-0.0,voc_e2,11992,"[{""event"":""fullscreenenter"",""trial"":1,""time"":5065}]",NA,NA,NA,NA,NA,3,#1CD855,#FA92F8,10,0,1,40,0,1601,39,0,386.00000000023283,0,0,experiment,NA,NA,1,0.7,0.3,2,3,162,4,NA
fcp-trial,211,1212864,0.0-172.0-0.0,voc_e2,11992,"[{""event"":""fullscreenenter"",""trial"":1,""time"":5065}]",NA,NA,NA,NA,NA,4,#1CD855,#FA92F8,10,10,1,40,0,1880,37,1,447,10,1,experiment,NA,NA,1,0.7,0.3,2,3,163,4,NA
fcp-trial,212,1215972,0.0-173.0-0.0,voc_e2,11992,"[{""event"":""fullscreenenter"",""trial"":1,""time"":5065}]",NA,NA,NA,NA,NA,4,#3386FF,#D89F1C,10,10,1,40,0,1200,39,0,399,10,0,experiment,NA,NA,0,0.9,0.1,0,1,164,4,NA
fcp-trial,213,1219515,0.0-174.0-0.0,voc_e2,11992,"[{""event"":""fullscreenenter"",""trial"":1,""time"":5065}]",NA,NA,NA,NA,NA,0,#D89F1C,#3386FF,0,10,0,38,1,1466,39,0,568,10,1,experiment,NA,NA,0,0.1,0.9,1,0,165,4,NA
fcp-trial,214,1222992,0.0-175.0-0.0,voc_e2,11992,"[{""event"":""fullscreenenter"",""trial"":1,""time"":5065}]",NA,NA,NA,NA,NA,4,#D8271C,#741CD8,10,0,0,40,0,1583.9999999997672,39,0,384,0,1,experiment,NA,NA,2,0.5,0.5,5,4,166,4,NA
fcp-trial,215,1225899,0.0-176.0-0.0,voc_e2,11992,"[{""event"":""fullscreenenter"",""trial"":1,""time"":5065}]",NA,NA,NA,NA,NA,6,#1CD855,#FA92F8,10,0,1,40,0,1015,39,0,380,0,0,experiment,NA,NA,1,0.7,0.3,2,3,167,4,NA
fcp-trial,216,1229378,0.0-177.0-0.0,voc_e2,11992,"[{""event"":""fullscreenenter"",""trial"":1,""time"":5065}]",NA,NA,NA,NA,NA,1,#741CD8,#D8271C,10,10,1,38,1,1368,39,0,602,10,0,experiment,NA,NA,2,0.5,0.5,4,5,168,4,NA
fcp-trial,217,1232436,0.0-178.0-0.0,voc_e2,11992,"[{""event"":""fullscreenenter"",""trial"":1,""time"":5065}]",NA,NA,NA,NA,NA,1,#741CD8,#D8271C,10,10,1,38,1,1132,39,0,414,10,0,experiment,NA,NA,2,0.5,0.5,4,5,169,4,NA
fcp-trial,218,1238516,0.0-179.0-0.0,voc_e2,11992,"[{""event"":""fullscreenenter"",""trial"":1,""time"":5065}]",NA,NA,NA,NA,NA,1,#3386FF,#D89F1C,10,0,1,38,1,3844,37,1,726,10,1,experiment,NA,NA,0,0.9,0.1,0,1,170,4,NA
fcp-trial,219,1241896,0.0-180.0-0.0,voc_e2,11992,"[{""event"":""fullscreenenter"",""trial"":1,""time"":5065}]",NA,NA,NA,NA,NA,6,#3386FF,#D89F1C,10,0,1,40,0,1356,39,0,515,0,0,experiment,NA,NA,0,0.9,0.1,0,1,171,4,NA
fcp-trial,220,1244985,0.0-181.0-0.0,voc_e2,11992,"[{""event"":""fullscreenenter"",""trial"":1,""time"":5065}]",NA,NA,NA,NA,NA,5,#FA92F8,#1CD855,0,0,0,40,0,1025,37,1,552,0,0,experiment,NA,NA,1,0.3,0.7,3,2,172,4,NA
fcp-trial,221,1248376,0.0-182.0-0.0,voc_e2,11992,"[{""event"":""fullscreenenter"",""trial"":1,""time"":5065}]",NA,NA,NA,NA,NA,6,#741CD8,#D8271C,10,10,1,40,0,1348,37,1,533,10,1,experiment,NA,NA,2,0.5,0.5,4,5,173,4,NA
fcp-trial,222,1251300,0.0-183.0-0.0,voc_e2,11992,"[{""event"":""fullscreenenter"",""trial"":1,""time"":5065}]",NA,NA,NA,NA,NA,4,#1CD855,#FA92F8,10,10,1,40,0,1034.0000000002328,39,0,381,10,0,experiment,NA,NA,1,0.7,0.3,2,3,174,4,NA
fcp-trial,223,1259890,0.0-184.0-0.0,voc_e2,11992,"[{""event"":""fullscreenenter"",""trial"":1,""time"":5065}]",NA,NA,NA,NA,NA,5,#D89F1C,#3386FF,0,10,0,40,0,6632,39,0,446,10,1,experiment,NA,NA,0,0.1,0.9,1,0,175,4,NA
fcp-trial,224,1271258,0.0-185.0-0.0,voc_e2,11992,"[{""event"":""fullscreenenter"",""trial"":1,""time"":5065}]",NA,NA,NA,NA,NA,4,#3386FF,#D89F1C,10,0,1,40,0,9339,39,0,519,0,0,experiment,NA,NA,0,0.9,0.1,0,1,176,4,NA
fcp-trial,225,1278896,0.0-186.0-0.0,voc_e2,11992,"[{""event"":""fullscreenenter"",""trial"":1,""time"":5065}]",NA,NA,NA,NA,NA,3,#FA92F8,#1CD855,0,10,0,38,1,4624,37,1,1501,0,0,experiment,NA,NA,1,0.3,0.7,3,2,177,4,NA
fcp-trial,226,1282387,0.0-187.0-0.0,voc_e2,11992,"[{""event"":""fullscreenenter"",""trial"":1,""time"":5065}]",NA,NA,NA,NA,NA,0,#D8271C,#741CD8,10,10,0,38,1,1648.0000000002328,39,0,331,10,1,experiment,NA,NA,2,0.5,0.5,5,4,178,4,NA
fcp-trial,227,1297393,0.0-188.0-0.0,voc_e2,11992,"[{""event"":""fullscreenenter"",""trial"":1,""time"":5065}]",NA,NA,NA,NA,NA,2,#D8271C,#741CD8,0,10,0,null,null,null,null,null,null,NA,0,experiment,NA,NA,2,0.5,0.5,5,4,179,4,NA
fcp-trial,228,1299949,0.0-189.0-0.0,voc_e2,11992,"[{""event"":""fullscreenenter"",""trial"":1,""time"":5065}]",NA,NA,NA,NA,NA,0,#1CD855,#FA92F8,10,0,1,40,0,215.00000000023283,37,1,835.0000000002328,10,1,experiment,NA,NA,1,0.7,0.3,2,3,180,4,NA
fcp-trial,229,1303424,0.0-190.0-0.0,voc_e2,11992,"[{""event"":""fullscreenenter"",""trial"":1,""time"":5065}]",NA,NA,NA,NA,NA,2,#3386FF,#D89F1C,10,0,1,38,1,1234.0000000002328,39,0,733,0,0,experiment,NA,NA,0,0.9,0.1,0,1,181,5,NA
fcp-trial,230,1306221,0.0-191.0-0.0,voc_e2,11992,"[{""event"":""fullscreenenter"",""trial"":1,""time"":5065}]",NA,NA,NA,NA,NA,4,#741CD8,#D8271C,0,0,1,40,0,883,37,1,405.99999999976717,0,1,experiment,NA,NA,2,0.5,0.5,4,5,182,5,NA
fcp-trial,231,1309226,0.0-192.0-0.0,voc_e2,11992,"[{""event"":""fullscreenenter"",""trial"":1,""time"":5065}]",NA,NA,NA,NA,NA,0,#D89F1C,#3386FF,0,10,0,38,1,1077,39,0,418,10,1,experiment,NA,NA,0,0.1,0.9,1,0,183,5,NA
fcp-trial,232,1312081,0.0-193.0-0.0,voc_e2,11992,"[{""event"":""fullscreenenter"",""trial"":1,""time"":5065}]",NA,NA,NA,NA,NA,6,#FA92F8,#1CD855,0,10,0,40,0,917,37,1,430,0,0,experiment,NA,NA,1,0.3,0.7,3,2,184,5,NA
fcp-trial,233,1314861,0.0-194.0-0.0,voc_e2,11992,"[{""event"":""fullscreenenter"",""trial"":1,""time"":5065}]",NA,NA,NA,NA,NA,3,#D8271C,#741CD8,0,0,0,38,1,983,39,0,287,0,1,experiment,NA,NA,2,0.5,0.5,5,4,185,5,NA
fcp-trial,234,1318149,0.0-195.0-0.0,voc_e2,11992,"[{""event"":""fullscreenenter"",""trial"":1,""time"":5065}]",NA,NA,NA,NA,NA,3,#D89F1C,#3386FF,0,10,0,40,0,1297,39,0,480,10,1,experiment,NA,NA,0,0.1,0.9,1,0,186,5,NA
fcp-trial,235,1321323,0.0-196.0-0.0,voc_e2,11992,"[{""event"":""fullscreenenter"",""trial"":1,""time"":5065}]",NA,NA,NA,NA,NA,1,#FA92F8,#1CD855,0,10,0,38,1,1343,37,1,317,0,0,experiment,NA,NA,1,0.3,0.7,3,2,187,5,NA
fcp-trial,236,1325104,0.0-197.0-0.0,voc_e2,11992,"[{""event"":""fullscreenenter"",""trial"":1,""time"":5065}]",NA,NA,NA,NA,NA,5,#D8271C,#741CD8,0,0,0,40,0,1819,39,0,453.00000000023283,0,1,experiment,NA,NA,2,0.5,0.5,5,4,188,5,NA
fcp-trial,237,1328749,0.0-198.0-0.0,voc_e2,11992,"[{""event"":""fullscreenenter"",""trial"":1,""time"":5065}]",NA,NA,NA,NA,NA,2,#FA92F8,#1CD855,10,0,0,38,1,1813,37,1,321,10,0,experiment,NA,NA,1,0.3,0.7,3,2,189,5,NA
fcp-trial,238,1332821,0.0-199.0-0.0,voc_e2,11992,"[{""event"":""fullscreenenter"",""trial"":1,""time"":5065}]",NA,NA,NA,NA,NA,2,#D89F1C,#3386FF,0,10,0,38,1,1914.0000000002328,39,0,648,10,1,experiment,NA,NA,0,0.1,0.9,1,0,190,5,NA
fcp-trial,239,1337486,0.0-200.0-0.0,voc_e2,11992,"[{""event"":""fullscreenenter"",""trial"":1,""time"":5065}]",NA,NA,NA,NA,NA,1,#D8271C,#741CD8,10,0,0,38,1,2788,39,0,369,0,1,experiment,NA,NA,2,0.5,0.5,5,4,191,5,NA
fcp-trial,240,1341516,0.0-201.0-0.0,voc_e2,11992,"[{""event"":""fullscreenenter"",""trial"":1,""time"":5065}]",NA,NA,NA,NA,NA,4,#741CD8,#D8271C,0,0,1,40,0,2102,37,1,419,0,1,experiment,NA,NA,2,0.5,0.5,4,5,192,5,NA
fcp-trial,241,1344269,0.0-202.0-0.0,voc_e2,11992,"[{""event"":""fullscreenenter"",""trial"":1,""time"":5065}]",NA,NA,NA,NA,NA,3,#1CD855,#FA92F8,10,10,1,40,0,794,37,1,446,10,1,experiment,NA,NA,1,0.7,0.3,2,3,193,5,NA
fcp-trial,242,1347794,0.0-203.0-0.0,voc_e2,11992,"[{""event"":""fullscreenenter"",""trial"":1,""time"":5065}]",NA,NA,NA,NA,NA,6,#741CD8,#D8271C,10,0,1,40,0,1605,37,1,411,10,1,experiment,NA,NA,2,0.5,0.5,4,5,194,5,NA
fcp-trial,243,1351086,0.0-204.0-0.0,voc_e2,11992,"[{""event"":""fullscreenenter"",""trial"":1,""time"":5065}]",NA,NA,NA,NA,NA,0,#D89F1C,#3386FF,0,10,0,40,0,1217.0000000002328,39,0,566.0000000002328,10,1,experiment,NA,NA,0,0.1,0.9,1,0,195,5,NA
fcp-trial,244,1354923,0.0-205.0-0.0,voc_e2,11992,"[{""event"":""fullscreenenter"",""trial"":1,""time"":5065}]",NA,NA,NA,NA,NA,1,#1CD855,#FA92F8,0,10,1,38,1,1707,39,0,620.0000000002328,10,0,experiment,NA,NA,1,0.7,0.3,2,3,196,5,NA
fcp-trial,245,1359409,0.0-206.0-0.0,voc_e2,11992,"[{""event"":""fullscreenenter"",""trial"":1,""time"":5065}]",NA,NA,NA,NA,NA,1,#D89F1C,#3386FF,0,10,0,38,1,2527,39,0,449,10,1,experiment,NA,NA,0,0.1,0.9,1,0,197,5,NA
fcp-trial,246,1363102,0.0-207.0-0.0,voc_e2,11992,"[{""event"":""fullscreenenter"",""trial"":1,""time"":5065}]",NA,NA,NA,NA,NA,0,#741CD8,#D8271C,10,10,1,38,1,1624,37,1,560,10,1,experiment,NA,NA,2,0.5,0.5,4,5,198,5,NA
fcp-trial,247,1367698,0.0-208.0-0.0,voc_e2,11992,"[{""event"":""fullscreenenter"",""trial"":1,""time"":5065}]",NA,NA,NA,NA,NA,2,#FA92F8,#1CD855,0,10,0,38,1,2589,39,0,500,10,1,experiment,NA,NA,1,0.3,0.7,3,2,199,5,NA
fcp-trial,248,1371341,0.0-209.0-0.0,voc_e2,11992,"[{""event"":""fullscreenenter"",""trial"":1,""time"":5065}]",NA,NA,NA,NA,NA,3,#D89F1C,#3386FF,0,10,0,40,0,1768,37,1,365,0,0,experiment,NA,NA,0,0.1,0.9,1,0,200,5,NA
fcp-trial,249,1374374,0.0-210.0-0.0,voc_e2,11992,"[{""event"":""fullscreenenter"",""trial"":1,""time"":5065}]",NA,NA,NA,NA,NA,0,#1CD855,#FA92F8,10,10,1,38,1,1235,39,0,289,10,0,experiment,NA,NA,1,0.7,0.3,2,3,201,5,NA
fcp-trial,250,1379547,0.0-211.0-0.0,voc_e2,11992,"[{""event"":""fullscreenenter"",""trial"":1,""time"":5065}]",NA,NA,NA,NA,NA,5,#3386FF,#D89F1C,10,0,1,40,0,3138,37,1,525,10,1,experiment,NA,NA,0,0.9,0.1,0,1,202,5,NA
fcp-trial,251,1384680,0.0-212.0-0.0,voc_e2,11992,"[{""event"":""fullscreenenter"",""trial"":1,""time"":5065}]",NA,NA,NA,NA,NA,2,#741CD8,#D8271C,10,0,1,38,1,3315,39,0,311,0,0,experiment,NA,NA,2,0.5,0.5,4,5,203,5,NA
fcp-trial,252,1387540,0.0-213.0-0.0,voc_e2,11992,"[{""event"":""fullscreenenter"",""trial"":1,""time"":5065}]",NA,NA,NA,NA,NA,6,#FA92F8,#1CD855,0,10,0,40,0,897,37,1,454,0,0,experiment,NA,NA,1,0.3,0.7,3,2,204,5,NA
fcp-trial,253,1390493,0.0-214.0-0.0,voc_e2,11992,"[{""event"":""fullscreenenter"",""trial"":1,""time"":5065}]",NA,NA,NA,NA,NA,4,#3386FF,#D89F1C,0,0,1,40,0,1043,37,1,399,0,1,experiment,NA,NA,0,0.9,0.1,0,1,205,5,NA
fcp-trial,254,1394739,0.0-215.0-0.0,voc_e2,11992,"[{""event"":""fullscreenenter"",""trial"":1,""time"":5065}]",NA,NA,NA,NA,NA,4,#1CD855,#FA92F8,10,0,1,40,0,2289.999999999767,37,1,447,10,1,experiment,NA,NA,1,0.7,0.3,2,3,206,5,NA
fcp-trial,255,1398013,0.0-216.0-0.0,voc_e2,11992,"[{""event"":""fullscreenenter"",""trial"":1,""time"":5065}]",NA,NA,NA,NA,NA,5,#D8271C,#741CD8,0,10,0,40,0,1319,37,1,443.00000000023283,0,0,experiment,NA,NA,2,0.5,0.5,5,4,207,5,NA
fcp-trial,256,1401864,0.0-217.0-0.0,voc_e2,11992,"[{""event"":""fullscreenenter"",""trial"":1,""time"":5065}]",NA,NA,NA,NA,NA,6,#3386FF,#D89F1C,10,10,1,40,0,1971,39,0,372,10,0,experiment,NA,NA,0,0.9,0.1,0,1,208,5,NA
fcp-trial,257,1405149,0.0-218.0-0.0,voc_e2,11992,"[{""event"":""fullscreenenter"",""trial"":1,""time"":5065}]",NA,NA,NA,NA,NA,5,#1CD855,#FA92F8,0,10,1,40,0,1093,39,0,681,10,0,experiment,NA,NA,1,0.7,0.3,2,3,209,5,NA
fcp-trial,258,1408262,0.0-219.0-0.0,voc_e2,11992,"[{""event"":""fullscreenenter"",""trial"":1,""time"":5065}]",NA,NA,NA,NA,NA,3,#741CD8,#D8271C,0,10,1,40,0,1140,37,1,465,0,1,experiment,NA,NA,2,0.5,0.5,4,5,210,5,NA
audio-instructions,259,1413656,0.0-220.0,voc_e2,11992,"[{""event"":""fullscreenenter"",""trial"":1,""time"":5065}]",NA,953,static/audio/pause.wav,NA,0,NA,NA,NA,NA,NA,NA,NA,NA,NA,NA,NA,NA,NA,NA,NA,NA,NA,NA,NA,NA,NA,NA,NA,NA,NA
fcp-trial,260,1417049,0.0-221.0-0.0,voc_e2,11992,"[{""event"":""fullscreenenter"",""trial"":1,""time"":5065}]",NA,NA,NA,NA,NA,3,#1CD855,#FA92F8,10,0,1,40,0,1503,37,1,383,10,1,experiment,NA,NA,1,0.7,0.3,2,3,211,5,NA
fcp-trial,261,1420060,0.0-222.0-0.0,voc_e2,11992,"[{""event"":""fullscreenenter"",""trial"":1,""time"":5065}]",NA,NA,NA,NA,NA,2,#1CD855,#FA92F8,10,0,1,38,1,984,37,1,518,10,1,experiment,NA,NA,1,0.7,0.3,2,3,212,5,NA
fcp-trial,262,1423050,0.0-223.0-0.0,voc_e2,11992,"[{""event"":""fullscreenenter"",""trial"":1,""time"":5065}]",NA,NA,NA,NA,NA,1,#741CD8,#D8271C,0,0,1,38,1,1113,39,0,368,0,0,experiment,NA,NA,2,0.5,0.5,4,5,213,5,NA
fcp-trial,263,1425755,0.0-224.0-0.0,voc_e2,11992,"[{""event"":""fullscreenenter"",""trial"":1,""time"":5065}]",NA,NA,NA,NA,NA,3,#D89F1C,#3386FF,10,10,0,40,0,827,39,0,365,10,1,experiment,NA,NA,0,0.1,0.9,1,0,214,5,NA
fcp-trial,264,1428330,0.0-225.0-0.0,voc_e2,11992,"[{""event"":""fullscreenenter"",""trial"":1,""time"":5065}]",NA,NA,NA,NA,NA,4,#3386FF,#D89F1C,10,10,1,40,0,685,39,0,381,10,0,experiment,NA,NA,0,0.9,0.1,0,1,215,5,NA
fcp-trial,265,1430886,0.0-226.0-0.0,voc_e2,11992,"[{""event"":""fullscreenenter"",""trial"":1,""time"":5065}]",NA,NA,NA,NA,NA,4,#741CD8,#D8271C,0,0,1,40,0,695,39,0,351,0,0,experiment,NA,NA,2,0.5,0.5,4,5,216,5,NA
fcp-trial,266,1433398,0.0-227.0-0.0,voc_e2,11992,"[{""event"":""fullscreenenter"",""trial"":1,""time"":5065}]",NA,NA,NA,NA,NA,4,#1CD855,#FA92F8,10,0,1,40,0,547,37,1,456,10,1,experiment,NA,NA,1,0.7,0.3,2,3,217,5,NA
fcp-trial,267,1437088,0.0-228.0-0.0,voc_e2,11992,"[{""event"":""fullscreenenter"",""trial"":1,""time"":5065}]",NA,NA,NA,NA,NA,2,#D89F1C,#3386FF,0,10,0,40,0,1373,37,1,806.0000000002328,0,0,experiment,NA,NA,0,0.1,0.9,1,0,218,5,NA
fcp-trial,268,1440062,0.0-229.0-0.0,voc_e2,11992,"[{""event"":""fullscreenenter"",""trial"":1,""time"":5065}]",NA,NA,NA,NA,NA,1,#3386FF,#D89F1C,10,0,1,38,1,1118,39,0,344,0,0,experiment,NA,NA,0,0.9,0.1,0,1,219,5,NA
fcp-trial,269,1442627,0.0-230.0-0.0,voc_e2,11992,"[{""event"":""fullscreenenter"",""trial"":1,""time"":5065}]",NA,NA,NA,NA,NA,1,#FA92F8,#1CD855,0,10,0,38,1,612,39,0,442.99999999976717,10,1,experiment,NA,NA,1,0.3,0.7,3,2,220,5,NA
fcp-trial,270,1445531,0.0-231.0-0.0,voc_e2,11992,"[{""event"":""fullscreenenter"",""trial"":1,""time"":5065}]",NA,NA,NA,NA,NA,6,#D8271C,#741CD8,0,10,0,40,0,887,39,0,506,10,1,experiment,NA,NA,2,0.5,0.5,5,4,221,5,NA
fcp-trial,271,1448366,0.0-232.0-0.0,voc_e2,11992,"[{""event"":""fullscreenenter"",""trial"":1,""time"":5065}]",NA,NA,NA,NA,NA,5,#D89F1C,#3386FF,0,10,0,40,0,959,39,0,364.99999999976717,10,1,experiment,NA,NA,0,0.1,0.9,1,0,222,5,NA
fcp-trial,272,1451292,0.0-233.0-0.0,voc_e2,11992,"[{""event"":""fullscreenenter"",""trial"":1,""time"":5065}]",NA,NA,NA,NA,NA,0,#3386FF,#D89F1C,10,0,1,38,1,965,37,1,451,10,1,experiment,NA,NA,0,0.9,0.1,0,1,223,5,NA
fcp-trial,273,1454751,0.0-234.0-0.0,voc_e2,11992,"[{""event"":""fullscreenenter"",""trial"":1,""time"":5065}]",NA,NA,NA,NA,NA,5,#1CD855,#FA92F8,10,0,1,40,0,1433,37,1,517.0000000002328,10,1,experiment,NA,NA,1,0.7,0.3,2,3,224,5,NA
fcp-trial,274,1457598,0.0-235.0-0.0,voc_e2,11992,"[{""event"":""fullscreenenter"",""trial"":1,""time"":5065}]",NA,NA,NA,NA,NA,3,#741CD8,#D8271C,0,0,1,40,0,996,39,0,342.00000000023283,0,0,experiment,NA,NA,2,0.5,0.5,4,5,225,5,NA
fcp-trial,275,1460231,0.0-236.0-0.0,voc_e2,11992,"[{""event"":""fullscreenenter"",""trial"":1,""time"":5065}]",NA,NA,NA,NA,NA,6,#1CD855,#FA92F8,0,10,1,40,0,722.9999999997672,39,0,380,10,0,experiment,NA,NA,1,0.7,0.3,2,3,226,6,NA
fcp-trial,276,1464062,0.0-237.0-0.0,voc_e2,11992,"[{""event"":""fullscreenenter"",""trial"":1,""time"":5065}]",NA,NA,NA,NA,NA,5,#D8271C,#741CD8,0,0,0,40,0,1689,39,0,632,0,1,experiment,NA,NA,2,0.5,0.5,5,4,227,6,NA
fcp-trial,277,1467708,0.0-238.0-0.0,voc_e2,11992,"[{""event"":""fullscreenenter"",""trial"":1,""time"":5065}]",NA,NA,NA,NA,NA,6,#D89F1C,#3386FF,0,10,0,40,0,1596,37,1,540,0,0,experiment,NA,NA,0,0.1,0.9,1,0,228,6,NA
fcp-trial,278,1471429,0.0-239.0-0.0,voc_e2,11992,"[{""event"":""fullscreenenter"",""trial"":1,""time"":5065}]",NA,NA,NA,NA,NA,2,#D8271C,#741CD8,10,0,0,38,1,1713,39,0,497,0,1,experiment,NA,NA,2,0.5,0.5,5,4,229,6,NA
fcp-trial,279,1475239,0.0-240.0-0.0,voc_e2,11992,"[{""event"":""fullscreenenter"",""trial"":1,""time"":5065}]",NA,NA,NA,NA,NA,0,#1CD855,#FA92F8,10,0,1,38,1,1925,37,1,375,10,1,experiment,NA,NA,1,0.7,0.3,2,3,230,6,NA
fcp-trial,280,1478639,0.0-241.0-0.0,voc_e2,11992,"[{""event"":""fullscreenenter"",""trial"":1,""time"":5065}]",NA,NA,NA,NA,NA,0,#741CD8,#D8271C,0,0,1,38,1,1435,37,1,455,0,1,experiment,NA,NA,2,0.5,0.5,4,5,231,6,NA
fcp-trial,281,1482144,0.0-242.0-0.0,voc_e2,11992,"[{""event"":""fullscreenenter"",""trial"":1,""time"":5065}]",NA,NA,NA,NA,NA,6,#741CD8,#D8271C,10,10,1,40,0,1631,39,0,363,10,0,experiment,NA,NA,2,0.5,0.5,4,5,232,6,NA
fcp-trial,282,1487394,0.0-243.0-0.0,voc_e2,11992,"[{""event"":""fullscreenenter"",""trial"":1,""time"":5065}]",NA,NA,NA,NA,NA,1,#D89F1C,#3386FF,0,10,0,38,1,3385,37,1,355,0,0,experiment,NA,NA,0,0.1,0.9,1,0,233,6,NA
fcp-trial,283,1491217,0.0-244.0-0.0,voc_e2,11992,"[{""event"":""fullscreenenter"",""trial"":1,""time"":5065}]",NA,NA,NA,NA,NA,4,#FA92F8,#1CD855,0,10,0,40,0,1978,39,0,334,10,1,experiment,NA,NA,1,0.3,0.7,3,2,234,6,NA
fcp-trial,284,1495526,0.0-245.0-0.0,voc_e2,11992,"[{""event"":""fullscreenenter"",""trial"":1,""time"":5065}]",NA,NA,NA,NA,NA,5,#FA92F8,#1CD855,0,10,0,40,0,2374.000000000233,37,1,425,0,0,experiment,NA,NA,1,0.3,0.7,3,2,235,6,NA
fcp-trial,285,1499840,0.0-246.0-0.0,voc_e2,11992,"[{""event"":""fullscreenenter"",""trial"":1,""time"":5065}]",NA,NA,NA,NA,NA,2,#D89F1C,#3386FF,0,10,0,38,1,2228.000000000233,37,1,568,0,0,experiment,NA,NA,0,0.1,0.9,1,0,236,6,NA
fcp-trial,286,1502914,0.0-247.0-0.0,voc_e2,11992,"[{""event"":""fullscreenenter"",""trial"":1,""time"":5065}]",NA,NA,NA,NA,NA,0,#D8271C,#741CD8,10,10,0,38,1,1114.9999999997672,39,0,448.99999999976717,10,1,experiment,NA,NA,2,0.5,0.5,5,4,237,6,NA
fcp-trial,287,1506862,0.0-248.0-0.0,voc_e2,11992,"[{""event"":""fullscreenenter"",""trial"":1,""time"":5065}]",NA,NA,NA,NA,NA,5,#741CD8,#D8271C,0,0,1,40,0,2052.000000000233,39,0,387,0,0,experiment,NA,NA,2,0.5,0.5,4,5,238,6,NA
fcp-trial,288,1510388,0.0-249.0-0.0,voc_e2,11992,"[{""event"":""fullscreenenter"",""trial"":1,""time"":5065}]",NA,NA,NA,NA,NA,1,#741CD8,#D8271C,0,10,1,38,1,1610,39,0,402.99999999976717,10,0,experiment,NA,NA,2,0.5,0.5,4,5,239,6,NA
fcp-trial,289,1513677,0.0-250.0-0.0,voc_e2,11992,"[{""event"":""fullscreenenter"",""trial"":1,""time"":5065}]",NA,NA,NA,NA,NA,0,#1CD855,#FA92F8,10,0,1,38,1,1243.9999999997672,39,0,534.0000000002328,0,0,experiment,NA,NA,1,0.7,0.3,2,3,240,6,NA
fcp-trial,290,1516419,0.0-251.0-0.0,voc_e2,11992,"[{""event"":""fullscreenenter"",""trial"":1,""time"":5065}]",NA,NA,NA,NA,NA,4,#D89F1C,#3386FF,0,10,0,40,0,900,37,1,332,0,0,experiment,NA,NA,0,0.1,0.9,1,0,241,6,NA
fcp-trial,291,1519642,0.0-252.0-0.0,voc_e2,11992,"[{""event"":""fullscreenenter"",""trial"":1,""time"":5065}]",NA,NA,NA,NA,NA,3,#741CD8,#D8271C,0,10,1,40,0,1261,37,1,448,0,1,experiment,NA,NA,2,0.5,0.5,4,5,242,6,NA
fcp-trial,292,1523606,0.0-253.0-0.0,voc_e2,11992,"[{""event"":""fullscreenenter"",""trial"":1,""time"":5065}]",NA,NA,NA,NA,NA,3,#3386FF,#D89F1C,10,0,1,38,1,2135,39,0,318,0,0,experiment,NA,NA,0,0.9,0.1,0,1,243,6,NA
fcp-trial,293,1528064,0.0-254.0-0.0,voc_e2,11992,"[{""event"":""fullscreenenter"",""trial"":1,""time"":5065}]",NA,NA,NA,NA,NA,5,#D89F1C,#3386FF,0,10,0,40,0,2481,39,0,467,10,1,experiment,NA,NA,0,0.1,0.9,1,0,244,6,NA
fcp-trial,294,1531130,0.0-255.0-0.0,voc_e2,11992,"[{""event"":""fullscreenenter"",""trial"":1,""time"":5065}]",NA,NA,NA,NA,NA,6,#1CD855,#FA92F8,0,0,1,40,0,1083,39,0,472.00000000023283,0,0,experiment,NA,NA,1,0.7,0.3,2,3,245,6,NA
fcp-trial,295,1535392,0.0-256.0-0.0,voc_e2,11992,"[{""event"":""fullscreenenter"",""trial"":1,""time"":5065}]",NA,NA,NA,NA,NA,0,#3386FF,#D89F1C,10,0,1,38,1,2411.000000000233,39,0,339.99999999976717,0,0,experiment,NA,NA,0,0.9,0.1,0,1,246,6,NA
fcp-trial,296,1540316,0.0-257.0-0.0,voc_e2,11992,"[{""event"":""fullscreenenter"",""trial"":1,""time"":5065}]",NA,NA,NA,NA,NA,2,#D8271C,#741CD8,10,0,0,38,1,3051,39,0,362,0,1,experiment,NA,NA,2,0.5,0.5,5,4,247,6,NA
fcp-trial,297,1544125,0.0-258.0-0.0,voc_e2,11992,"[{""event"":""fullscreenenter"",""trial"":1,""time"":5065}]",NA,NA,NA,NA,NA,4,#D8271C,#741CD8,10,0,0,40,0,1916,37,1,383,10,0,experiment,NA,NA,2,0.5,0.5,5,4,248,6,NA
fcp-trial,298,1549079,0.0-259.0-0.0,voc_e2,11992,"[{""event"":""fullscreenenter"",""trial"":1,""time"":5065}]",NA,NA,NA,NA,NA,2,#FA92F8,#1CD855,10,10,0,40,0,2907,37,1,538,10,0,experiment,NA,NA,1,0.3,0.7,3,2,249,6,NA
fcp-trial,299,1553684,0.0-260.0-0.0,voc_e2,11992,"[{""event"":""fullscreenenter"",""trial"":1,""time"":5065}]",NA,NA,NA,NA,NA,3,#1CD855,#FA92F8,0,0,1,40,0,2695,39,0,398,0,0,experiment,NA,NA,1,0.7,0.3,2,3,250,6,NA
fcp-trial,300,1557267,0.0-261.0-0.0,voc_e2,11992,"[{""event"":""fullscreenenter"",""trial"":1,""time"":5065}]",NA,NA,NA,NA,NA,6,#D89F1C,#3386FF,0,10,0,40,0,1559,37,1,509,0,0,experiment,NA,NA,0,0.1,0.9,1,0,251,6,NA
fcp-trial,301,1563050,0.0-262.0-0.0,voc_e2,11992,"[{""event"":""fullscreenenter"",""trial"":1,""time"":5065}]",NA,NA,NA,NA,NA,1,#FA92F8,#1CD855,10,10,0,38,1,3832,39,0,440,10,1,experiment,NA,NA,1,0.3,0.7,3,2,252,6,NA
fcp-trial,302,1567779,0.0-263.0-0.0,voc_e2,11992,"[{""event"":""fullscreenenter"",""trial"":1,""time"":5065}]",NA,NA,NA,NA,NA,1,#D8271C,#741CD8,10,10,0,38,1,2793,37,1,406,10,0,experiment,NA,NA,2,0.5,0.5,5,4,253,6,NA
fcp-trial,303,1571599,0.0-264.0-0.0,voc_e2,11992,"[{""event"":""fullscreenenter"",""trial"":1,""time"":5065}]",NA,NA,NA,NA,NA,3,#D8271C,#741CD8,0,10,0,40,0,1959,39,0,350,10,1,experiment,NA,NA,2,0.5,0.5,5,4,254,6,NA
fcp-trial,304,1575025,0.0-265.0-0.0,voc_e2,11992,"[{""event"":""fullscreenenter"",""trial"":1,""time"":5065}]",NA,NA,NA,NA,NA,3,#1CD855,#FA92F8,10,0,1,40,0,1585,39,0,329.00000000023283,0,0,experiment,NA,NA,1,0.7,0.3,2,3,255,6,NA
fcp-trial,305,1578723,0.0-266.0-0.0,voc_e2,11992,"[{""event"":""fullscreenenter"",""trial"":1,""time"":5065}]",NA,NA,NA,NA,NA,4,#FA92F8,#1CD855,0,0,0,40,0,1756,39,0,431,0,1,experiment,NA,NA,1,0.3,0.7,3,2,256,6,NA
fcp-trial,306,1582866,0.0-267.0-0.0,voc_e2,11992,"[{""event"":""fullscreenenter"",""trial"":1,""time"":5065}]",NA,NA,NA,NA,NA,2,#D89F1C,#3386FF,0,0,0,38,1,2279,39,0,352,0,1,experiment,NA,NA,0,0.1,0.9,1,0,257,6,NA
fcp-trial,307,1585506,0.0-268.0-0.0,voc_e2,11992,"[{""event"":""fullscreenenter"",""trial"":1,""time"":5065}]",NA,NA,NA,NA,NA,2,#1CD855,#FA92F8,10,0,1,38,1,862,37,1,268.00000000023283,10,1,experiment,NA,NA,1,0.7,0.3,2,3,258,6,NA
fcp-trial,308,1588716,0.0-269.0-0.0,voc_e2,11992,"[{""event"":""fullscreenenter"",""trial"":1,""time"":5065}]",NA,NA,NA,NA,NA,5,#D8271C,#741CD8,10,0,0,40,0,792.9999999997672,37,1,906,10,0,experiment,NA,NA,2,0.5,0.5,5,4,259,6,NA
fcp-trial,309,1591287,0.0-270.0-0.0,voc_e2,11992,"[{""event"":""fullscreenenter"",""trial"":1,""time"":5065}]",NA,NA,NA,NA,NA,5,#1CD855,#FA92F8,10,0,1,40,0,658.9999999997672,39,0,401,0,0,experiment,NA,NA,1,0.7,0.3,2,3,260,6,NA
fcp-trial,310,1594293,0.0-271.0-0.0,voc_e2,11992,"[{""event"":""fullscreenenter"",""trial"":1,""time"":5065}]",NA,NA,NA,NA,NA,5,#3386FF,#D89F1C,10,0,1,40,0,966,37,1,528,10,1,experiment,NA,NA,0,0.9,0.1,0,1,261,6,NA
fcp-trial,311,1596917,0.0-272.0-0.0,voc_e2,11992,"[{""event"":""fullscreenenter"",""trial"":1,""time"":5065}]",NA,NA,NA,NA,NA,2,#D8271C,#741CD8,0,10,0,40,0,699,37,1,415,0,0,experiment,NA,NA,2,0.5,0.5,5,4,262,6,NA
fcp-trial,312,1600067,0.0-273.0-0.0,voc_e2,11992,"[{""event"":""fullscreenenter"",""trial"":1,""time"":5065}]",NA,NA,NA,NA,NA,0,#1CD855,#FA92F8,10,0,1,38,1,1317,39,0,323,0,0,experiment,NA,NA,1,0.7,0.3,2,3,263,6,NA
fcp-trial,313,1603902,0.0-274.0-0.0,voc_e2,11992,"[{""event"":""fullscreenenter"",""trial"":1,""time"":5065}]",NA,NA,NA,NA,NA,4,#D89F1C,#3386FF,0,10,0,40,0,1458.0000000002328,37,1,864.0000000002328,0,0,experiment,NA,NA,0,0.1,0.9,1,0,264,6,NA
fcp-trial,314,1607447,0.0-275.0-0.0,voc_e2,11992,"[{""event"":""fullscreenenter"",""trial"":1,""time"":5065}]",NA,NA,NA,NA,NA,0,#D8271C,#741CD8,0,0,0,38,1,1592,39,0,442,0,1,experiment,NA,NA,2,0.5,0.5,5,4,265,6,NA
fcp-trial,315,1612827,0.0-276.0-0.0,voc_e2,11992,"[{""event"":""fullscreenenter"",""trial"":1,""time"":5065}]",NA,NA,NA,NA,NA,1,#D89F1C,#3386FF,0,10,0,38,1,2953,39,0,915,10,1,experiment,NA,NA,0,0.1,0.9,1,0,266,6,NA
fcp-trial,316,1618058,0.0-277.0-0.0,voc_e2,11992,"[{""event"":""fullscreenenter"",""trial"":1,""time"":5065}]",NA,NA,NA,NA,NA,4,#741CD8,#D8271C,0,10,1,40,0,3239.000000000233,39,0,480,10,0,experiment,NA,NA,2,0.5,0.5,4,5,267,6,NA
fcp-trial,317,1622051,0.0-278.0-0.0,voc_e2,11992,"[{""event"":""fullscreenenter"",""trial"":1,""time"":5065}]",NA,NA,NA,NA,NA,1,#FA92F8,#1CD855,10,10,0,38,1,2017.0000000002328,39,0,466,10,1,experiment,NA,NA,1,0.3,0.7,3,2,268,6,NA
fcp-trial,318,1626246,0.0-279.0-0.0,voc_e2,11992,"[{""event"":""fullscreenenter"",""trial"":1,""time"":5065}]",NA,NA,NA,NA,NA,6,#D8271C,#741CD8,10,0,0,40,0,2101,37,1,581,10,0,experiment,NA,NA,2,0.5,0.5,5,4,269,6,NA
fcp-trial,319,1633350,0.0-280.0-0.0,voc_e2,11992,"[{""event"":""fullscreenenter"",""trial"":1,""time"":5065}]",NA,NA,NA,NA,NA,0,#3386FF,#D89F1C,10,10,1,38,1,5031.000000000233,39,0,563,10,0,experiment,NA,NA,0,0.9,0.1,0,1,270,6,NA
fcp-trial,320,1639608,0.0-281.0-0.0,voc_e2,11992,"[{""event"":""fullscreenenter"",""trial"":1,""time"":5065}]",NA,NA,NA,NA,NA,3,#D89F1C,#3386FF,0,10,0,40,0,4341.000000000233,39,0,406.99999999976717,10,1,experiment,NA,NA,0,0.1,0.9,1,0,271,7,NA
fcp-trial,321,1643026,0.0-282.0-0.0,voc_e2,11992,"[{""event"":""fullscreenenter"",""trial"":1,""time"":5065}]",NA,NA,NA,NA,NA,6,#D89F1C,#3386FF,0,10,0,40,0,1390.0000000002328,39,0,494,10,1,experiment,NA,NA,0,0.1,0.9,1,0,272,7,NA
fcp-trial,322,1647202,0.0-283.0-0.0,voc_e2,11992,"[{""event"":""fullscreenenter"",""trial"":1,""time"":5065}]",NA,NA,NA,NA,NA,6,#1CD855,#FA92F8,10,0,1,40,0,2225,39,0,441,0,0,experiment,NA,NA,1,0.7,0.3,2,3,273,7,NA
fcp-trial,323,1650378,0.0-284.0-0.0,voc_e2,11992,"[{""event"":""fullscreenenter"",""trial"":1,""time"":5065}]",NA,NA,NA,NA,NA,3,#1CD855,#FA92F8,10,10,1,40,0,1216,39,0,448,10,0,experiment,NA,NA,1,0.7,0.3,2,3,274,7,NA
fcp-trial,324,1656887,0.0-285.0-0.0,voc_e2,11992,"[{""event"":""fullscreenenter"",""trial"":1,""time"":5065}]",NA,NA,NA,NA,NA,4,#1CD855,#FA92F8,0,0,1,40,0,4566,39,0,432,0,0,experiment,NA,NA,1,0.7,0.3,2,3,275,7,NA
fcp-trial,325,1663530,0.0-286.0-0.0,voc_e2,11992,"[{""event"":""fullscreenenter"",""trial"":1,""time"":5065}]",NA,NA,NA,NA,NA,3,#3386FF,#D89F1C,0,10,1,40,0,4650.000000000233,37,1,482.99999999976717,0,1,experiment,NA,NA,0,0.9,0.1,0,1,276,7,NA
fcp-trial,326,1669784,0.0-287.0-0.0,voc_e2,11992,"[{""event"":""fullscreenenter"",""trial"":1,""time"":5065}]",NA,NA,NA,NA,NA,1,#741CD8,#D8271C,10,10,1,38,1,4393,39,0,351,10,0,experiment,NA,NA,2,0.5,0.5,4,5,277,7,NA
fcp-trial,327,1673324,0.0-288.0-0.0,voc_e2,11992,"[{""event"":""fullscreenenter"",""trial"":1,""time"":5065}]",NA,NA,NA,NA,NA,2,#741CD8,#D8271C,10,10,1,40,0,1352,37,1,676,10,1,experiment,NA,NA,2,0.5,0.5,4,5,278,7,NA
fcp-trial,328,1676320,0.0-289.0-0.0,voc_e2,11992,"[{""event"":""fullscreenenter"",""trial"":1,""time"":5065}]",NA,NA,NA,NA,NA,3,#741CD8,#D8271C,10,0,1,40,0,1133,39,0,353,0,0,experiment,NA,NA,2,0.5,0.5,4,5,279,7,NA
fcp-trial,329,1679109,0.0-290.0-0.0,voc_e2,11992,"[{""event"":""fullscreenenter"",""trial"":1,""time"":5065}]",NA,NA,NA,NA,NA,1,#FA92F8,#1CD855,10,0,0,38,1,958,39,0,319,0,1,experiment,NA,NA,1,0.3,0.7,3,2,280,7,NA
fcp-trial,330,1682097,0.0-291.0-0.0,voc_e2,11992,"[{""event"":""fullscreenenter"",""trial"":1,""time"":5065}]",NA,NA,NA,NA,NA,2,#3386FF,#D89F1C,10,0,1,38,1,752,39,0,728,0,0,experiment,NA,NA,0,0.9,0.1,0,1,281,7,NA
fcp-trial,331,1684654,0.0-292.0-0.0,voc_e2,11992,"[{""event"":""fullscreenenter"",""trial"":1,""time"":5065}]",NA,NA,NA,NA,NA,5,#3386FF,#D89F1C,10,0,1,40,0,698,39,0,349.00000000023283,0,0,experiment,NA,NA,0,0.9,0.1,0,1,282,7,NA
fcp-trial,332,1687178,0.0-293.0-0.0,voc_e2,11992,"[{""event"":""fullscreenenter"",""trial"":1,""time"":5065}]",NA,NA,NA,NA,NA,6,#D8271C,#741CD8,0,0,0,40,0,656,39,0,352.99999999976717,0,1,experiment,NA,NA,2,0.5,0.5,5,4,283,7,NA
fcp-trial,333,1689636,0.0-294.0-0.0,voc_e2,11992,"[{""event"":""fullscreenenter"",""trial"":1,""time"":5065}]",NA,NA,NA,NA,NA,5,#FA92F8,#1CD855,0,0,0,40,0,653,39,0,294,0,1,experiment,NA,NA,1,0.3,0.7,3,2,284,7,NA
fcp-trial,334,1692430,0.0-295.0-0.0,voc_e2,11992,"[{""event"":""fullscreenenter"",""trial"":1,""time"":5065}]",NA,NA,NA,NA,NA,0,#D8271C,#741CD8,0,0,0,38,1,1000,39,0,284,0,1,experiment,NA,NA,2,0.5,0.5,5,4,285,7,NA
fcp-trial,335,1695133,0.0-296.0-0.0,voc_e2,11992,"[{""event"":""fullscreenenter"",""trial"":1,""time"":5065}]",NA,NA,NA,NA,NA,5,#741CD8,#D8271C,10,10,1,40,0,746,37,1,445,10,1,experiment,NA,NA,2,0.5,0.5,4,5,286,7,NA
fcp-trial,336,1697956,0.0-297.0-0.0,voc_e2,11992,"[{""event"":""fullscreenenter"",""trial"":1,""time"":5065}]",NA,NA,NA,NA,NA,6,#3386FF,#D89F1C,10,0,1,40,0,684,39,0,631,0,0,experiment,NA,NA,0,0.9,0.1,0,1,287,7,NA
fcp-trial,337,1700753,0.0-298.0-0.0,voc_e2,11992,"[{""event"":""fullscreenenter"",""trial"":1,""time"":5065}]",NA,NA,NA,NA,NA,1,#3386FF,#D89F1C,10,0,1,38,1,982,37,1,304,10,1,experiment,NA,NA,0,0.9,0.1,0,1,288,7,NA
fcp-trial,338,1703357,0.0-299.0-0.0,voc_e2,11992,"[{""event"":""fullscreenenter"",""trial"":1,""time"":5065}]",NA,NA,NA,NA,NA,2,#FA92F8,#1CD855,10,10,0,38,1,764,37,1,328.99999999976717,10,0,experiment,NA,NA,1,0.3,0.7,3,2,289,7,NA
fcp-trial,339,1705912,0.0-300.0-0.0,voc_e2,11992,"[{""event"":""fullscreenenter"",""trial"":1,""time"":5065}]",NA,NA,NA,NA,NA,6,#FA92F8,#1CD855,10,0,0,40,0,728,37,1,314.99999999976717,10,0,experiment,NA,NA,1,0.3,0.7,3,2,290,7,NA
fcp-trial,340,1708802,0.0-301.0-0.0,voc_e2,11992,"[{""event"":""fullscreenenter"",""trial"":1,""time"":5065}]",NA,NA,NA,NA,NA,4,#D8271C,#741CD8,0,10,0,40,0,934,39,0,446,10,1,experiment,NA,NA,2,0.5,0.5,5,4,291,7,NA
fcp-trial,341,1711710,0.0-302.0-0.0,voc_e2,11992,"[{""event"":""fullscreenenter"",""trial"":1,""time"":5065}]",NA,NA,NA,NA,NA,4,#D89F1C,#3386FF,0,10,0,40,0,982,37,1,416,0,0,experiment,NA,NA,0,0.1,0.9,1,0,292,7,NA
fcp-trial,342,1714371,0.0-303.0-0.0,voc_e2,11992,"[{""event"":""fullscreenenter"",""trial"":1,""time"":5065}]",NA,NA,NA,NA,NA,0,#FA92F8,#1CD855,0,10,0,38,1,824,37,1,327,0,0,experiment,NA,NA,1,0.3,0.7,3,2,293,7,NA
fcp-trial,343,1717348,0.0-304.0-0.0,voc_e2,11992,"[{""event"":""fullscreenenter"",""trial"":1,""time"":5065}]",NA,NA,NA,NA,NA,0,#3386FF,#D89F1C,10,0,1,38,1,879,39,0,587.9999999997672,0,0,experiment,NA,NA,0,0.9,0.1,0,1,294,7,NA
fcp-trial,344,1720272,0.0-305.0-0.0,voc_e2,11992,"[{""event"":""fullscreenenter"",""trial"":1,""time"":5065}]",NA,NA,NA,NA,NA,2,#D8271C,#741CD8,0,0,0,40,0,855,39,0,557,0,1,experiment,NA,NA,2,0.5,0.5,5,4,295,7,NA
fcp-trial,345,1723409,0.0-306.0-0.0,voc_e2,11992,"[{""event"":""fullscreenenter"",""trial"":1,""time"":5065}]",NA,NA,NA,NA,NA,6,#3386FF,#D89F1C,0,0,1,40,0,826,37,1,800,0,1,experiment,NA,NA,0,0.9,0.1,0,1,296,7,NA
fcp-trial,346,1726017,0.0-307.0-0.0,voc_e2,11992,"[{""event"":""fullscreenenter"",""trial"":1,""time"":5065}]",NA,NA,NA,NA,NA,4,#FA92F8,#1CD855,0,10,0,40,0,700,37,1,399,0,0,experiment,NA,NA,1,0.3,0.7,3,2,297,7,NA
fcp-trial,347,1728539,0.0-308.0-0.0,voc_e2,11992,"[{""event"":""fullscreenenter"",""trial"":1,""time"":5065}]",NA,NA,NA,NA,NA,4,#3386FF,#D89F1C,10,0,1,40,0,714,39,0,298.99999999976717,0,0,experiment,NA,NA,0,0.9,0.1,0,1,298,7,NA
fcp-trial,348,1731432,0.0-309.0-0.0,voc_e2,11992,"[{""event"":""fullscreenenter"",""trial"":1,""time"":5065}]",NA,NA,NA,NA,NA,0,#3386FF,#D89F1C,10,0,1,38,1,987.9999999997672,39,0,395,0,0,experiment,NA,NA,0,0.9,0.1,0,1,299,7,NA
fcp-trial,349,1733975,0.0-310.0-0.0,voc_e2,11992,"[{""event"":""fullscreenenter"",""trial"":1,""time"":5065}]",NA,NA,NA,NA,NA,6,#741CD8,#D8271C,10,10,1,40,0,664,37,1,368.99999999976717,10,1,experiment,NA,NA,2,0.5,0.5,4,5,300,7,NA
fcp-trial,350,1736482,0.0-311.0-0.0,voc_e2,11992,"[{""event"":""fullscreenenter"",""trial"":1,""time"":5065}]",NA,NA,NA,NA,NA,6,#1CD855,#FA92F8,10,10,1,40,0,693,39,0,302.00000000023283,10,0,experiment,NA,NA,1,0.7,0.3,2,3,301,7,NA
fcp-trial,351,1739622,0.0-312.0-0.0,voc_e2,11992,"[{""event"":""fullscreenenter"",""trial"":1,""time"":5065}]",NA,NA,NA,NA,NA,1,#741CD8,#D8271C,10,0,1,38,1,961.0000000002328,39,0,668,0,0,experiment,NA,NA,2,0.5,0.5,4,5,302,7,NA
fcp-trial,352,1742663,0.0-313.0-0.0,voc_e2,11992,"[{""event"":""fullscreenenter"",""trial"":1,""time"":5065}]",NA,NA,NA,NA,NA,2,#D89F1C,#3386FF,0,10,0,38,1,965.0000000002328,37,1,566.9999999997672,0,0,experiment,NA,NA,0,0.1,0.9,1,0,303,7,NA
fcp-trial,353,1745290,0.0-314.0-0.0,voc_e2,11992,"[{""event"":""fullscreenenter"",""trial"":1,""time"":5065}]",NA,NA,NA,NA,NA,5,#D8271C,#741CD8,10,10,0,40,0,693.9999999997672,37,1,422,10,0,experiment,NA,NA,2,0.5,0.5,5,4,304,7,NA
fcp-trial,354,1747939,0.0-315.0-0.0,voc_e2,11992,"[{""event"":""fullscreenenter"",""trial"":1,""time"":5065}]",NA,NA,NA,NA,NA,3,#D89F1C,#3386FF,10,10,0,40,0,808,39,0,381,10,1,experiment,NA,NA,0,0.1,0.9,1,0,305,7,NA
fcp-trial,355,1750645,0.0-316.0-0.0,voc_e2,11992,"[{""event"":""fullscreenenter"",""trial"":1,""time"":5065}]",NA,NA,NA,NA,NA,3,#1CD855,#FA92F8,0,0,1,40,0,813,39,0,380.99999999976717,0,0,experiment,NA,NA,1,0.7,0.3,2,3,306,7,NA
fcp-trial,356,1753465,0.0-317.0-0.0,voc_e2,11992,"[{""event"":""fullscreenenter"",""trial"":1,""time"":5065}]",NA,NA,NA,NA,NA,5,#1CD855,#FA92F8,10,0,1,40,0,764,39,0,546,0,0,experiment,NA,NA,1,0.7,0.3,2,3,307,7,NA
fcp-trial,357,1756485,0.0-318.0-0.0,voc_e2,11992,"[{""event"":""fullscreenenter"",""trial"":1,""time"":5065}]",NA,NA,NA,NA,NA,1,#3386FF,#D89F1C,0,0,1,38,1,819.0000000002328,37,1,690.9999999997672,0,1,experiment,NA,NA,0,0.9,0.1,0,1,308,7,NA
fcp-trial,358,1759937,0.0-319.0-0.0,voc_e2,11992,"[{""event"":""fullscreenenter"",""trial"":1,""time"":5065}]",NA,NA,NA,NA,NA,0,#D8271C,#741CD8,10,10,0,38,1,1361.9999999997672,39,0,579,10,1,experiment,NA,NA,2,0.5,0.5,5,4,309,7,NA
fcp-trial,359,1763115,0.0-320.0-0.0,voc_e2,11992,"[{""event"":""fullscreenenter"",""trial"":1,""time"":5065}]",NA,NA,NA,NA,NA,2,#FA92F8,#1CD855,0,10,0,38,1,1370,39,0,300,10,1,experiment,NA,NA,1,0.3,0.7,3,2,310,7,NA
fcp-trial,360,1766356,0.0-321.0-0.0,voc_e2,11992,"[{""event"":""fullscreenenter"",""trial"":1,""time"":5065}]",NA,NA,NA,NA,NA,0,#FA92F8,#1CD855,0,10,0,38,1,1341,39,0,384,10,1,experiment,NA,NA,1,0.3,0.7,3,2,311,7,NA
fcp-trial,361,1770165,0.0-322.0-0.0,voc_e2,11992,"[{""event"":""fullscreenenter"",""trial"":1,""time"":5065}]",NA,NA,NA,NA,NA,5,#D89F1C,#3386FF,0,10,0,40,0,1909.0000000002328,37,1,384,0,0,experiment,NA,NA,0,0.1,0.9,1,0,312,7,NA
fcp-trial,362,1775261,0.0-323.0-0.0,voc_e2,11992,"[{""event"":""fullscreenenter"",""trial"":1,""time"":5065}]",NA,NA,NA,NA,NA,1,#FA92F8,#1CD855,0,0,0,38,1,2772,39,0,814.9999999997672,0,1,experiment,NA,NA,1,0.3,0.7,3,2,313,7,NA
fcp-trial,363,1777868,0.0-324.0-0.0,voc_e2,11992,"[{""event"":""fullscreenenter"",""trial"":1,""time"":5065}]",NA,NA,NA,NA,NA,3,#D8271C,#741CD8,0,10,0,40,0,629.0000000002328,39,0,465,10,1,experiment,NA,NA,2,0.5,0.5,5,4,314,7,NA
fcp-trial,364,1780492,0.0-325.0-0.0,voc_e2,11992,"[{""event"":""fullscreenenter"",""trial"":1,""time"":5065}]",NA,NA,NA,NA,NA,4,#D8271C,#741CD8,0,10,0,40,0,782.0000000002328,39,0,333,10,1,experiment,NA,NA,2,0.5,0.5,5,4,315,7,NA
audio-instructions,365,1789666,0.0-326.0,voc_e2,11992,"[{""event"":""fullscreenenter"",""trial"":1,""time"":5065}]",NA,3536.999999999767,static/audio/finished.wav,NA,0,NA,NA,NA,NA,NA,NA,NA,NA,NA,NA,NA,NA,NA,NA,NA,NA,NA,NA,NA,NA,NA,NA,NA,NA,NA
audio-instructions,366,1801499,0.0-327.0-0.0,voc_e2,11992,"[{""event"":""fullscreenenter"",""trial"":1,""time"":5065}]",NA,994,static/audio/explicit1.wav,NA,0,NA,NA,NA,NA,NA,NA,NA,NA,NA,NA,NA,NA,NA,NA,NA,NA,NA,NA,NA,NA,NA,NA,NA,NA,NA
audio-instructions,367,1809955,0.0-327.0-1.0,voc_e2,11992,"[{""event"":""fullscreenenter"",""trial"":1,""time"":5065}]",NA,861,static/audio/explicit2.wav,NA,0,NA,NA,NA,NA,NA,NA,NA,NA,NA,NA,NA,NA,NA,NA,NA,NA,NA,NA,NA,NA,NA,NA,NA,NA,NA
image-slider-response,368,1816906,0.0-328.0,voc_e2,11992,"[{""event"":""fullscreenenter"",""trial"":1,""time"":5065}]",NA,6946,static/img/machines/machine4.png,NA,NA,NA,NA,NA,NA,NA,NA,NA,NA,NA,NA,NA,NA,NA,NA,explicit,NA,NA,NA,NA,NA,NA,NA,NA,NA,6
image-slider-response,369,1820649,0.0-329.0,voc_e2,11992,"[{""event"":""fullscreenenter"",""trial"":1,""time"":5065}]",NA,3742.000000000233,static/img/machines/machine5.png,NA,NA,NA,NA,NA,NA,NA,NA,NA,NA,NA,NA,NA,NA,NA,NA,explicit,NA,NA,NA,NA,NA,NA,NA,NA,NA,4
image-slider-response,370,1824141,0.0-330.0,voc_e2,11992,"[{""event"":""fullscreenenter"",""trial"":1,""time"":5065}]",NA,3490,static/img/machines/machine2.png,NA,NA,NA,NA,NA,NA,NA,NA,NA,NA,NA,NA,NA,NA,NA,NA,explicit,NA,NA,NA,NA,NA,NA,NA,NA,NA,7
image-slider-response,371,1830325,0.0-331.0,voc_e2,11992,"[{""event"":""fullscreenenter"",""trial"":1,""time"":5065}]",NA,6181,static/img/machines/machine6.png,NA,NA,NA,NA,NA,NA,NA,NA,NA,NA,NA,NA,NA,NA,NA,NA,explicit,NA,NA,NA,NA,NA,NA,NA,NA,NA,4
image-slider-response,372,1833182,0.0-332.0,voc_e2,11992,"[{""event"":""fullscreenenter"",""trial"":1,""time"":5065}]",NA,2856,static/img/machines/machine1.png,NA,NA,NA,NA,NA,NA,NA,NA,NA,NA,NA,NA,NA,NA,NA,NA,explicit,NA,NA,NA,NA,NA,NA,NA,NA,NA,7
image-slider-response,373,1836207,0.0-333.0,voc_e2,11992,"[{""event"":""fullscreenenter"",""trial"":1,""time"":5065}]",NA,3024,static/img/machines/machine3.png,NA,NA,NA,NA,NA,NA,NA,NA,NA,NA,NA,NA,NA,NA,NA,NA,explicit,NA,NA,NA,NA,NA,NA,NA,NA,NA,2
