trial_type,trial_index,time_elapsed,internal_node_id,task_version,subject_id,interactions,success,rt,stimulus,key_press,button_pressed,offer,arcade_color_L,arcade_color_R,arcade_outcome_L,arcade_outcome_R,correct,stage_1_key,stage_1_choice,stage_1_rt,stage_2_key,stage_2_choice,stage_2_rt,stage_3_outcome,accuracy,phase,responses,num_errors,context,reward_prob_L,reward_prob_R,arcade_id_L,arcade_id_R,trial,block,response
pavlovia,0,13,0.0-0.0,voc_e2,11840,[],NA,NA,NA,NA,NA,NA,NA,NA,NA,NA,NA,NA,NA,NA,NA,NA,NA,NA,NA,NA,NA,NA,NA,NA,NA,NA,NA,NA,NA,NA
fullscreen,1,3294,0.0-1.0,voc_e2,11840,"[{""event"":""fullscreenenter"",""trial"":1,""time"":2338}]",TRUE,NA,NA,NA,NA,NA,NA,NA,NA,NA,NA,NA,NA,NA,NA,NA,NA,NA,NA,NA,NA,NA,NA,NA,NA,NA,NA,NA,NA,NA
audio-keyboard-response,2,5207,0.0-2.0,voc_e2,11840,"[{""event"":""fullscreenenter"",""trial"":1,""time"":2338}]",NA,1880,static/audio/beep_loop.wav,32,NA,NA,NA,NA,NA,NA,NA,NA,NA,NA,NA,NA,NA,NA,NA,NA,NA,NA,NA,NA,NA,NA,NA,NA,NA,NA
audio-test,3,6809,0.0-3.0,voc_e2,11840,"[{""event"":""fullscreenenter"",""trial"":1,""time"":2338}]",NA,NA,static/audio/turtle.wav,NA,3,NA,NA,NA,NA,NA,NA,NA,NA,NA,NA,NA,NA,NA,NA,NA,NA,NA,NA,NA,NA,NA,NA,NA,NA,NA
audio-test,4,8961,0.0-4.0,voc_e2,11840,"[{""event"":""fullscreenenter"",""trial"":1,""time"":2338}]",NA,NA,static/audio/shark.wav,NA,2,NA,NA,NA,NA,NA,NA,NA,NA,NA,NA,NA,NA,NA,NA,NA,NA,NA,NA,NA,NA,NA,NA,NA,NA,NA
audio-instructions,5,15721,0.0-5.0-0.0,voc_e2,11840,"[{""event"":""fullscreenenter"",""trial"":1,""time"":2338}]",NA,966.7000002861024,static/audio/instructions1.wav,NA,0,NA,NA,NA,NA,NA,NA,NA,NA,NA,NA,NA,NA,NA,NA,NA,NA,NA,NA,NA,NA,NA,NA,NA,NA,NA
audio-instructions,6,23483,0.0-5.0-1.0,voc_e2,11840,"[{""event"":""fullscreenenter"",""trial"":1,""time"":2338}]",NA,1027.8000001907349,static/audio/instructions2.wav,NA,0,NA,NA,NA,NA,NA,NA,NA,NA,NA,NA,NA,NA,NA,NA,NA,NA,NA,NA,NA,NA,NA,NA,NA,NA,NA
audio-instructions,7,30451,0.0-5.0-2.0,voc_e2,11840,"[{""event"":""fullscreenenter"",""trial"":1,""time"":2338}]",NA,1163.6000003814695,static/audio/instructions3.wav,NA,0,NA,NA,NA,NA,NA,NA,NA,NA,NA,NA,NA,NA,NA,NA,NA,NA,NA,NA,NA,NA,NA,NA,NA,NA,NA
audio-instructions,8,44658,0.0-5.0-3.0,voc_e2,11840,"[{""event"":""fullscreenenter"",""trial"":1,""time"":2338}]",NA,981.9000000953674,static/audio/instructions4.wav,NA,0,NA,NA,NA,NA,NA,NA,NA,NA,NA,NA,NA,NA,NA,NA,NA,NA,NA,NA,NA,NA,NA,NA,NA,NA,NA
audio-instructions,9,55019,0.0-5.0-4.0,voc_e2,11840,"[{""event"":""fullscreenenter"",""trial"":1,""time"":2338}]",NA,972,static/audio/instructions5.wav,NA,0,NA,NA,NA,NA,NA,NA,NA,NA,NA,NA,NA,NA,NA,NA,NA,NA,NA,NA,NA,NA,NA,NA,NA,NA,NA
fcp-practice,10,57579,0.0-5.0-5.0-0.0,voc_e2,11840,"[{""event"":""fullscreenenter"",""trial"":1,""time"":2338}]",NA,NA,NA,NA,NA,NA,#EDC948,#46d3c8,10,0,1,null,null,null,37,1,1045.4000000953674,10,1,practice,NA,NA,NA,NA,NA,NA,NA,NA,NA,NA
fcp-practice,11,59783,0.0-5.0-5.0-1.0,voc_e2,11840,"[{""event"":""fullscreenenter"",""trial"":1,""time"":2338}]",NA,NA,NA,NA,NA,NA,#EDC948,#46d3c8,10,0,1,null,null,null,37,1,689.6999998092651,10,1,practice,NA,NA,NA,NA,NA,NA,NA,NA,NA,NA
fcp-practice,12,61618,0.0-5.0-5.0-2.0,voc_e2,11840,"[{""event"":""fullscreenenter"",""trial"":1,""time"":2338}]",NA,NA,NA,NA,NA,NA,#EDC948,#46d3c8,0,10,1,null,null,null,37,1,326.90000009536743,0,1,practice,NA,NA,NA,NA,NA,NA,NA,NA,NA,NA
fcp-practice,13,63518,0.0-5.0-5.0-3.0,voc_e2,11840,"[{""event"":""fullscreenenter"",""trial"":1,""time"":2338}]",NA,NA,NA,NA,NA,NA,#EDC948,#46d3c8,10,0,1,null,null,null,37,1,383.90000009536743,10,1,practice,NA,NA,NA,NA,NA,NA,NA,NA,NA,NA
fcp-practice,14,65351,0.0-5.0-5.0-4.0,voc_e2,11840,"[{""event"":""fullscreenenter"",""trial"":1,""time"":2338}]",NA,NA,NA,NA,NA,NA,#EDC948,#46d3c8,10,0,1,null,null,null,37,1,317.2999997138977,10,1,practice,NA,NA,NA,NA,NA,NA,NA,NA,NA,NA
audio-instructions,15,84691,0.0-5.0-6.0,voc_e2,11840,"[{""event"":""fullscreenenter"",""trial"":1,""time"":2338}]",NA,1334,static/audio/instructions6.wav,NA,0,NA,NA,NA,NA,NA,NA,NA,NA,NA,NA,NA,NA,NA,NA,NA,NA,NA,NA,NA,NA,NA,NA,NA,NA,NA
audio-instructions,16,105867,0.0-5.0-7.0,voc_e2,11840,"[{""event"":""fullscreenenter"",""trial"":1,""time"":2338}]",NA,1979.8000001907349,static/audio/instructions7.wav,NA,0,NA,NA,NA,NA,NA,NA,NA,NA,NA,NA,NA,NA,NA,NA,NA,NA,NA,NA,NA,NA,NA,NA,NA,NA,NA
audio-instructions,17,119059,0.0-5.0-8.0,voc_e2,11840,"[{""event"":""fullscreenenter"",""trial"":1,""time"":2338}]",NA,3712.5,static/audio/instructions8.wav,NA,0,NA,NA,NA,NA,NA,NA,NA,NA,NA,NA,NA,NA,NA,NA,NA,NA,NA,NA,NA,NA,NA,NA,NA,NA,NA
fcp-comprehension,18,125139,0.0-5.0-9.0,voc_e2,11840,"[{""event"":""fullscreenenter"",""trial"":1,""time"":2338}]",NA,6078.299999713898,NA,NA,NA,NA,NA,NA,NA,NA,NA,NA,NA,NA,NA,NA,NA,NA,NA,NA,"true,true",0,NA,NA,NA,NA,NA,NA,NA,NA
audio-instructions,19,133091,0.0-6.0-0.0,voc_e2,11840,"[{""event"":""fullscreenenter"",""trial"":1,""time"":2338}]",NA,2403.400000095367,static/audio/instructions9.wav,NA,0,NA,NA,NA,NA,NA,NA,NA,NA,NA,NA,NA,NA,NA,NA,NA,NA,NA,NA,NA,NA,NA,NA,NA,NA,NA
audio-instructions,20,147204,0.0-6.0-1.0,voc_e2,11840,"[{""event"":""fullscreenenter"",""trial"":1,""time"":2338}]",NA,1996,static/audio/instructions10.wav,NA,0,NA,NA,NA,NA,NA,NA,NA,NA,NA,NA,NA,NA,NA,NA,NA,NA,NA,NA,NA,NA,NA,NA,NA,NA,NA
fcp-trial,21,151841,0.0-6.0-2.0,voc_e2,11840,"[{""event"":""fullscreenenter"",""trial"":1,""time"":2338}]",NA,NA,NA,NA,NA,0,#EDC948,#46d3c8,10,10,1,38,1,852.4000000953674,37,1,2251.199999809265,10,1,practice,NA,NA,NA,NA,NA,NA,NA,NA,NA,NA
audio-instructions,22,164161,0.0-6.0-3.0,voc_e2,11840,"[{""event"":""fullscreenenter"",""trial"":1,""time"":2338}]",NA,1314.5,static/audio/instructions11.wav,NA,0,NA,NA,NA,NA,NA,NA,NA,NA,NA,NA,NA,NA,NA,NA,NA,NA,NA,NA,NA,NA,NA,NA,NA,NA,NA
fcp-trial,23,168042,0.0-6.0-4.0,voc_e2,11840,"[{""event"":""fullscreenenter"",""trial"":1,""time"":2338}]",NA,NA,NA,NA,NA,6,#EDC948,#46d3c8,10,10,1,40,0,685.1999998092651,39,0,1678.6999998092651,10,0,practice,NA,NA,NA,NA,NA,NA,NA,NA,NA,NA
audio-instructions,24,187982,0.0-6.0-5.0,voc_e2,11840,"[{""event"":""fullscreenenter"",""trial"":1,""time"":2338}]",NA,1254.9000000953674,static/audio/instructions12.wav,NA,0,NA,NA,NA,NA,NA,NA,NA,NA,NA,NA,NA,NA,NA,NA,NA,NA,NA,NA,NA,NA,NA,NA,NA,NA,NA
audio-instructions,25,196390,0.0-6.0-6.0,voc_e2,11840,"[{""event"":""fullscreenenter"",""trial"":1,""time"":2338}]",NA,813.2999997138977,static/audio/instructions13.wav,NA,0,NA,NA,NA,NA,NA,NA,NA,NA,NA,NA,NA,NA,NA,NA,NA,NA,NA,NA,NA,NA,NA,NA,NA,NA,NA
audio-instructions,26,205498,0.0-6.0-7.0,voc_e2,11840,"[{""event"":""fullscreenenter"",""trial"":1,""time"":2338}]",NA,660.2999997138977,static/audio/instructions14.wav,NA,0,NA,NA,NA,NA,NA,NA,NA,NA,NA,NA,NA,NA,NA,NA,NA,NA,NA,NA,NA,NA,NA,NA,NA,NA,NA
audio-instructions,27,214251,0.0-7.0-0.0,voc_e2,11840,"[{""event"":""fullscreenenter"",""trial"":1,""time"":2338}]",NA,1834,static/audio/instructions15.wav,NA,0,NA,NA,NA,NA,NA,NA,NA,NA,NA,NA,NA,NA,NA,NA,NA,NA,NA,NA,NA,NA,NA,NA,NA,NA,NA
audio-instructions,28,221791,0.0-7.0-1.0,voc_e2,11840,"[{""event"":""fullscreenenter"",""trial"":1,""time"":2338}]",NA,713.5,static/audio/instructions16.wav,NA,0,NA,NA,NA,NA,NA,NA,NA,NA,NA,NA,NA,NA,NA,NA,NA,NA,NA,NA,NA,NA,NA,NA,NA,NA,NA
audio-instructions,29,230113,0.0-7.0-2.0,voc_e2,11840,"[{""event"":""fullscreenenter"",""trial"":1,""time"":2338}]",NA,646.8000001907349,static/audio/instructions17.wav,NA,0,NA,NA,NA,NA,NA,NA,NA,NA,NA,NA,NA,NA,NA,NA,NA,NA,NA,NA,NA,NA,NA,NA,NA,NA,NA
audio-instructions,30,238417,0.0-7.0-3.0,voc_e2,11840,"[{""event"":""fullscreenenter"",""trial"":1,""time"":2338}]",NA,539.6000003814697,static/audio/instructions18.wav,NA,0,NA,NA,NA,NA,NA,NA,NA,NA,NA,NA,NA,NA,NA,NA,NA,NA,NA,NA,NA,NA,NA,NA,NA,NA,NA
audio-instructions,31,245609,0.0-7.0-4.0,voc_e2,11840,"[{""event"":""fullscreenenter"",""trial"":1,""time"":2338}]",NA,441.7999997138977,static/audio/instructions19.wav,NA,0,NA,NA,NA,NA,NA,NA,NA,NA,NA,NA,NA,NA,NA,NA,NA,NA,NA,NA,NA,NA,NA,NA,NA,NA,NA
fcp-comprehension,32,255798,0.0-7.0-5.0,voc_e2,11840,"[{""event"":""fullscreenenter"",""trial"":1,""time"":2338}]",NA,10187,NA,NA,NA,NA,NA,NA,NA,NA,NA,NA,NA,NA,NA,NA,NA,NA,NA,NA,"false,false,false,true",0,NA,NA,NA,NA,NA,NA,NA,NA
audio-instructions,33,267649,0.0-8.0,voc_e2,11840,"[{""event"":""fullscreenenter"",""trial"":1,""time"":2338}]",NA,2631.2999997138977,static/audio/ready.wav,NA,0,NA,NA,NA,NA,NA,NA,NA,NA,NA,NA,NA,NA,NA,NA,NA,NA,NA,NA,NA,NA,NA,NA,NA,NA,NA
fcp-trial,34,273415,0.0-9.0-0.0,voc_e2,11840,"[{""event"":""fullscreenenter"",""trial"":1,""time"":2338}]",NA,NA,NA,NA,NA,3,#3386FF,#D89F1C,10,0,1,40,0,3058.5,37,1,1183.7999997138977,10,1,experiment,NA,NA,0,0.9,0.1,0,1,1,1,NA
fcp-trial,35,277089,0.0-10.0-0.0,voc_e2,11840,"[{""event"":""fullscreenenter"",""trial"":1,""time"":2338}]",NA,NA,NA,NA,NA,4,#D8271C,#741CD8,0,10,0,40,0,1350.2000002861023,39,0,803.5,10,1,experiment,NA,NA,1,0.3,0.7,3,2,2,1,NA
fcp-trial,36,281112,0.0-11.0-0.0,voc_e2,11840,"[{""event"":""fullscreenenter"",""trial"":1,""time"":2338}]",NA,NA,NA,NA,NA,0,#FA92F8,#1CD855,0,0,0,38,1,1652,39,0,850.0999999046326,0,1,experiment,NA,NA,2,0.5,0.5,5,4,3,1,NA
fcp-trial,37,284414,0.0-12.0-0.0,voc_e2,11840,"[{""event"":""fullscreenenter"",""trial"":1,""time"":2338}]",NA,NA,NA,NA,NA,1,#1CD855,#FA92F8,0,0,1,40,0,1166.1999998092651,37,1,611.3000001907349,0,1,experiment,NA,NA,2,0.5,0.5,4,5,4,1,NA
fcp-trial,38,287914,0.0-13.0-0.0,voc_e2,11840,"[{""event"":""fullscreenenter"",""trial"":1,""time"":2338}]",NA,NA,NA,NA,NA,2,#3386FF,#D89F1C,10,0,1,40,0,1354.5,39,0,628.6000003814697,0,0,experiment,NA,NA,0,0.9,0.1,0,1,5,1,NA
fcp-trial,39,291862,0.0-14.0-0.0,voc_e2,11840,"[{""event"":""fullscreenenter"",""trial"":1,""time"":2338}]",NA,NA,NA,NA,NA,1,#741CD8,#D8271C,10,0,1,40,0,1794.7000002861023,37,1,641.3000001907349,10,1,experiment,NA,NA,1,0.7,0.3,2,3,6,1,NA
fcp-trial,40,295182,0.0-15.0-0.0,voc_e2,11840,"[{""event"":""fullscreenenter"",""trial"":1,""time"":2338}]",NA,NA,NA,NA,NA,6,#3386FF,#D89F1C,0,0,1,40,0,1184.0999999046326,37,1,617,0,1,experiment,NA,NA,0,0.9,0.1,0,1,7,1,NA
fcp-trial,41,298735,0.0-16.0-0.0,voc_e2,11840,"[{""event"":""fullscreenenter"",""trial"":1,""time"":2338}]",NA,NA,NA,NA,NA,3,#741CD8,#D8271C,10,0,1,40,0,1501.4000000953674,39,0,544.6999998092651,0,0,experiment,NA,NA,1,0.7,0.3,2,3,8,1,NA
fcp-trial,42,302123,0.0-17.0-0.0,voc_e2,11840,"[{""event"":""fullscreenenter"",""trial"":1,""time"":2338}]",NA,NA,NA,NA,NA,5,#1CD855,#FA92F8,10,10,1,40,0,1325.2999997138977,37,1,552.0999999046326,10,1,experiment,NA,NA,2,0.5,0.5,4,5,9,1,NA
fcp-trial,43,306309,0.0-18.0-0.0,voc_e2,11840,"[{""event"":""fullscreenenter"",""trial"":1,""time"":2338}]",NA,NA,NA,NA,NA,0,#3386FF,#D89F1C,10,0,1,38,1,2150.9000000953674,37,1,530.4000000953674,10,1,experiment,NA,NA,0,0.9,0.1,0,1,10,1,NA
fcp-trial,44,310453,0.0-19.0-0.0,voc_e2,11840,"[{""event"":""fullscreenenter"",""trial"":1,""time"":2338}]",NA,NA,NA,NA,NA,6,#741CD8,#D8271C,0,0,1,40,0,1842.0999999046326,37,1,794.2999997138977,0,1,experiment,NA,NA,1,0.7,0.3,2,3,11,1,NA
fcp-trial,45,314291,0.0-20.0-0.0,voc_e2,11840,"[{""event"":""fullscreenenter"",""trial"":1,""time"":2338}]",NA,NA,NA,NA,NA,1,#3386FF,#D89F1C,0,0,1,40,0,1708.4000000953674,37,1,613.9000000953674,0,1,experiment,NA,NA,0,0.9,0.1,0,1,12,1,NA
fcp-trial,46,318300,0.0-21.0-0.0,voc_e2,11840,"[{""event"":""fullscreenenter"",""trial"":1,""time"":2338}]",NA,NA,NA,NA,NA,5,#D8271C,#741CD8,0,0,0,40,0,1886.5999999046326,37,1,613.0999999046326,0,0,experiment,NA,NA,1,0.3,0.7,3,2,13,1,NA
fcp-trial,47,321451,0.0-22.0-0.0,voc_e2,11840,"[{""event"":""fullscreenenter"",""trial"":1,""time"":2338}]",NA,NA,NA,NA,NA,4,#FA92F8,#1CD855,10,0,0,40,0,1039.6999998092651,37,1,603.7000002861023,10,0,experiment,NA,NA,2,0.5,0.5,5,4,14,1,NA
fcp-trial,48,324491,0.0-23.0-0.0,voc_e2,11840,"[{""event"":""fullscreenenter"",""trial"":1,""time"":2338}]",NA,NA,NA,NA,NA,4,#D89F1C,#3386FF,0,10,0,40,0,960.7999997138977,37,1,572.0999999046326,0,0,experiment,NA,NA,0,0.1,0.9,1,0,15,1,NA
fcp-trial,49,328020,0.0-24.0-0.0,voc_e2,11840,"[{""event"":""fullscreenenter"",""trial"":1,""time"":2338}]",NA,NA,NA,NA,NA,2,#FA92F8,#1CD855,0,10,0,38,1,1618.5,37,1,398.90000009536743,0,0,experiment,NA,NA,2,0.5,0.5,5,4,16,1,NA
fcp-trial,50,332102,0.0-25.0-0.0,voc_e2,11840,"[{""event"":""fullscreenenter"",""trial"":1,""time"":2338}]",NA,NA,NA,NA,NA,5,#D89F1C,#3386FF,0,10,0,38,1,1917.2000002861023,39,0,655.6000003814697,10,1,experiment,NA,NA,0,0.1,0.9,1,0,17,1,NA
fcp-trial,51,335890,0.0-26.0-0.0,voc_e2,11840,"[{""event"":""fullscreenenter"",""trial"":1,""time"":2338}]",NA,NA,NA,NA,NA,0,#741CD8,#D8271C,10,0,1,38,1,1455,37,1,822.5,10,1,experiment,NA,NA,1,0.7,0.3,2,3,18,1,NA
fcp-trial,52,339898,0.0-27.0-0.0,voc_e2,11840,"[{""event"":""fullscreenenter"",""trial"":1,""time"":2338}]",NA,NA,NA,NA,NA,3,#FA92F8,#1CD855,10,10,0,38,1,1823.7999997138977,37,1,675.3000001907349,10,0,experiment,NA,NA,2,0.5,0.5,5,4,19,1,NA
fcp-trial,53,342683,0.0-28.0-0.0,voc_e2,11840,"[{""event"":""fullscreenenter"",""trial"":1,""time"":2338}]",NA,NA,NA,NA,NA,2,#D8271C,#741CD8,0,0,0,38,1,894.7000002861023,39,0,380.09999990463257,0,1,experiment,NA,NA,1,0.3,0.7,3,2,20,1,NA
fcp-trial,54,345330,0.0-29.0-0.0,voc_e2,11840,"[{""event"":""fullscreenenter"",""trial"":1,""time"":2338}]",NA,NA,NA,NA,NA,6,#1CD855,#FA92F8,10,0,1,38,1,768.1000003814697,39,0,367.2999997138977,0,0,experiment,NA,NA,2,0.5,0.5,4,5,21,1,NA
fcp-trial,55,348219,0.0-30.0-0.0,voc_e2,11840,"[{""event"":""fullscreenenter"",""trial"":1,""time"":2338}]",NA,NA,NA,NA,NA,0,#1CD855,#FA92F8,0,0,1,38,1,1029.5,39,0,349.2999997138977,0,0,experiment,NA,NA,2,0.5,0.5,4,5,22,1,NA
fcp-trial,56,351725,0.0-31.0-0.0,voc_e2,11840,"[{""event"":""fullscreenenter"",""trial"":1,""time"":2338}]",NA,NA,NA,NA,NA,3,#3386FF,#D89F1C,0,0,1,38,1,1745.0999999046326,37,1,250,0,1,experiment,NA,NA,0,0.9,0.1,0,1,23,1,NA
fcp-trial,57,355084,0.0-32.0-0.0,voc_e2,11840,"[{""event"":""fullscreenenter"",""trial"":1,""time"":2338}]",NA,NA,NA,NA,NA,2,#FA92F8,#1CD855,0,0,0,38,1,1441.5999999046326,39,0,409,0,1,experiment,NA,NA,2,0.5,0.5,5,4,24,1,NA
fcp-trial,58,357964,0.0-33.0-0.0,voc_e2,11840,"[{""event"":""fullscreenenter"",""trial"":1,""time"":2338}]",NA,NA,NA,NA,NA,3,#741CD8,#D8271C,10,0,1,40,0,869.5,39,0,504.80000019073486,0,0,experiment,NA,NA,1,0.7,0.3,2,3,25,1,NA
fcp-trial,59,361262,0.0-34.0-0.0,voc_e2,11840,"[{""event"":""fullscreenenter"",""trial"":1,""time"":2338}]",NA,NA,NA,NA,NA,4,#3386FF,#D89F1C,10,0,1,40,0,1100.0999999046326,39,0,686.3000001907349,0,0,experiment,NA,NA,0,0.9,0.1,0,1,26,1,NA
fcp-trial,60,364175,0.0-35.0-0.0,voc_e2,11840,"[{""event"":""fullscreenenter"",""trial"":1,""time"":2338}]",NA,NA,NA,NA,NA,2,#3386FF,#D89F1C,10,10,1,40,0,970.0999999046326,39,0,433.90000009536743,10,0,experiment,NA,NA,0,0.9,0.1,0,1,27,1,NA
fcp-trial,61,367323,0.0-36.0-0.0,voc_e2,11840,"[{""event"":""fullscreenenter"",""trial"":1,""time"":2338}]",NA,NA,NA,NA,NA,6,#1CD855,#FA92F8,10,10,1,40,0,1075.7000002861023,37,1,560.5999999046326,10,1,experiment,NA,NA,2,0.5,0.5,4,5,28,1,NA
fcp-trial,62,371145,0.0-37.0-0.0,voc_e2,11840,"[{""event"":""fullscreenenter"",""trial"":1,""time"":2338}]",NA,NA,NA,NA,NA,0,#D8271C,#741CD8,10,0,0,38,1,1435.3000001907349,37,1,879.1999998092651,10,0,experiment,NA,NA,1,0.3,0.7,3,2,29,1,NA
fcp-trial,63,374386,0.0-38.0-0.0,voc_e2,11840,"[{""event"":""fullscreenenter"",""trial"":1,""time"":2338}]",NA,NA,NA,NA,NA,5,#D89F1C,#3386FF,0,10,0,40,0,1284,39,0,450.90000009536743,10,1,experiment,NA,NA,0,0.1,0.9,1,0,30,1,NA
fcp-trial,64,377582,0.0-39.0-0.0,voc_e2,11840,"[{""event"":""fullscreenenter"",""trial"":1,""time"":2338}]",NA,NA,NA,NA,NA,0,#3386FF,#D89F1C,10,0,1,38,1,1095.2999997138977,37,1,588,10,1,experiment,NA,NA,0,0.9,0.1,0,1,31,1,NA
fcp-trial,65,380883,0.0-40.0-0.0,voc_e2,11840,"[{""event"":""fullscreenenter"",""trial"":1,""time"":2338}]",NA,NA,NA,NA,NA,5,#1CD855,#FA92F8,0,10,1,38,1,1475.2000002861023,37,1,319.40000009536743,0,1,experiment,NA,NA,2,0.5,0.5,4,5,32,1,NA
fcp-trial,66,384139,0.0-41.0-0.0,voc_e2,11840,"[{""event"":""fullscreenenter"",""trial"":1,""time"":2338}]",NA,NA,NA,NA,NA,1,#D8271C,#741CD8,0,10,0,38,1,1305.5,39,0,439.40000009536743,10,1,experiment,NA,NA,1,0.3,0.7,3,2,33,1,NA
fcp-trial,67,387216,0.0-42.0-0.0,voc_e2,11840,"[{""event"":""fullscreenenter"",""trial"":1,""time"":2338}]",NA,NA,NA,NA,NA,4,#1CD855,#FA92F8,0,0,1,38,1,1082.5,37,1,485.5,0,1,experiment,NA,NA,2,0.5,0.5,4,5,34,1,NA
fcp-trial,68,390344,0.0-43.0-0.0,voc_e2,11840,"[{""event"":""fullscreenenter"",""trial"":1,""time"":2338}]",NA,NA,NA,NA,NA,1,#3386FF,#D89F1C,10,10,1,38,1,921.2000002861023,37,1,699,10,1,experiment,NA,NA,0,0.9,0.1,0,1,35,1,NA
fcp-trial,69,393750,0.0-44.0-0.0,voc_e2,11840,"[{""event"":""fullscreenenter"",""trial"":1,""time"":2338}]",NA,NA,NA,NA,NA,1,#FA92F8,#1CD855,0,10,0,38,1,1368.4000000953674,39,0,529.5999999046326,10,1,experiment,NA,NA,2,0.5,0.5,5,4,36,1,NA
fcp-trial,70,396854,0.0-45.0-0.0,voc_e2,11840,"[{""event"":""fullscreenenter"",""trial"":1,""time"":2338}]",NA,NA,NA,NA,NA,2,#741CD8,#D8271C,0,10,1,38,1,1043.5999999046326,37,1,554.4000000953674,0,1,experiment,NA,NA,1,0.7,0.3,2,3,37,1,NA
fcp-trial,71,399633,0.0-46.0-0.0,voc_e2,11840,"[{""event"":""fullscreenenter"",""trial"":1,""time"":2338}]",NA,NA,NA,NA,NA,6,#3386FF,#D89F1C,10,0,1,40,0,816,37,1,453.7999997138977,10,1,experiment,NA,NA,0,0.9,0.1,0,1,38,1,NA
fcp-trial,72,402245,0.0-47.0-0.0,voc_e2,11840,"[{""event"":""fullscreenenter"",""trial"":1,""time"":2338}]",NA,NA,NA,NA,NA,5,#D8271C,#741CD8,0,10,0,38,1,846.1999998092651,39,0,257.40000009536743,10,1,experiment,NA,NA,1,0.3,0.7,3,2,39,1,NA
fcp-trial,73,405275,0.0-48.0-0.0,voc_e2,11840,"[{""event"":""fullscreenenter"",""trial"":1,""time"":2338}]",NA,NA,NA,NA,NA,4,#D8271C,#741CD8,0,0,0,38,1,897.0999999046326,39,0,624.1999998092651,0,1,experiment,NA,NA,1,0.3,0.7,3,2,40,1,NA
fcp-trial,74,409861,0.0-49.0-0.0,voc_e2,11840,"[{""event"":""fullscreenenter"",""trial"":1,""time"":2338}]",NA,NA,NA,NA,NA,3,#FA92F8,#1CD855,0,0,0,40,0,2312.199999809265,39,0,765.8000001907349,0,1,experiment,NA,NA,2,0.5,0.5,5,4,41,1,NA
fcp-trial,75,413747,0.0-50.0-0.0,voc_e2,11840,"[{""event"":""fullscreenenter"",""trial"":1,""time"":2338}]",NA,NA,NA,NA,NA,6,#741CD8,#D8271C,10,10,1,38,1,1775.0999999046326,37,1,604.3999996185303,10,1,experiment,NA,NA,1,0.7,0.3,2,3,42,1,NA
fcp-trial,76,416986,0.0-51.0-0.0,voc_e2,11840,"[{""event"":""fullscreenenter"",""trial"":1,""time"":2338}]",NA,NA,NA,NA,NA,0,#D8271C,#741CD8,10,0,0,38,1,1393.1999998092651,39,0,339.40000009536743,0,1,experiment,NA,NA,1,0.3,0.7,3,2,43,1,NA
fcp-trial,77,420237,0.0-52.0-0.0,voc_e2,11840,"[{""event"":""fullscreenenter"",""trial"":1,""time"":2338}]",NA,NA,NA,NA,NA,3,#741CD8,#D8271C,10,0,1,38,1,1414.5999999046326,37,1,328.19999980926514,10,1,experiment,NA,NA,1,0.7,0.3,2,3,44,1,NA
fcp-trial,78,422675,0.0-53.0-0.0,voc_e2,11840,"[{""event"":""fullscreenenter"",""trial"":1,""time"":2338}]",NA,NA,NA,NA,NA,5,#741CD8,#D8271C,0,0,1,38,1,608,37,1,317.30000019073486,0,1,experiment,NA,NA,1,0.7,0.3,2,3,45,1,NA
fcp-trial,79,425070,0.0-54.0-0.0,voc_e2,11840,"[{""event"":""fullscreenenter"",""trial"":1,""time"":2338}]",NA,NA,NA,NA,NA,4,#D89F1C,#3386FF,0,10,0,38,1,574.0999999046326,39,0,314.40000009536743,10,1,experiment,NA,NA,0,0.1,0.9,1,0,46,2,NA
fcp-trial,80,428139,0.0-55.0-0.0,voc_e2,11840,"[{""event"":""fullscreenenter"",""trial"":1,""time"":2338}]",NA,NA,NA,NA,NA,6,#1CD855,#FA92F8,0,10,1,40,0,1063.8000001907349,39,0,489.5,10,0,experiment,NA,NA,2,0.5,0.5,4,5,47,2,NA
fcp-trial,81,431871,0.0-56.0-0.0,voc_e2,11840,"[{""event"":""fullscreenenter"",""trial"":1,""time"":2338}]",NA,NA,NA,NA,NA,2,#1CD855,#FA92F8,10,0,1,40,0,1661.4000000953674,39,0,564.3999996185303,0,0,experiment,NA,NA,2,0.5,0.5,4,5,48,2,NA
fcp-trial,82,434958,0.0-57.0-0.0,voc_e2,11840,"[{""event"":""fullscreenenter"",""trial"":1,""time"":2338}]",NA,NA,NA,NA,NA,2,#741CD8,#D8271C,0,10,1,38,1,1228.1000003814697,37,1,351.5,0,1,experiment,NA,NA,1,0.7,0.3,2,3,49,2,NA
fcp-trial,83,437924,0.0-58.0-0.0,voc_e2,11840,"[{""event"":""fullscreenenter"",""trial"":1,""time"":2338}]",NA,NA,NA,NA,NA,4,#FA92F8,#1CD855,10,0,0,40,0,1012.1999998092651,39,0,443.6000003814697,0,1,experiment,NA,NA,2,0.5,0.5,5,4,50,2,NA
fcp-trial,84,440833,0.0-59.0-0.0,voc_e2,11840,"[{""event"":""fullscreenenter"",""trial"":1,""time"":2338}]",NA,NA,NA,NA,NA,3,#3386FF,#D89F1C,10,0,1,38,1,1136,37,1,253.90000009536743,10,1,experiment,NA,NA,0,0.9,0.1,0,1,51,2,NA
fcp-trial,85,444006,0.0-60.0-0.0,voc_e2,11840,"[{""event"":""fullscreenenter"",""trial"":1,""time"":2338}]",NA,NA,NA,NA,NA,1,#D89F1C,#3386FF,0,0,0,40,0,964.9000000953674,37,1,697.0999999046326,0,0,experiment,NA,NA,0,0.1,0.9,1,0,52,2,NA
fcp-trial,86,447336,0.0-61.0-0.0,voc_e2,11840,"[{""event"":""fullscreenenter"",""trial"":1,""time"":2338}]",NA,NA,NA,NA,NA,1,#D8271C,#741CD8,0,0,0,40,0,1229.3999996185303,37,1,595.4000000953674,0,0,experiment,NA,NA,1,0.3,0.7,3,2,53,2,NA
fcp-trial,87,451787,0.0-62.0-0.0,voc_e2,11840,"[{""event"":""fullscreenenter"",""trial"":1,""time"":2338}]",NA,NA,NA,NA,NA,5,#1CD855,#FA92F8,10,10,1,40,0,2356.0999999046326,37,1,580.0999999046326,10,1,experiment,NA,NA,2,0.5,0.5,4,5,54,2,NA
fcp-trial,88,454417,0.0-63.0-0.0,voc_e2,11840,"[{""event"":""fullscreenenter"",""trial"":1,""time"":2338}]",NA,NA,NA,NA,NA,0,#D89F1C,#3386FF,0,10,0,38,1,837,39,0,286.2000002861023,10,1,experiment,NA,NA,0,0.1,0.9,1,0,55,2,NA
fcp-trial,89,457164,0.0-64.0-0.0,voc_e2,11840,"[{""event"":""fullscreenenter"",""trial"":1,""time"":2338}]",NA,NA,NA,NA,NA,4,#D8271C,#741CD8,0,10,0,38,1,943.4000000953674,39,0,280.19999980926514,10,1,experiment,NA,NA,1,0.3,0.7,3,2,56,2,NA
fcp-trial,90,460040,0.0-65.0-0.0,voc_e2,11840,"[{""event"":""fullscreenenter"",""trial"":1,""time"":2338}]",NA,NA,NA,NA,NA,6,#3386FF,#D89F1C,10,0,1,38,1,641.7000002861023,37,1,721.5999999046326,10,1,experiment,NA,NA,0,0.9,0.1,0,1,57,2,NA
fcp-trial,91,463445,0.0-66.0-0.0,voc_e2,11840,"[{""event"":""fullscreenenter"",""trial"":1,""time"":2338}]",NA,NA,NA,NA,NA,3,#1CD855,#FA92F8,0,0,1,38,1,1354.6999998092651,37,1,541.7000002861023,0,1,experiment,NA,NA,2,0.5,0.5,4,5,58,2,NA
fcp-trial,92,466265,0.0-67.0-0.0,voc_e2,11840,"[{""event"":""fullscreenenter"",""trial"":1,""time"":2338}]",NA,NA,NA,NA,NA,2,#D89F1C,#3386FF,0,10,0,38,1,783,39,0,525.7999997138977,10,1,experiment,NA,NA,0,0.1,0.9,1,0,59,2,NA
fcp-trial,93,469072,0.0-68.0-0.0,voc_e2,11840,"[{""event"":""fullscreenenter"",""trial"":1,""time"":2338}]",NA,NA,NA,NA,NA,6,#741CD8,#D8271C,0,10,1,38,1,1036.5,37,1,260.5,0,1,experiment,NA,NA,1,0.7,0.3,2,3,60,2,NA
fcp-trial,94,473010,0.0-69.0-0.0,voc_e2,11840,"[{""event"":""fullscreenenter"",""trial"":1,""time"":2338}]",NA,NA,NA,NA,NA,1,#FA92F8,#1CD855,0,10,0,40,0,1790.0999999046326,37,1,637,0,0,experiment,NA,NA,2,0.5,0.5,5,4,61,2,NA
fcp-trial,95,476032,0.0-70.0-0.0,voc_e2,11840,"[{""event"":""fullscreenenter"",""trial"":1,""time"":2338}]",NA,NA,NA,NA,NA,5,#D89F1C,#3386FF,0,10,0,38,1,879.3000001907349,39,0,630.9000000953674,10,1,experiment,NA,NA,0,0.1,0.9,1,0,62,2,NA
fcp-trial,96,479396,0.0-71.0-0.0,voc_e2,11840,"[{""event"":""fullscreenenter"",""trial"":1,""time"":2338}]",NA,NA,NA,NA,NA,0,#1CD855,#FA92F8,10,0,1,40,0,1291.2999997138977,37,1,564.4000000953674,10,1,experiment,NA,NA,2,0.5,0.5,4,5,63,2,NA
fcp-trial,97,482064,0.0-72.0-0.0,voc_e2,11840,"[{""event"":""fullscreenenter"",""trial"":1,""time"":2338}]",NA,NA,NA,NA,NA,1,#3386FF,#D89F1C,10,0,1,38,1,858.0999999046326,37,1,302.09999990463257,10,1,experiment,NA,NA,0,0.9,0.1,0,1,64,2,NA
fcp-trial,98,484656,0.0-73.0-0.0,voc_e2,11840,"[{""event"":""fullscreenenter"",""trial"":1,""time"":2338}]",NA,NA,NA,NA,NA,3,#741CD8,#D8271C,0,0,1,38,1,787.3999996185303,37,1,294.69999980926514,0,1,experiment,NA,NA,1,0.7,0.3,2,3,65,2,NA
fcp-trial,99,487767,0.0-74.0-0.0,voc_e2,11840,"[{""event"":""fullscreenenter"",""trial"":1,""time"":2338}]",NA,NA,NA,NA,NA,3,#3386FF,#D89F1C,10,0,1,38,1,1048,37,1,556.6999998092651,10,1,experiment,NA,NA,0,0.9,0.1,0,1,66,2,NA
fcp-trial,100,490262,0.0-75.0-0.0,voc_e2,11840,"[{""event"":""fullscreenenter"",""trial"":1,""time"":2338}]",NA,NA,NA,NA,NA,0,#D8271C,#741CD8,0,10,0,38,1,637.2000002861023,39,0,350.2999997138977,10,1,experiment,NA,NA,1,0.3,0.7,3,2,67,2,NA
fcp-trial,101,494053,0.0-76.0-0.0,voc_e2,11840,"[{""event"":""fullscreenenter"",""trial"":1,""time"":2338}]",NA,NA,NA,NA,NA,0,#FA92F8,#1CD855,0,10,0,38,1,1930,39,0,348.8999996185303,10,1,experiment,NA,NA,2,0.5,0.5,5,4,68,2,NA
fcp-trial,102,496941,0.0-77.0-0.0,voc_e2,11840,"[{""event"":""fullscreenenter"",""trial"":1,""time"":2338}]",NA,NA,NA,NA,NA,6,#FA92F8,#1CD855,10,10,0,38,1,756.8000001907349,39,0,622.0999999046326,10,1,experiment,NA,NA,2,0.5,0.5,5,4,69,2,NA
fcp-trial,103,499771,0.0-78.0-0.0,voc_e2,11840,"[{""event"":""fullscreenenter"",""trial"":1,""time"":2338}]",NA,NA,NA,NA,NA,6,#741CD8,#D8271C,10,0,1,38,1,826.6000003814697,37,1,494.90000009536743,10,1,experiment,NA,NA,1,0.7,0.3,2,3,70,2,NA
fcp-trial,104,502549,0.0-79.0-0.0,voc_e2,11840,"[{""event"":""fullscreenenter"",""trial"":1,""time"":2338}]",NA,NA,NA,NA,NA,6,#3386FF,#D89F1C,10,0,1,38,1,665.5,37,1,599.8999996185303,10,1,experiment,NA,NA,0,0.9,0.1,0,1,71,2,NA
fcp-trial,105,505409,0.0-80.0-0.0,voc_e2,11840,"[{""event"":""fullscreenenter"",""trial"":1,""time"":2338}]",NA,NA,NA,NA,NA,1,#1CD855,#FA92F8,10,0,1,38,1,1009.6999998092651,37,1,339.7000002861023,10,1,experiment,NA,NA,2,0.5,0.5,4,5,72,2,NA
fcp-trial,106,508134,0.0-81.0-0.0,voc_e2,11840,"[{""event"":""fullscreenenter"",""trial"":1,""time"":2338}]",NA,NA,NA,NA,NA,2,#3386FF,#D89F1C,10,0,1,38,1,730.8000001907349,37,1,484.30000019073486,10,1,experiment,NA,NA,0,0.9,0.1,0,1,73,2,NA
fcp-trial,107,510870,0.0-82.0-0.0,voc_e2,11840,"[{""event"":""fullscreenenter"",""trial"":1,""time"":2338}]",NA,NA,NA,NA,NA,5,#D8271C,#741CD8,10,10,0,38,1,742.4000000953674,39,0,484.5,10,1,experiment,NA,NA,1,0.3,0.7,3,2,74,2,NA
fcp-trial,108,513343,0.0-83.0-0.0,voc_e2,11840,"[{""event"":""fullscreenenter"",""trial"":1,""time"":2338}]",NA,NA,NA,NA,NA,5,#1CD855,#FA92F8,10,10,1,38,1,552.4000000953674,37,1,415.6000003814697,10,1,experiment,NA,NA,2,0.5,0.5,4,5,75,2,NA
fcp-trial,109,515667,0.0-84.0-0.0,voc_e2,11840,"[{""event"":""fullscreenenter"",""trial"":1,""time"":2338}]",NA,NA,NA,NA,NA,4,#D8271C,#741CD8,0,10,0,38,1,444,39,0,373.19999980926514,10,1,experiment,NA,NA,1,0.3,0.7,3,2,76,2,NA
fcp-trial,110,518228,0.0-85.0-0.0,voc_e2,11840,"[{""event"":""fullscreenenter"",""trial"":1,""time"":2338}]",NA,NA,NA,NA,NA,1,#741CD8,#D8271C,0,0,1,38,1,502.2000002861023,37,1,550.6999998092651,0,1,experiment,NA,NA,1,0.7,0.3,2,3,77,2,NA
fcp-trial,111,520593,0.0-86.0-0.0,voc_e2,11840,"[{""event"":""fullscreenenter"",""trial"":1,""time"":2338}]",NA,NA,NA,NA,NA,5,#D89F1C,#3386FF,0,10,0,38,1,455.19999980926514,39,0,399.8999996185303,10,1,experiment,NA,NA,0,0.1,0.9,1,0,78,2,NA
fcp-trial,112,523124,0.0-87.0-0.0,voc_e2,11840,"[{""event"":""fullscreenenter"",""trial"":1,""time"":2338}]",NA,NA,NA,NA,NA,4,#FA92F8,#1CD855,0,0,0,38,1,654.3000001907349,39,0,353.2000002861023,0,1,experiment,NA,NA,2,0.5,0.5,5,4,79,2,NA
fcp-trial,113,525520,0.0-88.0-0.0,voc_e2,11840,"[{""event"":""fullscreenenter"",""trial"":1,""time"":2338}]",NA,NA,NA,NA,NA,0,#3386FF,#D89F1C,10,0,1,38,1,547.5999999046326,37,1,338,10,1,experiment,NA,NA,0,0.9,0.1,0,1,80,2,NA
fcp-trial,114,528190,0.0-89.0-0.0,voc_e2,11840,"[{""event"":""fullscreenenter"",""trial"":1,""time"":2338}]",NA,NA,NA,NA,NA,2,#FA92F8,#1CD855,10,0,0,38,1,551.5,39,0,611.5,0,1,experiment,NA,NA,2,0.5,0.5,5,4,81,2,NA
fcp-trial,115,530818,0.0-90.0-0.0,voc_e2,11840,"[{""event"":""fullscreenenter"",""trial"":1,""time"":2338}]",NA,NA,NA,NA,NA,2,#741CD8,#D8271C,0,10,1,38,1,717.6000003814697,37,1,401.80000019073486,0,1,experiment,NA,NA,1,0.7,0.3,2,3,82,2,NA
fcp-trial,116,534208,0.0-91.0-0.0,voc_e2,11840,"[{""event"":""fullscreenenter"",""trial"":1,""time"":2338}]",NA,NA,NA,NA,NA,4,#D89F1C,#3386FF,0,10,0,38,1,1257.5999999046326,39,0,626.3000001907349,10,1,experiment,NA,NA,0,0.1,0.9,1,0,83,2,NA
fcp-trial,117,536740,0.0-92.0-0.0,voc_e2,11840,"[{""event"":""fullscreenenter"",""trial"":1,""time"":2338}]",NA,NA,NA,NA,NA,3,#FA92F8,#1CD855,10,10,0,38,1,643.4000000953674,39,0,380.40000009536743,10,1,experiment,NA,NA,2,0.5,0.5,5,4,84,2,NA
fcp-trial,118,539210,0.0-93.0-0.0,voc_e2,11840,"[{""event"":""fullscreenenter"",""trial"":1,""time"":2338}]",NA,NA,NA,NA,NA,0,#741CD8,#D8271C,10,0,1,38,1,545.8999996185303,37,1,416.30000019073486,10,1,experiment,NA,NA,1,0.7,0.3,2,3,85,2,NA
fcp-trial,119,541505,0.0-94.0-0.0,voc_e2,11840,"[{""event"":""fullscreenenter"",""trial"":1,""time"":2338}]",NA,NA,NA,NA,NA,0,#3386FF,#D89F1C,0,0,1,38,1,429.59999990463257,37,1,357.8999996185303,0,1,experiment,NA,NA,0,0.9,0.1,0,1,86,2,NA
fcp-trial,120,543999,0.0-95.0-0.0,voc_e2,11840,"[{""event"":""fullscreenenter"",""trial"":1,""time"":2338}]",NA,NA,NA,NA,NA,2,#FA92F8,#1CD855,10,10,0,38,1,508.69999980926514,39,0,478.5,10,1,experiment,NA,NA,2,0.5,0.5,5,4,87,2,NA
fcp-trial,121,546310,0.0-96.0-0.0,voc_e2,11840,"[{""event"":""fullscreenenter"",""trial"":1,""time"":2338}]",NA,NA,NA,NA,NA,0,#1CD855,#FA92F8,0,10,1,38,1,460.19999980926514,37,1,344.5,0,1,experiment,NA,NA,2,0.5,0.5,4,5,88,2,NA
fcp-trial,122,548514,0.0-97.0-0.0,voc_e2,11840,"[{""event"":""fullscreenenter"",""trial"":1,""time"":2338}]",NA,NA,NA,NA,NA,2,#D8271C,#741CD8,0,0,0,38,1,380.7000002861023,39,0,315.2999997138977,0,1,experiment,NA,NA,1,0.3,0.7,3,2,89,2,NA
fcp-trial,123,551285,0.0-98.0-0.0,voc_e2,11840,"[{""event"":""fullscreenenter"",""trial"":1,""time"":2338}]",NA,NA,NA,NA,NA,5,#D89F1C,#3386FF,0,10,0,38,1,665.6999998092651,39,0,597.7000002861023,10,1,experiment,NA,NA,0,0.1,0.9,1,0,90,2,NA
fcp-trial,124,553935,0.0-99.0-0.0,voc_e2,11840,"[{""event"":""fullscreenenter"",""trial"":1,""time"":2338}]",NA,NA,NA,NA,NA,3,#741CD8,#D8271C,10,0,1,38,1,728.4000000953674,37,1,413.80000019073486,10,1,experiment,NA,NA,1,0.7,0.3,2,3,91,3,NA
fcp-trial,125,556471,0.0-100.0-0.0,voc_e2,11840,"[{""event"":""fullscreenenter"",""trial"":1,""time"":2338}]",NA,NA,NA,NA,NA,5,#1CD855,#FA92F8,10,0,1,38,1,575.3999996185303,37,1,450.8999996185303,10,1,experiment,NA,NA,2,0.5,0.5,4,5,92,3,NA
fcp-trial,126,559192,0.0-101.0-0.0,voc_e2,11840,"[{""event"":""fullscreenenter"",""trial"":1,""time"":2338}]",NA,NA,NA,NA,NA,5,#D8271C,#741CD8,0,10,0,38,1,595.7000002861023,39,0,617.2999997138977,10,1,experiment,NA,NA,1,0.3,0.7,3,2,93,3,NA
fcp-trial,127,561514,0.0-102.0-0.0,voc_e2,11840,"[{""event"":""fullscreenenter"",""trial"":1,""time"":2338}]",NA,NA,NA,NA,NA,1,#D89F1C,#3386FF,0,10,0,38,1,534.5999999046326,39,0,276.40000009536743,10,1,experiment,NA,NA,0,0.1,0.9,1,0,94,3,NA
fcp-trial,128,564142,0.0-103.0-0.0,voc_e2,11840,"[{""event"":""fullscreenenter"",""trial"":1,""time"":2338}]",NA,NA,NA,NA,NA,6,#D89F1C,#3386FF,0,10,0,38,1,585.5,39,0,533.5,10,1,experiment,NA,NA,0,0.1,0.9,1,0,95,3,NA
fcp-trial,129,566500,0.0-104.0-0.0,voc_e2,11840,"[{""event"":""fullscreenenter"",""trial"":1,""time"":2338}]",NA,NA,NA,NA,NA,1,#FA92F8,#1CD855,10,0,0,38,1,535.0999999046326,39,0,314.59999990463257,0,1,experiment,NA,NA,2,0.5,0.5,5,4,96,3,NA
fcp-trial,130,568988,0.0-105.0-0.0,voc_e2,11840,"[{""event"":""fullscreenenter"",""trial"":1,""time"":2338}]",NA,NA,NA,NA,NA,3,#D89F1C,#3386FF,0,10,0,38,1,528.2999997138977,39,0,445.3999996185303,10,1,experiment,NA,NA,0,0.1,0.9,1,0,97,3,NA
fcp-trial,131,571698,0.0-106.0-0.0,voc_e2,11840,"[{""event"":""fullscreenenter"",""trial"":1,""time"":2338}]",NA,NA,NA,NA,NA,1,#D8271C,#741CD8,10,0,0,38,1,830.5999999046326,39,0,373.7000002861023,0,1,experiment,NA,NA,1,0.3,0.7,3,2,98,3,NA
fcp-trial,132,574800,0.0-107.0-0.0,voc_e2,11840,"[{""event"":""fullscreenenter"",""trial"":1,""time"":2338}]",NA,NA,NA,NA,NA,4,#1CD855,#FA92F8,10,0,1,40,0,1108.8000001907349,37,1,487.80000019073486,10,1,experiment,NA,NA,2,0.5,0.5,4,5,99,3,NA
fcp-trial,133,578048,0.0-108.0-0.0,voc_e2,11840,"[{""event"":""fullscreenenter"",""trial"":1,""time"":2338}]",NA,NA,NA,NA,NA,4,#741CD8,#D8271C,10,0,1,40,0,1102.2000002861023,39,0,633.8000001907349,0,0,experiment,NA,NA,1,0.7,0.3,2,3,100,3,NA
fcp-trial,134,581763,0.0-109.0-0.0,voc_e2,11840,"[{""event"":""fullscreenenter"",""trial"":1,""time"":2338}]",NA,NA,NA,NA,NA,3,#FA92F8,#1CD855,10,0,0,40,0,1158.5999999046326,37,1,1044.2000002861023,10,0,experiment,NA,NA,2,0.5,0.5,5,4,101,3,NA
fcp-trial,135,584335,0.0-110.0-0.0,voc_e2,11840,"[{""event"":""fullscreenenter"",""trial"":1,""time"":2338}]",NA,NA,NA,NA,NA,2,#3386FF,#D89F1C,10,0,1,38,1,673.3000001907349,37,1,391.80000019073486,10,1,experiment,NA,NA,0,0.9,0.1,0,1,102,3,NA
fcp-trial,136,587061,0.0-111.0-0.0,voc_e2,11840,"[{""event"":""fullscreenenter"",""trial"":1,""time"":2338}]",NA,NA,NA,NA,NA,6,#D8271C,#741CD8,0,10,0,40,0,719.3000001907349,37,1,498.69999980926514,0,0,experiment,NA,NA,1,0.3,0.7,3,2,103,3,NA
fcp-trial,137,590513,0.0-112.0-0.0,voc_e2,11840,"[{""event"":""fullscreenenter"",""trial"":1,""time"":2338}]",NA,NA,NA,NA,NA,4,#3386FF,#D89F1C,0,0,1,38,1,1340.5999999046326,37,1,605.2000002861023,0,1,experiment,NA,NA,0,0.9,0.1,0,1,104,3,NA
fcp-trial,138,593590,0.0-113.0-0.0,voc_e2,11840,"[{""event"":""fullscreenenter"",""trial"":1,""time"":2338}]",NA,NA,NA,NA,NA,6,#1CD855,#FA92F8,10,0,1,40,0,1133,39,0,432.5,0,0,experiment,NA,NA,2,0.5,0.5,4,5,105,3,NA
audio-instructions,139,598960,0.0-114.0,voc_e2,11840,"[{""event"":""fullscreenenter"",""trial"":1,""time"":2338}]",NA,923.5,static/audio/pause.wav,NA,0,NA,NA,NA,NA,NA,NA,NA,NA,NA,NA,NA,NA,NA,NA,NA,NA,NA,NA,NA,NA,NA,NA,NA,NA,NA
fcp-trial,140,602134,0.0-115.0-0.0,voc_e2,11840,"[{""event"":""fullscreenenter"",""trial"":1,""time"":2338}]",NA,NA,NA,NA,NA,5,#FA92F8,#1CD855,10,0,0,40,0,1144,37,1,522.4000000953674,10,0,experiment,NA,NA,2,0.5,0.5,5,4,106,3,NA
fcp-trial,141,605481,0.0-116.0-0.0,voc_e2,11840,"[{""event"":""fullscreenenter"",""trial"":1,""time"":2338}]",NA,NA,NA,NA,NA,4,#741CD8,#D8271C,10,0,1,40,0,1433.3000001907349,37,1,395.09999990463257,10,1,experiment,NA,NA,1,0.7,0.3,2,3,107,3,NA
fcp-trial,142,608310,0.0-117.0-0.0,voc_e2,11840,"[{""event"":""fullscreenenter"",""trial"":1,""time"":2338}]",NA,NA,NA,NA,NA,0,#3386FF,#D89F1C,10,0,1,40,0,474,39,0,837.9000000953674,0,0,experiment,NA,NA,0,0.9,0.1,0,1,108,3,NA
fcp-trial,143,611848,0.0-118.0-0.0,voc_e2,11840,"[{""event"":""fullscreenenter"",""trial"":1,""time"":2338}]",NA,NA,NA,NA,NA,1,#FA92F8,#1CD855,10,10,0,40,0,1557.9000000953674,39,0,462.30000019073486,10,1,experiment,NA,NA,2,0.5,0.5,5,4,109,3,NA
fcp-trial,144,615040,0.0-119.0-0.0,voc_e2,11840,"[{""event"":""fullscreenenter"",""trial"":1,""time"":2338}]",NA,NA,NA,NA,NA,0,#741CD8,#D8271C,10,10,1,38,1,1362.8000001907349,37,1,312,10,1,experiment,NA,NA,1,0.7,0.3,2,3,110,3,NA
fcp-trial,145,618530,0.0-120.0-0.0,voc_e2,11840,"[{""event"":""fullscreenenter"",""trial"":1,""time"":2338}]",NA,NA,NA,NA,NA,6,#3386FF,#D89F1C,10,0,1,40,0,1574.8999996185303,37,1,404.2000002861023,10,1,experiment,NA,NA,0,0.9,0.1,0,1,111,3,NA
fcp-trial,146,622179,0.0-121.0-0.0,voc_e2,11840,"[{""event"":""fullscreenenter"",""trial"":1,""time"":2338}]",NA,NA,NA,NA,NA,1,#741CD8,#D8271C,10,10,1,38,1,1795.5,37,1,337.09999990463257,10,1,experiment,NA,NA,1,0.7,0.3,2,3,112,3,NA
fcp-trial,147,625367,0.0-122.0-0.0,voc_e2,11840,"[{""event"":""fullscreenenter"",""trial"":1,""time"":2338}]",NA,NA,NA,NA,NA,2,#1CD855,#FA92F8,10,0,1,38,1,1413.9000000953674,37,1,252.09999990463257,10,1,experiment,NA,NA,2,0.5,0.5,4,5,113,3,NA
fcp-trial,148,628394,0.0-123.0-0.0,voc_e2,11840,"[{""event"":""fullscreenenter"",""trial"":1,""time"":2338}]",NA,NA,NA,NA,NA,5,#D89F1C,#3386FF,0,10,0,38,1,1169.9000000953674,39,0,348.19999980926514,10,1,experiment,NA,NA,0,0.1,0.9,1,0,114,3,NA
fcp-trial,149,631847,0.0-124.0-0.0,voc_e2,11840,"[{""event"":""fullscreenenter"",""trial"":1,""time"":2338}]",NA,NA,NA,NA,NA,5,#D8271C,#741CD8,10,10,0,40,0,1426.7999997138977,37,1,514.3999996185303,10,0,experiment,NA,NA,1,0.3,0.7,3,2,115,3,NA
fcp-trial,150,635365,0.0-125.0-0.0,voc_e2,11840,"[{""event"":""fullscreenenter"",""trial"":1,""time"":2338}]",NA,NA,NA,NA,NA,2,#D89F1C,#3386FF,10,10,0,38,1,1641.8000001907349,39,0,367.2999997138977,10,1,experiment,NA,NA,0,0.1,0.9,1,0,116,3,NA
fcp-trial,151,638024,0.0-126.0-0.0,voc_e2,11840,"[{""event"":""fullscreenenter"",""trial"":1,""time"":2338}]",NA,NA,NA,NA,NA,3,#3386FF,#D89F1C,10,0,1,38,1,868.6999998092651,37,1,284.7999997138977,10,1,experiment,NA,NA,0,0.9,0.1,0,1,117,3,NA
fcp-trial,152,641556,0.0-127.0-0.0,voc_e2,11840,"[{""event"":""fullscreenenter"",""trial"":1,""time"":2338}]",NA,NA,NA,NA,NA,0,#1CD855,#FA92F8,10,10,1,38,1,1496.1999998092651,37,1,521.2000002861023,10,1,experiment,NA,NA,2,0.5,0.5,4,5,118,3,NA
fcp-trial,153,644757,0.0-128.0-0.0,voc_e2,11840,"[{""event"":""fullscreenenter"",""trial"":1,""time"":2338}]",NA,NA,NA,NA,NA,6,#1CD855,#FA92F8,10,0,1,40,0,1218.7000002861023,37,1,473.09999990463257,10,1,experiment,NA,NA,2,0.5,0.5,4,5,119,3,NA
fcp-trial,154,648401,0.0-129.0-0.0,voc_e2,11840,"[{""event"":""fullscreenenter"",""trial"":1,""time"":2338}]",NA,NA,NA,NA,NA,2,#741CD8,#D8271C,0,10,1,38,1,1863.6999998092651,37,1,274.80000019073486,0,1,experiment,NA,NA,1,0.7,0.3,2,3,120,3,NA
fcp-trial,155,652114,0.0-130.0-0.0,voc_e2,11840,"[{""event"":""fullscreenenter"",""trial"":1,""time"":2338}]",NA,NA,NA,NA,NA,6,#D8271C,#741CD8,10,10,0,38,1,1235.2000002861023,39,0,969.2000002861024,10,1,experiment,NA,NA,1,0.3,0.7,3,2,121,3,NA
fcp-trial,156,655456,0.0-131.0-0.0,voc_e2,11840,"[{""event"":""fullscreenenter"",""trial"":1,""time"":2338}]",NA,NA,NA,NA,NA,1,#3386FF,#D89F1C,10,0,1,38,1,1473.6000003814697,37,1,361.59999990463257,10,1,experiment,NA,NA,0,0.9,0.1,0,1,122,3,NA
fcp-trial,157,658667,0.0-132.0-0.0,voc_e2,11840,"[{""event"":""fullscreenenter"",""trial"":1,""time"":2338}]",NA,NA,NA,NA,NA,4,#FA92F8,#1CD855,10,10,0,40,0,1232.3000001907349,39,0,466.7000002861023,10,1,experiment,NA,NA,2,0.5,0.5,5,4,123,3,NA
fcp-trial,158,661328,0.0-133.0-0.0,voc_e2,11840,"[{""event"":""fullscreenenter"",""trial"":1,""time"":2338}]",NA,NA,NA,NA,NA,4,#D89F1C,#3386FF,0,10,0,38,1,764,39,0,388.40000009536743,10,1,experiment,NA,NA,0,0.1,0.9,1,0,124,3,NA
fcp-trial,159,665127,0.0-134.0-0.0,voc_e2,11840,"[{""event"":""fullscreenenter"",""trial"":1,""time"":2338}]",NA,NA,NA,NA,NA,3,#741CD8,#D8271C,0,0,1,38,1,1405,37,1,884.9000000953674,0,1,experiment,NA,NA,1,0.7,0.3,2,3,125,3,NA
fcp-trial,160,668653,0.0-135.0-0.0,voc_e2,11840,"[{""event"":""fullscreenenter"",""trial"":1,""time"":2338}]",NA,NA,NA,NA,NA,3,#1CD855,#FA92F8,10,0,1,38,1,1737.0999999046326,37,1,275.30000019073486,10,1,experiment,NA,NA,2,0.5,0.5,4,5,126,3,NA
fcp-trial,161,672481,0.0-136.0-0.0,voc_e2,11840,"[{""event"":""fullscreenenter"",""trial"":1,""time"":2338}]",NA,NA,NA,NA,NA,2,#D8271C,#741CD8,0,10,0,38,1,1709.0999999046326,39,0,608.3000001907349,10,1,experiment,NA,NA,1,0.3,0.7,3,2,127,3,NA
fcp-trial,162,675896,0.0-137.0-0.0,voc_e2,11840,"[{""event"":""fullscreenenter"",""trial"":1,""time"":2338}]",NA,NA,NA,NA,NA,4,#FA92F8,#1CD855,10,0,0,38,1,954,39,0,954.4000000953674,0,1,experiment,NA,NA,2,0.5,0.5,5,4,128,3,NA
fcp-trial,163,678995,0.0-138.0-0.0,voc_e2,11840,"[{""event"":""fullscreenenter"",""trial"":1,""time"":2338}]",NA,NA,NA,NA,NA,4,#741CD8,#D8271C,0,0,1,38,1,1112,37,1,479.7000002861023,0,1,experiment,NA,NA,1,0.7,0.3,2,3,129,3,NA
fcp-trial,164,682394,0.0-139.0-0.0,voc_e2,11840,"[{""event"":""fullscreenenter"",""trial"":1,""time"":2338}]",NA,NA,NA,NA,NA,3,#FA92F8,#1CD855,0,0,0,38,1,1453.1999998092651,39,0,439.8999996185303,0,1,experiment,NA,NA,2,0.5,0.5,5,4,130,3,NA
fcp-trial,165,685694,0.0-140.0-0.0,voc_e2,11840,"[{""event"":""fullscreenenter"",""trial"":1,""time"":2338}]",NA,NA,NA,NA,NA,6,#3386FF,#D89F1C,10,0,1,40,0,1429.5999999046326,37,1,357.30000019073486,10,1,experiment,NA,NA,0,0.9,0.1,0,1,131,3,NA
fcp-trial,166,688971,0.0-141.0-0.0,voc_e2,11840,"[{""event"":""fullscreenenter"",""trial"":1,""time"":2338}]",NA,NA,NA,NA,NA,1,#3386FF,#D89F1C,10,0,1,38,1,1162.5,37,1,604.5,10,1,experiment,NA,NA,0,0.9,0.1,0,1,132,3,NA
fcp-trial,167,691745,0.0-142.0-0.0,voc_e2,11840,"[{""event"":""fullscreenenter"",""trial"":1,""time"":2338}]",NA,NA,NA,NA,NA,2,#D89F1C,#3386FF,0,10,0,38,1,842.5999999046326,39,0,424.90000009536743,10,1,experiment,NA,NA,0,0.1,0.9,1,0,133,3,NA
fcp-trial,168,694964,0.0-143.0-0.0,voc_e2,11840,"[{""event"":""fullscreenenter"",""trial"":1,""time"":2338}]",NA,NA,NA,NA,NA,1,#741CD8,#D8271C,10,0,1,38,1,1367.1999998092651,37,1,342,10,1,experiment,NA,NA,1,0.7,0.3,2,3,134,3,NA
fcp-trial,169,698958,0.0-144.0-0.0,voc_e2,11840,"[{""event"":""fullscreenenter"",""trial"":1,""time"":2338}]",NA,NA,NA,NA,NA,6,#FA92F8,#1CD855,0,0,0,40,0,1839.9000000953674,37,1,633.7000002861023,0,0,experiment,NA,NA,2,0.5,0.5,5,4,135,3,NA
fcp-trial,170,702232,0.0-145.0-0.0,voc_e2,11840,"[{""event"":""fullscreenenter"",""trial"":1,""time"":2338}]",NA,NA,NA,NA,NA,4,#D89F1C,#3386FF,0,10,0,38,1,1361,39,0,406.5,10,1,experiment,NA,NA,0,0.1,0.9,1,0,136,4,NA
fcp-trial,171,705057,0.0-146.0-0.0,voc_e2,11840,"[{""event"":""fullscreenenter"",""trial"":1,""time"":2338}]",NA,NA,NA,NA,NA,3,#3386FF,#D89F1C,10,0,1,38,1,859.0999999046326,37,1,455.30000019073486,10,1,experiment,NA,NA,0,0.9,0.1,0,1,137,4,NA
fcp-trial,172,708476,0.0-147.0-0.0,voc_e2,11840,"[{""event"":""fullscreenenter"",""trial"":1,""time"":2338}]",NA,NA,NA,NA,NA,5,#D8271C,#741CD8,0,10,0,40,0,1457.6999998092651,39,0,453.3999996185303,10,1,experiment,NA,NA,1,0.3,0.7,3,2,138,4,NA
fcp-trial,173,711843,0.0-148.0-0.0,voc_e2,11840,"[{""event"":""fullscreenenter"",""trial"":1,""time"":2338}]",NA,NA,NA,NA,NA,3,#D8271C,#741CD8,10,0,0,40,0,1076.0999999046326,37,1,781.0999999046326,10,0,experiment,NA,NA,1,0.3,0.7,3,2,139,4,NA
fcp-trial,174,715173,0.0-149.0-0.0,voc_e2,11840,"[{""event"":""fullscreenenter"",""trial"":1,""time"":2338}]",NA,NA,NA,NA,NA,1,#FA92F8,#1CD855,10,0,0,38,1,1167.7000002861023,39,0,649,0,1,experiment,NA,NA,2,0.5,0.5,5,4,140,4,NA
fcp-trial,175,717889,0.0-150.0-0.0,voc_e2,11840,"[{""event"":""fullscreenenter"",""trial"":1,""time"":2338}]",NA,NA,NA,NA,NA,5,#D89F1C,#3386FF,0,10,0,38,1,857.6000003814697,39,0,347.40000009536743,10,1,experiment,NA,NA,0,0.1,0.9,1,0,141,4,NA
fcp-trial,176,721291,0.0-151.0-0.0,voc_e2,11840,"[{""event"":""fullscreenenter"",""trial"":1,""time"":2338}]",NA,NA,NA,NA,NA,5,#FA92F8,#1CD855,0,10,0,40,0,1358.9000000953674,37,1,535,0,0,experiment,NA,NA,2,0.5,0.5,5,4,142,4,NA
fcp-trial,177,724713,0.0-152.0-0.0,voc_e2,11840,"[{""event"":""fullscreenenter"",""trial"":1,""time"":2338}]",NA,NA,NA,NA,NA,2,#1CD855,#FA92F8,0,10,1,40,0,1471,39,0,442.09999990463257,10,0,experiment,NA,NA,2,0.5,0.5,4,5,143,4,NA
fcp-trial,178,728118,0.0-153.0-0.0,voc_e2,11840,"[{""event"":""fullscreenenter"",""trial"":1,""time"":2338}]",NA,NA,NA,NA,NA,0,#741CD8,#D8271C,10,0,1,38,1,1267,39,0,632.0999999046326,0,0,experiment,NA,NA,1,0.7,0.3,2,3,144,4,NA
fcp-trial,179,730736,0.0-154.0-0.0,voc_e2,11840,"[{""event"":""fullscreenenter"",""trial"":1,""time"":2338}]",NA,NA,NA,NA,NA,0,#D89F1C,#3386FF,0,10,0,38,1,752.5,39,0,358.59999990463257,10,1,experiment,NA,NA,0,0.1,0.9,1,0,145,4,NA
fcp-trial,180,734034,0.0-155.0-0.0,voc_e2,11840,"[{""event"":""fullscreenenter"",""trial"":1,""time"":2338}]",NA,NA,NA,NA,NA,0,#1CD855,#FA92F8,0,0,1,38,1,1355,37,1,435,0,1,experiment,NA,NA,2,0.5,0.5,4,5,146,4,NA
fcp-trial,181,737520,0.0-156.0-0.0,voc_e2,11840,"[{""event"":""fullscreenenter"",""trial"":1,""time"":2338}]",NA,NA,NA,NA,NA,6,#D8271C,#741CD8,0,10,0,40,0,1272.8000001907349,37,1,700.0999999046326,0,0,experiment,NA,NA,1,0.3,0.7,3,2,147,4,NA
fcp-trial,182,740806,0.0-157.0-0.0,voc_e2,11840,"[{""event"":""fullscreenenter"",""trial"":1,""time"":2338}]",NA,NA,NA,NA,NA,1,#741CD8,#D8271C,0,0,1,38,1,1249.8000001907349,37,1,525.9000000953674,0,1,experiment,NA,NA,1,0.7,0.3,2,3,148,4,NA
fcp-trial,183,743922,0.0-158.0-0.0,voc_e2,11840,"[{""event"":""fullscreenenter"",""trial"":1,""time"":2338}]",NA,NA,NA,NA,NA,2,#1CD855,#FA92F8,0,10,1,38,1,1168.6999998092651,37,1,436.90000009536743,0,1,experiment,NA,NA,2,0.5,0.5,4,5,149,4,NA
fcp-trial,184,747018,0.0-159.0-0.0,voc_e2,11840,"[{""event"":""fullscreenenter"",""trial"":1,""time"":2338}]",NA,NA,NA,NA,NA,0,#D8271C,#741CD8,0,0,0,38,1,1122,39,0,462.80000019073486,0,1,experiment,NA,NA,1,0.3,0.7,3,2,150,4,NA
fcp-trial,185,750516,0.0-160.0-0.0,voc_e2,11840,"[{""event"":""fullscreenenter"",""trial"":1,""time"":2338}]",NA,NA,NA,NA,NA,6,#FA92F8,#1CD855,10,0,0,40,0,1442.5999999046326,39,0,546,0,1,experiment,NA,NA,2,0.5,0.5,5,4,151,4,NA
fcp-trial,186,753303,0.0-161.0-0.0,voc_e2,11840,"[{""event"":""fullscreenenter"",""trial"":1,""time"":2338}]",NA,NA,NA,NA,NA,6,#3386FF,#D89F1C,0,0,1,38,1,929.5,37,1,349.69999980926514,0,1,experiment,NA,NA,0,0.9,0.1,0,1,152,4,NA
fcp-trial,187,756643,0.0-162.0-0.0,voc_e2,11840,"[{""event"":""fullscreenenter"",""trial"":1,""time"":2338}]",NA,NA,NA,NA,NA,3,#D8271C,#741CD8,0,10,0,38,1,1346.8000001907349,39,0,485.59999990463257,10,1,experiment,NA,NA,1,0.3,0.7,3,2,153,4,NA
fcp-trial,188,759663,0.0-163.0-0.0,voc_e2,11840,"[{""event"":""fullscreenenter"",""trial"":1,""time"":2338}]",NA,NA,NA,NA,NA,0,#FA92F8,#1CD855,0,0,0,38,1,962.2999997138977,37,1,547.4000000953674,0,0,experiment,NA,NA,2,0.5,0.5,5,4,154,4,NA
fcp-trial,189,762977,0.0-164.0-0.0,voc_e2,11840,"[{""event"":""fullscreenenter"",""trial"":1,""time"":2338}]",NA,NA,NA,NA,NA,6,#741CD8,#D8271C,10,0,1,40,0,1244.9000000953674,39,0,559.6000003814697,0,0,experiment,NA,NA,1,0.7,0.3,2,3,155,4,NA
fcp-trial,190,766041,0.0-165.0-0.0,voc_e2,11840,"[{""event"":""fullscreenenter"",""trial"":1,""time"":2338}]",NA,NA,NA,NA,NA,4,#3386FF,#D89F1C,10,10,1,38,1,1149.6999998092651,37,1,402.40000009536743,10,1,experiment,NA,NA,0,0.9,0.1,0,1,156,4,NA
fcp-trial,191,769035,0.0-166.0-0.0,voc_e2,11840,"[{""event"":""fullscreenenter"",""trial"":1,""time"":2338}]",NA,NA,NA,NA,NA,2,#D89F1C,#3386FF,0,0,0,38,1,966.6999998092651,39,0,516.9000000953674,0,1,experiment,NA,NA,0,0.1,0.9,1,0,157,4,NA
fcp-trial,192,773111,0.0-167.0-0.0,voc_e2,11840,"[{""event"":""fullscreenenter"",""trial"":1,""time"":2338}]",NA,NA,NA,NA,NA,5,#1CD855,#FA92F8,10,0,1,40,0,1516.7000002861023,37,1,1052.2999997138977,10,1,experiment,NA,NA,2,0.5,0.5,4,5,158,4,NA
fcp-trial,193,777138,0.0-168.0-0.0,voc_e2,11840,"[{""event"":""fullscreenenter"",""trial"":1,""time"":2338}]",NA,NA,NA,NA,NA,3,#D89F1C,#3386FF,0,0,0,38,1,1998.8999996185303,39,0,516.0999999046326,0,1,experiment,NA,NA,0,0.1,0.9,1,0,159,4,NA
fcp-trial,194,780542,0.0-169.0-0.0,voc_e2,11840,"[{""event"":""fullscreenenter"",""trial"":1,""time"":2338}]",NA,NA,NA,NA,NA,2,#741CD8,#D8271C,10,0,1,38,1,1218.7000002861023,37,1,675.9000000953674,10,1,experiment,NA,NA,1,0.7,0.3,2,3,160,4,NA
fcp-trial,195,783752,0.0-170.0-0.0,voc_e2,11840,"[{""event"":""fullscreenenter"",""trial"":1,""time"":2338}]",NA,NA,NA,NA,NA,1,#D89F1C,#3386FF,0,10,0,38,1,1327.0999999046326,39,0,376.90000009536743,10,1,experiment,NA,NA,0,0.1,0.9,1,0,161,4,NA
fcp-trial,196,786297,0.0-171.0-0.0,voc_e2,11840,"[{""event"":""fullscreenenter"",""trial"":1,""time"":2338}]",NA,NA,NA,NA,NA,0,#3386FF,#D89F1C,10,10,1,38,1,726.0999999046326,37,1,310.40000009536743,10,1,experiment,NA,NA,0,0.9,0.1,0,1,162,4,NA
fcp-trial,197,790917,0.0-172.0-0.0,voc_e2,11840,"[{""event"":""fullscreenenter"",""trial"":1,""time"":2338}]",NA,NA,NA,NA,NA,3,#FA92F8,#1CD855,10,10,0,40,0,2808.5,39,0,304.1000003814697,10,1,experiment,NA,NA,2,0.5,0.5,5,4,163,4,NA
fcp-trial,198,794609,0.0-173.0-0.0,voc_e2,11840,"[{""event"":""fullscreenenter"",""trial"":1,""time"":2338}]",NA,NA,NA,NA,NA,4,#741CD8,#D8271C,10,0,1,40,0,1685.8000001907349,39,0,499,0,0,experiment,NA,NA,1,0.7,0.3,2,3,164,4,NA
fcp-trial,199,797336,0.0-174.0-0.0,voc_e2,11840,"[{""event"":""fullscreenenter"",""trial"":1,""time"":2338}]",NA,NA,NA,NA,NA,5,#3386FF,#D89F1C,10,10,1,38,1,859.6999998092651,37,1,360.40000009536743,10,1,experiment,NA,NA,0,0.9,0.1,0,1,165,4,NA
fcp-trial,200,800938,0.0-175.0-0.0,voc_e2,11840,"[{""event"":""fullscreenenter"",""trial"":1,""time"":2338}]",NA,NA,NA,NA,NA,4,#FA92F8,#1CD855,10,0,0,40,0,1658.0999999046326,39,0,435.7999997138977,0,1,experiment,NA,NA,2,0.5,0.5,5,4,166,4,NA
fcp-trial,201,804901,0.0-176.0-0.0,voc_e2,11840,"[{""event"":""fullscreenenter"",""trial"":1,""time"":2338}]",NA,NA,NA,NA,NA,1,#FA92F8,#1CD855,10,10,0,38,1,2031.5,39,0,422.8999996185303,10,1,experiment,NA,NA,2,0.5,0.5,5,4,167,4,NA
fcp-trial,202,808348,0.0-177.0-0.0,voc_e2,11840,"[{""event"":""fullscreenenter"",""trial"":1,""time"":2338}]",NA,NA,NA,NA,NA,5,#741CD8,#D8271C,10,0,1,40,0,1511.7999997138977,39,0,424.30000019073486,0,0,experiment,NA,NA,1,0.7,0.3,2,3,168,4,NA
fcp-trial,203,811465,0.0-178.0-0.0,voc_e2,11840,"[{""event"":""fullscreenenter"",""trial"":1,""time"":2338}]",NA,NA,NA,NA,NA,6,#3386FF,#D89F1C,10,0,1,40,0,1242,37,1,367.59999990463257,10,1,experiment,NA,NA,0,0.9,0.1,0,1,169,4,NA
fcp-trial,204,815988,0.0-179.0-0.0,voc_e2,11840,"[{""event"":""fullscreenenter"",""trial"":1,""time"":2338}]",NA,NA,NA,NA,NA,6,#1CD855,#FA92F8,10,0,1,40,0,2422.300000190735,37,1,592.0999999046326,10,1,experiment,NA,NA,2,0.5,0.5,4,5,170,4,NA
fcp-trial,205,819853,0.0-180.0-0.0,voc_e2,11840,"[{""event"":""fullscreenenter"",""trial"":1,""time"":2338}]",NA,NA,NA,NA,NA,5,#741CD8,#D8271C,10,0,1,40,0,1646.8000001907349,39,0,710.5,0,0,experiment,NA,NA,1,0.7,0.3,2,3,171,4,NA
fcp-trial,206,823190,0.0-181.0-0.0,voc_e2,11840,"[{""event"":""fullscreenenter"",""trial"":1,""time"":2338}]",NA,NA,NA,NA,NA,4,#D89F1C,#3386FF,10,10,0,38,1,1354.9000000953674,39,0,474.40000009536743,10,1,experiment,NA,NA,0,0.1,0.9,1,0,172,4,NA
fcp-trial,207,827448,0.0-182.0-0.0,voc_e2,11840,"[{""event"":""fullscreenenter"",""trial"":1,""time"":2338}]",NA,NA,NA,NA,NA,0,#1CD855,#FA92F8,10,0,1,38,1,2122.2000002861023,37,1,624.4000000953674,10,1,experiment,NA,NA,2,0.5,0.5,4,5,173,4,NA
fcp-trial,208,830677,0.0-183.0-0.0,voc_e2,11840,"[{""event"":""fullscreenenter"",""trial"":1,""time"":2338}]",NA,NA,NA,NA,NA,5,#3386FF,#D89F1C,10,0,1,40,0,1352.6000003814697,37,1,369.2999997138977,10,1,experiment,NA,NA,0,0.9,0.1,0,1,174,4,NA
fcp-trial,209,833847,0.0-184.0-0.0,voc_e2,11840,"[{""event"":""fullscreenenter"",""trial"":1,""time"":2338}]",NA,NA,NA,NA,NA,0,#D89F1C,#3386FF,0,10,0,38,1,1154.8000001907349,39,0,509,10,1,experiment,NA,NA,0,0.1,0.9,1,0,175,4,NA
fcp-trial,210,837886,0.0-185.0-0.0,voc_e2,11840,"[{""event"":""fullscreenenter"",""trial"":1,""time"":2338}]",NA,NA,NA,NA,NA,1,#741CD8,#D8271C,0,0,1,38,1,1583.8000001907349,37,1,947.6999998092653,0,1,experiment,NA,NA,1,0.7,0.3,2,3,176,4,NA
fcp-trial,211,841096,0.0-186.0-0.0,voc_e2,11840,"[{""event"":""fullscreenenter"",""trial"":1,""time"":2338}]",NA,NA,NA,NA,NA,2,#D8271C,#741CD8,0,10,0,38,1,1346.9000000953674,39,0,357.3999996185303,10,1,experiment,NA,NA,1,0.3,0.7,3,2,177,4,NA
fcp-trial,212,844196,0.0-187.0-0.0,voc_e2,11840,"[{""event"":""fullscreenenter"",""trial"":1,""time"":2338}]",NA,NA,NA,NA,NA,1,#1CD855,#FA92F8,0,0,1,38,1,1212.5999999046326,37,1,380.59999990463257,0,1,experiment,NA,NA,2,0.5,0.5,4,5,178,4,NA
fcp-trial,213,847556,0.0-188.0-0.0,voc_e2,11840,"[{""event"":""fullscreenenter"",""trial"":1,""time"":2338}]",NA,NA,NA,NA,NA,4,#1CD855,#FA92F8,10,0,1,40,0,1105,39,0,745.6999998092651,0,0,experiment,NA,NA,2,0.5,0.5,4,5,179,4,NA
fcp-trial,214,850305,0.0-189.0-0.0,voc_e2,11840,"[{""event"":""fullscreenenter"",""trial"":1,""time"":2338}]",NA,NA,NA,NA,NA,1,#3386FF,#D89F1C,10,0,1,38,1,827.0999999046326,37,1,414.5,10,1,experiment,NA,NA,0,0.9,0.1,0,1,180,4,NA
fcp-trial,215,853375,0.0-190.0-0.0,voc_e2,11840,"[{""event"":""fullscreenenter"",""trial"":1,""time"":2338}]",NA,NA,NA,NA,NA,6,#D8271C,#741CD8,10,10,0,40,0,1125.5,39,0,433.09999990463257,10,1,experiment,NA,NA,1,0.3,0.7,3,2,181,5,NA
fcp-trial,216,856513,0.0-191.0-0.0,voc_e2,11840,"[{""event"":""fullscreenenter"",""trial"":1,""time"":2338}]",NA,NA,NA,NA,NA,3,#FA92F8,#1CD855,10,0,0,40,0,1188.9000000953674,39,0,441.59999990463257,0,1,experiment,NA,NA,2,0.5,0.5,5,4,182,5,NA
fcp-trial,217,859802,0.0-192.0-0.0,voc_e2,11840,"[{""event"":""fullscreenenter"",""trial"":1,""time"":2338}]",NA,NA,NA,NA,NA,3,#D8271C,#741CD8,0,0,0,40,0,1286.9000000953674,37,1,491.30000019073486,0,0,experiment,NA,NA,1,0.3,0.7,3,2,183,5,NA
fcp-trial,218,862285,0.0-193.0-0.0,voc_e2,11840,"[{""event"":""fullscreenenter"",""trial"":1,""time"":2338}]",NA,NA,NA,NA,NA,3,#D89F1C,#3386FF,0,10,0,38,1,717.6999998092651,39,0,260.40000009536743,10,1,experiment,NA,NA,0,0.1,0.9,1,0,184,5,NA
fcp-trial,219,865320,0.0-194.0-0.0,voc_e2,11840,"[{""event"":""fullscreenenter"",""trial"":1,""time"":2338}]",NA,NA,NA,NA,NA,5,#FA92F8,#1CD855,0,10,0,40,0,1072.1000003814697,37,1,453.09999990463257,0,0,experiment,NA,NA,2,0.5,0.5,5,4,185,5,NA
fcp-trial,220,868418,0.0-195.0-0.0,voc_e2,11840,"[{""event"":""fullscreenenter"",""trial"":1,""time"":2338}]",NA,NA,NA,NA,NA,0,#741CD8,#D8271C,10,0,1,38,1,1064.8000001907349,37,1,521.0999999046326,10,1,experiment,NA,NA,1,0.7,0.3,2,3,186,5,NA
fcp-trial,221,871868,0.0-196.0-0.0,voc_e2,11840,"[{""event"":""fullscreenenter"",""trial"":1,""time"":2338}]",NA,NA,NA,NA,NA,2,#1CD855,#FA92F8,0,0,1,38,1,1344.2000002861023,37,1,592.2999997138977,0,1,experiment,NA,NA,2,0.5,0.5,4,5,187,5,NA
fcp-trial,222,874490,0.0-197.0-0.0,voc_e2,11840,"[{""event"":""fullscreenenter"",""trial"":1,""time"":2338}]",NA,NA,NA,NA,NA,2,#3386FF,#D89F1C,10,0,1,38,1,677.6999998092651,37,1,427,10,1,experiment,NA,NA,0,0.9,0.1,0,1,188,5,NA
fcp-trial,223,877710,0.0-198.0-0.0,voc_e2,11840,"[{""event"":""fullscreenenter"",""trial"":1,""time"":2338}]",NA,NA,NA,NA,NA,4,#D8271C,#741CD8,0,10,0,40,0,1268,39,0,444,10,1,experiment,NA,NA,1,0.3,0.7,3,2,189,5,NA
fcp-trial,224,880795,0.0-199.0-0.0,voc_e2,11840,"[{""event"":""fullscreenenter"",""trial"":1,""time"":2338}]",NA,NA,NA,NA,NA,3,#FA92F8,#1CD855,0,0,0,40,0,1134.3000001907349,37,1,444.6000003814697,0,0,experiment,NA,NA,2,0.5,0.5,5,4,190,5,NA
fcp-trial,225,884596,0.0-200.0-0.0,voc_e2,11840,"[{""event"":""fullscreenenter"",""trial"":1,""time"":2338}]",NA,NA,NA,NA,NA,2,#741CD8,#D8271C,10,0,1,40,0,1666.5999999046326,39,0,627.7999997138977,0,0,experiment,NA,NA,1,0.7,0.3,2,3,191,5,NA
fcp-trial,226,887492,0.0-201.0-0.0,voc_e2,11840,"[{""event"":""fullscreenenter"",""trial"":1,""time"":2338}]",NA,NA,NA,NA,NA,2,#D89F1C,#3386FF,0,0,0,38,1,896.5999999046326,39,0,494.30000019073486,0,1,experiment,NA,NA,0,0.1,0.9,1,0,192,5,NA
fcp-trial,227,890380,0.0-202.0-0.0,voc_e2,11840,"[{""event"":""fullscreenenter"",""trial"":1,""time"":2338}]",NA,NA,NA,NA,NA,4,#3386FF,#D89F1C,10,0,1,38,1,801.5,37,1,578.0999999046326,10,1,experiment,NA,NA,0,0.9,0.1,0,1,193,5,NA
fcp-trial,228,893411,0.0-203.0-0.0,voc_e2,11840,"[{""event"":""fullscreenenter"",""trial"":1,""time"":2338}]",NA,NA,NA,NA,NA,2,#FA92F8,#1CD855,10,0,0,40,0,1136.0999999046326,39,0,389.69999980926514,0,1,experiment,NA,NA,2,0.5,0.5,5,4,194,5,NA
fcp-trial,229,896332,0.0-204.0-0.0,voc_e2,11840,"[{""event"":""fullscreenenter"",""trial"":1,""time"":2338}]",NA,NA,NA,NA,NA,1,#3386FF,#D89F1C,10,0,1,38,1,931.6000003814697,37,1,480.59999990463257,10,1,experiment,NA,NA,0,0.9,0.1,0,1,195,5,NA
fcp-trial,230,899400,0.0-205.0-0.0,voc_e2,11840,"[{""event"":""fullscreenenter"",""trial"":1,""time"":2338}]",NA,NA,NA,NA,NA,4,#D8271C,#741CD8,0,10,0,40,0,1117.8999996185303,37,1,439.7999997138977,0,0,experiment,NA,NA,1,0.3,0.7,3,2,196,5,NA
fcp-trial,231,902391,0.0-206.0-0.0,voc_e2,11840,"[{""event"":""fullscreenenter"",""trial"":1,""time"":2338}]",NA,NA,NA,NA,NA,0,#1CD855,#FA92F8,0,10,1,38,1,1060.0999999046326,37,1,421.40000009536743,0,1,experiment,NA,NA,2,0.5,0.5,4,5,197,5,NA
fcp-trial,232,905534,0.0-207.0-0.0,voc_e2,11840,"[{""event"":""fullscreenenter"",""trial"":1,""time"":2338}]",NA,NA,NA,NA,NA,5,#D8271C,#741CD8,0,10,0,40,0,977.1000003814697,37,1,658.6000003814697,0,0,experiment,NA,NA,1,0.3,0.7,3,2,198,5,NA
fcp-trial,233,908136,0.0-208.0-0.0,voc_e2,11840,"[{""event"":""fullscreenenter"",""trial"":1,""time"":2338}]",NA,NA,NA,NA,NA,0,#D89F1C,#3386FF,0,10,0,38,1,806.5999999046326,39,0,286.2000002861023,10,1,experiment,NA,NA,0,0.1,0.9,1,0,199,5,NA
fcp-trial,234,910573,0.0-209.0-0.0,voc_e2,11840,"[{""event"":""fullscreenenter"",""trial"":1,""time"":2338}]",NA,NA,NA,NA,NA,5,#3386FF,#D89F1C,10,0,1,38,1,627.0999999046326,37,1,300.40000009536743,10,1,experiment,NA,NA,0,0.9,0.1,0,1,200,5,NA
fcp-trial,235,913273,0.0-210.0-0.0,voc_e2,11840,"[{""event"":""fullscreenenter"",""trial"":1,""time"":2338}]",NA,NA,NA,NA,NA,6,#D8271C,#741CD8,0,0,0,38,1,930,39,0,260.09999990463257,0,1,experiment,NA,NA,1,0.3,0.7,3,2,201,5,NA
fcp-trial,236,916577,0.0-211.0-0.0,voc_e2,11840,"[{""event"":""fullscreenenter"",""trial"":1,""time"":2338}]",NA,NA,NA,NA,NA,4,#FA92F8,#1CD855,0,0,0,38,1,1465.5999999046326,39,0,328.09999990463257,0,1,experiment,NA,NA,2,0.5,0.5,5,4,202,5,NA
fcp-trial,237,919386,0.0-212.0-0.0,voc_e2,11840,"[{""event"":""fullscreenenter"",""trial"":1,""time"":2338}]",NA,NA,NA,NA,NA,5,#FA92F8,#1CD855,0,10,0,38,1,972.3000001907349,39,0,327.40000009536743,10,1,experiment,NA,NA,2,0.5,0.5,5,4,203,5,NA
fcp-trial,238,922387,0.0-213.0-0.0,voc_e2,11840,"[{""event"":""fullscreenenter"",""trial"":1,""time"":2338}]",NA,NA,NA,NA,NA,1,#D8271C,#741CD8,0,10,0,38,1,1119.5,39,0,370.69999980926514,10,1,experiment,NA,NA,1,0.3,0.7,3,2,204,5,NA
fcp-trial,239,925206,0.0-214.0-0.0,voc_e2,11840,"[{""event"":""fullscreenenter"",""trial"":1,""time"":2338}]",NA,NA,NA,NA,NA,3,#D89F1C,#3386FF,0,10,0,38,1,976.5999999046326,39,0,334.3999996185303,10,1,experiment,NA,NA,0,0.1,0.9,1,0,205,5,NA
fcp-trial,240,928845,0.0-215.0-0.0,voc_e2,11840,"[{""event"":""fullscreenenter"",""trial"":1,""time"":2338}]",NA,NA,NA,NA,NA,6,#3386FF,#D89F1C,10,0,1,38,1,786.1999998092651,37,1,1344,10,1,experiment,NA,NA,0,0.9,0.1,0,1,206,5,NA
fcp-trial,241,932645,0.0-216.0-0.0,voc_e2,11840,"[{""event"":""fullscreenenter"",""trial"":1,""time"":2338}]",NA,NA,NA,NA,NA,3,#D8271C,#741CD8,0,0,0,38,1,1728.7999997138977,39,0,563.0999999046326,0,1,experiment,NA,NA,1,0.3,0.7,3,2,207,5,NA
fcp-trial,242,935967,0.0-217.0-0.0,voc_e2,11840,"[{""event"":""fullscreenenter"",""trial"":1,""time"":2338}]",NA,NA,NA,NA,NA,6,#FA92F8,#1CD855,10,10,0,38,1,838.6999998092651,39,0,973.6000003814696,10,1,experiment,NA,NA,2,0.5,0.5,5,4,208,5,NA
fcp-trial,243,938489,0.0-218.0-0.0,voc_e2,11840,"[{""event"":""fullscreenenter"",""trial"":1,""time"":2338}]",NA,NA,NA,NA,NA,1,#1CD855,#FA92F8,0,0,1,38,1,763.0999999046326,37,1,252.09999990463257,0,1,experiment,NA,NA,2,0.5,0.5,4,5,209,5,NA
fcp-trial,244,941156,0.0-219.0-0.0,voc_e2,11840,"[{""event"":""fullscreenenter"",""trial"":1,""time"":2338}]",NA,NA,NA,NA,NA,0,#D8271C,#741CD8,0,10,0,38,1,706.3999996185303,39,0,451.59999990463257,10,1,experiment,NA,NA,1,0.3,0.7,3,2,210,5,NA
audio-instructions,245,947534,0.0-220.0,voc_e2,11840,"[{""event"":""fullscreenenter"",""trial"":1,""time"":2338}]",NA,1934.5999999046328,static/audio/pause.wav,NA,0,NA,NA,NA,NA,NA,NA,NA,NA,NA,NA,NA,NA,NA,NA,NA,NA,NA,NA,NA,NA,NA,NA,NA,NA,NA
fcp-trial,246,951845,0.0-221.0-0.0,voc_e2,11840,"[{""event"":""fullscreenenter"",""trial"":1,""time"":2338}]",NA,NA,NA,NA,NA,2,#3386FF,#D89F1C,10,0,1,38,1,2266.3999996185303,37,1,520.3000001907349,10,1,experiment,NA,NA,0,0.9,0.1,0,1,211,5,NA
fcp-trial,247,955282,0.0-222.0-0.0,voc_e2,11840,"[{""event"":""fullscreenenter"",""trial"":1,""time"":2338}]",NA,NA,NA,NA,NA,6,#FA92F8,#1CD855,10,0,0,40,0,1221.1000003814697,37,1,693.1000003814697,10,0,experiment,NA,NA,2,0.5,0.5,5,4,212,5,NA
fcp-trial,248,958165,0.0-223.0-0.0,voc_e2,11840,"[{""event"":""fullscreenenter"",""trial"":1,""time"":2338}]",NA,NA,NA,NA,NA,6,#D8271C,#741CD8,0,10,0,40,0,902.3000001907349,37,1,467.90000009536743,0,0,experiment,NA,NA,1,0.3,0.7,3,2,213,5,NA
fcp-trial,249,961262,0.0-224.0-0.0,voc_e2,11840,"[{""event"":""fullscreenenter"",""trial"":1,""time"":2338}]",NA,NA,NA,NA,NA,2,#741CD8,#D8271C,10,10,1,38,1,1181,37,1,399.5,10,1,experiment,NA,NA,1,0.7,0.3,2,3,214,5,NA
fcp-trial,250,964207,0.0-225.0-0.0,voc_e2,11840,"[{""event"":""fullscreenenter"",""trial"":1,""time"":2338}]",NA,NA,NA,NA,NA,1,#3386FF,#D89F1C,10,0,1,38,1,1085.5,37,1,340.2000002861023,10,1,experiment,NA,NA,0,0.9,0.1,0,1,215,5,NA
fcp-trial,251,967697,0.0-226.0-0.0,voc_e2,11840,"[{""event"":""fullscreenenter"",""trial"":1,""time"":2338}]",NA,NA,NA,NA,NA,3,#741CD8,#D8271C,10,0,1,38,1,1487.0999999046326,37,1,490.7999997138977,10,1,experiment,NA,NA,1,0.7,0.3,2,3,216,5,NA
fcp-trial,252,971376,0.0-227.0-0.0,voc_e2,11840,"[{""event"":""fullscreenenter"",""trial"":1,""time"":2338}]",NA,NA,NA,NA,NA,2,#FA92F8,#1CD855,10,10,0,38,1,1797.5999999046326,37,1,358.90000009536743,10,0,experiment,NA,NA,2,0.5,0.5,5,4,217,5,NA
fcp-trial,253,974809,0.0-228.0-0.0,voc_e2,11840,"[{""event"":""fullscreenenter"",""trial"":1,""time"":2338}]",NA,NA,NA,NA,NA,5,#D8271C,#741CD8,10,0,0,40,0,1477.4000000953674,37,1,445.69999980926514,10,0,experiment,NA,NA,1,0.3,0.7,3,2,218,5,NA
fcp-trial,254,978159,0.0-229.0-0.0,voc_e2,11840,"[{""event"":""fullscreenenter"",""trial"":1,""time"":2338}]",NA,NA,NA,NA,NA,4,#1CD855,#FA92F8,10,10,1,40,0,1164.5,39,0,676.8999996185303,10,0,experiment,NA,NA,2,0.5,0.5,4,5,219,5,NA
fcp-trial,255,981070,0.0-230.0-0.0,voc_e2,11840,"[{""event"":""fullscreenenter"",""trial"":1,""time"":2338}]",NA,NA,NA,NA,NA,3,#3386FF,#D89F1C,10,10,1,38,1,1120,37,1,284.80000019073486,10,1,experiment,NA,NA,0,0.9,0.1,0,1,220,5,NA
fcp-trial,256,984978,0.0-231.0-0.0,voc_e2,11840,"[{""event"":""fullscreenenter"",""trial"":1,""time"":2338}]",NA,NA,NA,NA,NA,1,#D8271C,#741CD8,10,10,0,38,1,1341.5,39,0,1055.7999997138977,10,1,experiment,NA,NA,1,0.3,0.7,3,2,221,5,NA
fcp-trial,257,988238,0.0-232.0-0.0,voc_e2,11840,"[{""event"":""fullscreenenter"",""trial"":1,""time"":2338}]",NA,NA,NA,NA,NA,0,#1CD855,#FA92F8,10,0,1,38,1,1109.0999999046326,39,0,643.2999997138977,0,0,experiment,NA,NA,2,0.5,0.5,4,5,222,5,NA
fcp-trial,258,991110,0.0-233.0-0.0,voc_e2,11840,"[{""event"":""fullscreenenter"",""trial"":1,""time"":2338}]",NA,NA,NA,NA,NA,4,#D89F1C,#3386FF,0,10,0,38,1,899,39,0,466.59999990463257,10,1,experiment,NA,NA,0,0.1,0.9,1,0,223,5,NA
fcp-trial,259,994197,0.0-234.0-0.0,voc_e2,11840,"[{""event"":""fullscreenenter"",""trial"":1,""time"":2338}]",NA,NA,NA,NA,NA,0,#741CD8,#D8271C,10,0,1,38,1,1117.2999997138977,37,1,463.80000019073486,10,1,experiment,NA,NA,1,0.7,0.3,2,3,224,5,NA
fcp-trial,260,997233,0.0-235.0-0.0,voc_e2,11840,"[{""event"":""fullscreenenter"",""trial"":1,""time"":2338}]",NA,NA,NA,NA,NA,3,#1CD855,#FA92F8,0,0,1,38,1,1215.2999997138977,39,0,313.30000019073486,0,0,experiment,NA,NA,2,0.5,0.5,4,5,225,5,NA
fcp-trial,261,1000748,0.0-236.0-0.0,voc_e2,11840,"[{""event"":""fullscreenenter"",""trial"":1,""time"":2338}]",NA,NA,NA,NA,NA,6,#D89F1C,#3386FF,0,0,0,40,0,1289.0999999046326,37,1,717.0999999046326,0,0,experiment,NA,NA,0,0.1,0.9,1,0,226,6,NA
fcp-trial,262,1003745,0.0-237.0-0.0,voc_e2,11840,"[{""event"":""fullscreenenter"",""trial"":1,""time"":2338}]",NA,NA,NA,NA,NA,1,#FA92F8,#1CD855,0,10,0,38,1,1069.3000001907349,39,0,417.59999990463257,10,1,experiment,NA,NA,2,0.5,0.5,5,4,227,6,NA
fcp-trial,263,1007477,0.0-238.0-0.0,voc_e2,11840,"[{""event"":""fullscreenenter"",""trial"":1,""time"":2338}]",NA,NA,NA,NA,NA,4,#D8271C,#741CD8,0,10,0,40,0,1620.5999999046326,37,1,604.5,0,0,experiment,NA,NA,1,0.3,0.7,3,2,228,6,NA
fcp-trial,264,1010259,0.0-239.0-0.0,voc_e2,11840,"[{""event"":""fullscreenenter"",""trial"":1,""time"":2338}]",NA,NA,NA,NA,NA,0,#3386FF,#D89F1C,10,0,1,38,1,798.5,37,1,475.09999990463257,10,1,experiment,NA,NA,0,0.9,0.1,0,1,229,6,NA
fcp-trial,265,1014547,0.0-240.0-0.0,voc_e2,11840,"[{""event"":""fullscreenenter"",""trial"":1,""time"":2338}]",NA,NA,NA,NA,NA,5,#1CD855,#FA92F8,0,10,1,40,0,2321.0999999046326,39,0,456.7000002861023,10,0,experiment,NA,NA,2,0.5,0.5,4,5,230,6,NA
fcp-trial,266,1017519,0.0-241.0-0.0,voc_e2,11840,"[{""event"":""fullscreenenter"",""trial"":1,""time"":2338}]",NA,NA,NA,NA,NA,5,#3386FF,#D89F1C,10,0,1,40,0,965.0999999046326,37,1,500.90000009536743,10,1,experiment,NA,NA,0,0.9,0.1,0,1,231,6,NA
fcp-trial,267,1020561,0.0-242.0-0.0,voc_e2,11840,"[{""event"":""fullscreenenter"",""trial"":1,""time"":2338}]",NA,NA,NA,NA,NA,1,#FA92F8,#1CD855,0,0,0,38,1,1057,39,0,472.2999997138977,0,1,experiment,NA,NA,2,0.5,0.5,5,4,232,6,NA
fcp-trial,268,1023694,0.0-243.0-0.0,voc_e2,11840,"[{""event"":""fullscreenenter"",""trial"":1,""time"":2338}]",NA,NA,NA,NA,NA,3,#741CD8,#D8271C,0,0,1,40,0,1126.4000000953674,39,0,499.5,0,0,experiment,NA,NA,1,0.7,0.3,2,3,233,6,NA
fcp-trial,269,1026351,0.0-244.0-0.0,voc_e2,11840,"[{""event"":""fullscreenenter"",""trial"":1,""time"":2338}]",NA,NA,NA,NA,NA,5,#3386FF,#D89F1C,10,0,1,38,1,809.9000000953674,37,1,338.90000009536743,10,1,experiment,NA,NA,0,0.9,0.1,0,1,234,6,NA
fcp-trial,270,1030410,0.0-245.0-0.0,voc_e2,11840,"[{""event"":""fullscreenenter"",""trial"":1,""time"":2338}]",NA,NA,NA,NA,NA,2,#741CD8,#D8271C,0,0,1,38,1,1577.2999997138977,37,1,972.7000002861024,0,1,experiment,NA,NA,1,0.7,0.3,2,3,235,6,NA
fcp-trial,271,1033148,0.0-246.0-0.0,voc_e2,11840,"[{""event"":""fullscreenenter"",""trial"":1,""time"":2338}]",NA,NA,NA,NA,NA,4,#D89F1C,#3386FF,10,10,0,38,1,832,39,0,396.2000002861023,10,1,experiment,NA,NA,0,0.1,0.9,1,0,236,6,NA
fcp-trial,272,1036553,0.0-247.0-0.0,voc_e2,11840,"[{""event"":""fullscreenenter"",""trial"":1,""time"":2338}]",NA,NA,NA,NA,NA,4,#1CD855,#FA92F8,0,0,1,38,1,1569.9000000953674,39,0,319.09999990463257,0,0,experiment,NA,NA,2,0.5,0.5,4,5,237,6,NA
fcp-trial,273,1039523,0.0-248.0-0.0,voc_e2,11840,"[{""event"":""fullscreenenter"",""trial"":1,""time"":2338}]",NA,NA,NA,NA,NA,1,#741CD8,#D8271C,10,0,1,38,1,1025.7999997138977,37,1,435.19999980926514,10,1,experiment,NA,NA,1,0.7,0.3,2,3,238,6,NA
fcp-trial,274,1042925,0.0-249.0-0.0,voc_e2,11840,"[{""event"":""fullscreenenter"",""trial"":1,""time"":2338}]",NA,NA,NA,NA,NA,3,#D89F1C,#3386FF,0,10,0,38,1,1251.9000000953674,39,0,640.0999999046326,10,1,experiment,NA,NA,0,0.1,0.9,1,0,239,6,NA
fcp-trial,275,1046475,0.0-250.0-0.0,voc_e2,11840,"[{""event"":""fullscreenenter"",""trial"":1,""time"":2338}]",NA,NA,NA,NA,NA,0,#D8271C,#741CD8,0,10,0,38,1,1420.9000000953674,39,0,618.8000001907349,10,1,experiment,NA,NA,1,0.3,0.7,3,2,240,6,NA
fcp-trial,276,1049311,0.0-251.0-0.0,voc_e2,11840,"[{""event"":""fullscreenenter"",""trial"":1,""time"":2338}]",NA,NA,NA,NA,NA,5,#1CD855,#FA92F8,0,0,1,38,1,994.8000001907349,39,0,333.1000003814697,0,0,experiment,NA,NA,2,0.5,0.5,4,5,241,6,NA
fcp-trial,277,1052575,0.0-252.0-0.0,voc_e2,11840,"[{""event"":""fullscreenenter"",""trial"":1,""time"":2338}]",NA,NA,NA,NA,NA,5,#D8271C,#741CD8,0,10,0,40,0,1310.5,37,1,446,0,0,experiment,NA,NA,1,0.3,0.7,3,2,242,6,NA
fcp-trial,278,1055422,0.0-253.0-0.0,voc_e2,11840,"[{""event"":""fullscreenenter"",""trial"":1,""time"":2338}]",NA,NA,NA,NA,NA,6,#D89F1C,#3386FF,0,10,0,38,1,940.2000002861023,39,0,398.59999990463257,10,1,experiment,NA,NA,0,0.1,0.9,1,0,243,6,NA
fcp-trial,279,1059094,0.0-254.0-0.0,voc_e2,11840,"[{""event"":""fullscreenenter"",""trial"":1,""time"":2338}]",NA,NA,NA,NA,NA,3,#FA92F8,#1CD855,10,0,0,40,0,1624.4000000953674,39,0,541.4000000953674,0,1,experiment,NA,NA,2,0.5,0.5,5,4,244,6,NA
fcp-trial,280,1062089,0.0-255.0-0.0,voc_e2,11840,"[{""event"":""fullscreenenter"",""trial"":1,""time"":2338}]",NA,NA,NA,NA,NA,6,#D8271C,#741CD8,0,10,0,40,0,1017.8999996185303,37,1,469.5,0,0,experiment,NA,NA,1,0.3,0.7,3,2,245,6,NA
fcp-trial,281,1065139,0.0-256.0-0.0,voc_e2,11840,"[{""event"":""fullscreenenter"",""trial"":1,""time"":2338}]",NA,NA,NA,NA,NA,1,#D89F1C,#3386FF,0,10,0,38,1,895.7000002861023,39,0,638.9000000953674,10,1,experiment,NA,NA,0,0.1,0.9,1,0,246,6,NA
fcp-trial,282,1068205,0.0-257.0-0.0,voc_e2,11840,"[{""event"":""fullscreenenter"",""trial"":1,""time"":2338}]",NA,NA,NA,NA,NA,0,#D89F1C,#3386FF,0,10,0,38,1,950.6000003814697,39,0,601.6999998092651,10,1,experiment,NA,NA,0,0.1,0.9,1,0,247,6,NA
fcp-trial,283,1071206,0.0-258.0-0.0,voc_e2,11840,"[{""event"":""fullscreenenter"",""trial"":1,""time"":2338}]",NA,NA,NA,NA,NA,0,#1CD855,#FA92F8,0,10,1,38,1,1129.3000001907349,39,0,360.2999997138977,10,0,experiment,NA,NA,2,0.5,0.5,4,5,248,6,NA
fcp-trial,284,1074133,0.0-259.0-0.0,voc_e2,11840,"[{""event"":""fullscreenenter"",""trial"":1,""time"":2338}]",NA,NA,NA,NA,NA,6,#1CD855,#FA92F8,0,10,1,40,0,1033.9000000953674,39,0,383.30000019073486,10,0,experiment,NA,NA,2,0.5,0.5,4,5,249,6,NA
fcp-trial,285,1077347,0.0-260.0-0.0,voc_e2,11840,"[{""event"":""fullscreenenter"",""trial"":1,""time"":2338}]",NA,NA,NA,NA,NA,4,#741CD8,#D8271C,10,0,1,40,0,1194.8999996185303,39,0,510.09999990463257,0,0,experiment,NA,NA,1,0.7,0.3,2,3,250,6,NA
fcp-trial,286,1080383,0.0-261.0-0.0,voc_e2,11840,"[{""event"":""fullscreenenter"",""trial"":1,""time"":2338}]",NA,NA,NA,NA,NA,2,#3386FF,#D89F1C,0,10,1,38,1,1109.5,37,1,418.40000009536743,0,1,experiment,NA,NA,0,0.9,0.1,0,1,251,6,NA
fcp-trial,287,1084049,0.0-262.0-0.0,voc_e2,11840,"[{""event"":""fullscreenenter"",""trial"":1,""time"":2338}]",NA,NA,NA,NA,NA,2,#1CD855,#FA92F8,10,0,1,38,1,1362.4000000953674,37,1,793,10,1,experiment,NA,NA,2,0.5,0.5,4,5,252,6,NA
fcp-trial,288,1086709,0.0-263.0-0.0,voc_e2,11840,"[{""event"":""fullscreenenter"",""trial"":1,""time"":2338}]",NA,NA,NA,NA,NA,4,#FA92F8,#1CD855,0,10,0,38,1,629.7999997138977,37,1,523.3000001907349,0,0,experiment,NA,NA,2,0.5,0.5,5,4,253,6,NA
fcp-trial,289,1089767,0.0-264.0-0.0,voc_e2,11840,"[{""event"":""fullscreenenter"",""trial"":1,""time"":2338}]",NA,NA,NA,NA,NA,0,#FA92F8,#1CD855,10,0,0,38,1,1034.1999998092651,37,1,518.6999998092651,10,0,experiment,NA,NA,2,0.5,0.5,5,4,254,6,NA
fcp-trial,290,1094160,0.0-265.0-0.0,voc_e2,11840,"[{""event"":""fullscreenenter"",""trial"":1,""time"":2338}]",NA,NA,NA,NA,NA,3,#741CD8,#D8271C,10,10,1,38,1,2021.0999999046326,37,1,863.5,10,1,experiment,NA,NA,1,0.7,0.3,2,3,255,6,NA
fcp-trial,291,1097737,0.0-266.0-0.0,voc_e2,11840,"[{""event"":""fullscreenenter"",""trial"":1,""time"":2338}]",NA,NA,NA,NA,NA,2,#1CD855,#FA92F8,0,10,1,38,1,1353.5,39,0,715.4000000953674,10,0,experiment,NA,NA,2,0.5,0.5,4,5,256,6,NA
fcp-trial,292,1101136,0.0-267.0-0.0,voc_e2,11840,"[{""event"":""fullscreenenter"",""trial"":1,""time"":2338}]",NA,NA,NA,NA,NA,2,#3386FF,#D89F1C,10,0,1,38,1,1347.0999999046326,37,1,543.2000002861023,10,1,experiment,NA,NA,0,0.9,0.1,0,1,257,6,NA
fcp-trial,293,1105055,0.0-268.0-0.0,voc_e2,11840,"[{""event"":""fullscreenenter"",""trial"":1,""time"":2338}]",NA,NA,NA,NA,NA,6,#D8271C,#741CD8,0,0,0,40,0,1692,37,1,718.3000001907349,0,0,experiment,NA,NA,1,0.3,0.7,3,2,258,6,NA
fcp-trial,294,1108983,0.0-269.0-0.0,voc_e2,11840,"[{""event"":""fullscreenenter"",""trial"":1,""time"":2338}]",NA,NA,NA,NA,NA,5,#D89F1C,#3386FF,0,10,0,40,0,1166.0999999046326,37,1,1254.5,0,0,experiment,NA,NA,0,0.1,0.9,1,0,259,6,NA
fcp-trial,295,1113388,0.0-270.0-0.0,voc_e2,11840,"[{""event"":""fullscreenenter"",""trial"":1,""time"":2338}]",NA,NA,NA,NA,NA,2,#D8271C,#741CD8,0,10,0,38,1,1613.5,39,0,1285.6999998092651,10,1,experiment,NA,NA,1,0.3,0.7,3,2,260,6,NA
fcp-trial,296,1117603,0.0-271.0-0.0,voc_e2,11840,"[{""event"":""fullscreenenter"",""trial"":1,""time"":2338}]",NA,NA,NA,NA,NA,3,#FA92F8,#1CD855,0,0,0,38,1,2365.199999809265,39,0,342.30000019073486,0,1,experiment,NA,NA,2,0.5,0.5,5,4,261,6,NA
fcp-trial,297,1120824,0.0-272.0-0.0,voc_e2,11840,"[{""event"":""fullscreenenter"",""trial"":1,""time"":2338}]",NA,NA,NA,NA,NA,1,#D8271C,#741CD8,0,10,0,38,1,1233.4000000953674,39,0,478.80000019073486,10,1,experiment,NA,NA,1,0.3,0.7,3,2,262,6,NA
fcp-trial,298,1124149,0.0-273.0-0.0,voc_e2,11840,"[{""event"":""fullscreenenter"",""trial"":1,""time"":2338}]",NA,NA,NA,NA,NA,3,#3386FF,#D89F1C,10,0,1,38,1,1400.5999999046326,37,1,418.2999997138977,10,1,experiment,NA,NA,0,0.9,0.1,0,1,263,6,NA
fcp-trial,299,1127689,0.0-274.0-0.0,voc_e2,11840,"[{""event"":""fullscreenenter"",""trial"":1,""time"":2338}]",NA,NA,NA,NA,NA,0,#D8271C,#741CD8,0,10,0,38,1,1065.1999998092651,39,0,958.4000000953674,10,1,experiment,NA,NA,1,0.3,0.7,3,2,264,6,NA
fcp-trial,300,1131763,0.0-275.0-0.0,voc_e2,11840,"[{""event"":""fullscreenenter"",""trial"":1,""time"":2338}]",NA,NA,NA,NA,NA,0,#3386FF,#D89F1C,10,0,1,38,1,1887.8000001907349,37,1,679.4000000953674,10,1,experiment,NA,NA,0,0.9,0.1,0,1,265,6,NA
fcp-trial,301,1134751,0.0-276.0-0.0,voc_e2,11840,"[{""event"":""fullscreenenter"",""trial"":1,""time"":2338}]",NA,NA,NA,NA,NA,6,#FA92F8,#1CD855,10,0,0,40,0,977.1999998092651,39,0,504.40000009536743,0,1,experiment,NA,NA,2,0.5,0.5,5,4,266,6,NA
fcp-trial,302,1137666,0.0-277.0-0.0,voc_e2,11840,"[{""event"":""fullscreenenter"",""trial"":1,""time"":2338}]",NA,NA,NA,NA,NA,4,#3386FF,#D89F1C,10,0,1,38,1,909,37,1,497.19999980926514,10,1,experiment,NA,NA,0,0.9,0.1,0,1,267,6,NA
fcp-trial,303,1140685,0.0-278.0-0.0,voc_e2,11840,"[{""event"":""fullscreenenter"",""trial"":1,""time"":2338}]",NA,NA,NA,NA,NA,5,#D8271C,#741CD8,10,0,0,40,0,1024.3000001907349,37,1,486.30000019073486,10,0,experiment,NA,NA,1,0.3,0.7,3,2,268,6,NA
fcp-trial,304,1143478,0.0-279.0-0.0,voc_e2,11840,"[{""event"":""fullscreenenter"",""trial"":1,""time"":2338}]",NA,NA,NA,NA,NA,4,#D8271C,#741CD8,0,10,0,40,0,766.0999999046326,39,0,516.7000002861023,10,1,experiment,NA,NA,1,0.3,0.7,3,2,269,6,NA
fcp-trial,305,1146597,0.0-280.0-0.0,voc_e2,11840,"[{""event"":""fullscreenenter"",""trial"":1,""time"":2338}]",NA,NA,NA,NA,NA,1,#FA92F8,#1CD855,0,10,0,38,1,1135.5,37,1,475.59999990463257,0,0,experiment,NA,NA,2,0.5,0.5,5,4,270,6,NA
fcp-trial,306,1149346,0.0-281.0-0.0,voc_e2,11840,"[{""event"":""fullscreenenter"",""trial"":1,""time"":2338}]",NA,NA,NA,NA,NA,5,#FA92F8,#1CD855,0,10,0,40,0,804.2999997138977,37,1,438,0,0,experiment,NA,NA,2,0.5,0.5,5,4,271,7,NA
fcp-trial,307,1152726,0.0-282.0-0.0,voc_e2,11840,"[{""event"":""fullscreenenter"",""trial"":1,""time"":2338}]",NA,NA,NA,NA,NA,6,#3386FF,#D89F1C,10,0,1,38,1,1305.6999998092651,37,1,564.0999999046326,10,1,experiment,NA,NA,0,0.9,0.1,0,1,272,7,NA
fcp-trial,308,1155973,0.0-283.0-0.0,voc_e2,11840,"[{""event"":""fullscreenenter"",""trial"":1,""time"":2338}]",NA,NA,NA,NA,NA,1,#D89F1C,#3386FF,0,10,0,38,1,1173,39,0,559.2999997138977,10,1,experiment,NA,NA,0,0.1,0.9,1,0,273,7,NA
fcp-trial,309,1158752,0.0-284.0-0.0,voc_e2,11840,"[{""event"":""fullscreenenter"",""trial"":1,""time"":2338}]",NA,NA,NA,NA,NA,1,#D89F1C,#3386FF,0,10,0,38,1,825.5999999046326,39,0,446,10,1,experiment,NA,NA,0,0.1,0.9,1,0,274,7,NA
fcp-trial,310,1162138,0.0-285.0-0.0,voc_e2,11840,"[{""event"":""fullscreenenter"",""trial"":1,""time"":2338}]",NA,NA,NA,NA,NA,0,#FA92F8,#1CD855,0,10,0,38,1,1290.4000000953674,37,1,585.5,0,0,experiment,NA,NA,2,0.5,0.5,5,4,275,7,NA
fcp-trial,311,1165445,0.0-286.0-0.0,voc_e2,11840,"[{""event"":""fullscreenenter"",""trial"":1,""time"":2338}]",NA,NA,NA,NA,NA,2,#FA92F8,#1CD855,0,0,0,38,1,1286.1999998092651,37,1,513.2999997138977,0,0,experiment,NA,NA,2,0.5,0.5,5,4,276,7,NA
fcp-trial,312,1168664,0.0-287.0-0.0,voc_e2,11840,"[{""event"":""fullscreenenter"",""trial"":1,""time"":2338}]",NA,NA,NA,NA,NA,6,#741CD8,#D8271C,0,0,1,38,1,1051.7000002861023,37,1,661.6000003814697,0,1,experiment,NA,NA,1,0.7,0.3,2,3,277,7,NA
fcp-trial,313,1171576,0.0-288.0-0.0,voc_e2,11840,"[{""event"":""fullscreenenter"",""trial"":1,""time"":2338}]",NA,NA,NA,NA,NA,3,#3386FF,#D89F1C,10,0,1,38,1,1080.0999999046326,37,1,323.2000002861023,10,1,experiment,NA,NA,0,0.9,0.1,0,1,278,7,NA
fcp-trial,314,1174168,0.0-289.0-0.0,voc_e2,11840,"[{""event"":""fullscreenenter"",""trial"":1,""time"":2338}]",NA,NA,NA,NA,NA,0,#3386FF,#D89F1C,10,10,1,38,1,605.9000000953674,37,1,479.59999990463257,10,1,experiment,NA,NA,0,0.9,0.1,0,1,279,7,NA
fcp-trial,315,1177156,0.0-290.0-0.0,voc_e2,11840,"[{""event"":""fullscreenenter"",""trial"":1,""time"":2338}]",NA,NA,NA,NA,NA,6,#1CD855,#FA92F8,0,10,1,40,0,966.8000001907349,37,1,512.2000002861023,0,1,experiment,NA,NA,2,0.5,0.5,4,5,280,7,NA
fcp-trial,316,1179798,0.0-291.0-0.0,voc_e2,11840,"[{""event"":""fullscreenenter"",""trial"":1,""time"":2338}]",NA,NA,NA,NA,NA,3,#741CD8,#D8271C,0,10,1,40,0,603.5999999046326,37,1,529,0,1,experiment,NA,NA,1,0.7,0.3,2,3,281,7,NA
fcp-trial,317,1182762,0.0-292.0-0.0,voc_e2,11840,"[{""event"":""fullscreenenter"",""trial"":1,""time"":2338}]",NA,NA,NA,NA,NA,2,#3386FF,#D89F1C,10,0,1,38,1,918.1999998092651,37,1,538.2000002861023,10,1,experiment,NA,NA,0,0.9,0.1,0,1,282,7,NA
fcp-trial,318,1186612,0.0-293.0-0.0,voc_e2,11840,"[{""event"":""fullscreenenter"",""trial"":1,""time"":2338}]",NA,NA,NA,NA,NA,3,#1CD855,#FA92F8,10,10,1,38,1,1382.1000003814697,39,0,959.5999999046326,10,0,experiment,NA,NA,2,0.5,0.5,4,5,283,7,NA
fcp-trial,319,1189848,0.0-294.0-0.0,voc_e2,11840,"[{""event"":""fullscreenenter"",""trial"":1,""time"":2338}]",NA,NA,NA,NA,NA,1,#FA92F8,#1CD855,10,0,0,38,1,1124.1999998092651,37,1,603.5,10,0,experiment,NA,NA,2,0.5,0.5,5,4,284,7,NA
fcp-trial,320,1193225,0.0-295.0-0.0,voc_e2,11840,"[{""event"":""fullscreenenter"",""trial"":1,""time"":2338}]",NA,NA,NA,NA,NA,6,#3386FF,#D89F1C,0,0,1,38,1,1439.1999998092651,37,1,429.80000019073486,0,1,experiment,NA,NA,0,0.9,0.1,0,1,285,7,NA
fcp-trial,321,1197165,0.0-296.0-0.0,voc_e2,11840,"[{""event"":""fullscreenenter"",""trial"":1,""time"":2338}]",NA,NA,NA,NA,NA,2,#D8271C,#741CD8,0,0,0,38,1,1373.1000003814697,39,0,1056.7000002861023,0,1,experiment,NA,NA,1,0.3,0.7,3,2,286,7,NA
fcp-trial,322,1200920,0.0-297.0-0.0,voc_e2,11840,"[{""event"":""fullscreenenter"",""trial"":1,""time"":2338}]",NA,NA,NA,NA,NA,4,#D89F1C,#3386FF,0,0,0,40,0,1682.5999999046326,37,1,562.9000000953674,0,0,experiment,NA,NA,0,0.1,0.9,1,0,287,7,NA
fcp-trial,323,1204227,0.0-298.0-0.0,voc_e2,11840,"[{""event"":""fullscreenenter"",""trial"":1,""time"":2338}]",NA,NA,NA,NA,NA,5,#741CD8,#D8271C,10,10,1,40,0,1364.5999999046326,37,1,435.5,10,1,experiment,NA,NA,1,0.7,0.3,2,3,288,7,NA
fcp-trial,324,1207362,0.0-299.0-0.0,voc_e2,11840,"[{""event"":""fullscreenenter"",""trial"":1,""time"":2338}]",NA,NA,NA,NA,NA,5,#FA92F8,#1CD855,10,10,0,40,0,1142.0999999046326,37,1,483.09999990463257,10,0,experiment,NA,NA,2,0.5,0.5,5,4,289,7,NA
fcp-trial,325,1210114,0.0-300.0-0.0,voc_e2,11840,"[{""event"":""fullscreenenter"",""trial"":1,""time"":2338}]",NA,NA,NA,NA,NA,5,#D89F1C,#3386FF,0,10,0,38,1,750.5,39,0,491.19999980926514,10,1,experiment,NA,NA,0,0.1,0.9,1,0,290,7,NA
fcp-trial,326,1214143,0.0-301.0-0.0,voc_e2,11840,"[{""event"":""fullscreenenter"",""trial"":1,""time"":2338}]",NA,NA,NA,NA,NA,1,#D8271C,#741CD8,10,10,0,38,1,1951.6999998092651,39,0,571.3000001907349,10,1,experiment,NA,NA,1,0.3,0.7,3,2,291,7,NA
fcp-trial,327,1217283,0.0-302.0-0.0,voc_e2,11840,"[{""event"":""fullscreenenter"",""trial"":1,""time"":2338}]",NA,NA,NA,NA,NA,4,#D8271C,#741CD8,10,0,0,40,0,1063.2999997138977,37,1,571.1999998092651,10,0,experiment,NA,NA,1,0.3,0.7,3,2,292,7,NA
fcp-trial,328,1220606,0.0-303.0-0.0,voc_e2,11840,"[{""event"":""fullscreenenter"",""trial"":1,""time"":2338}]",NA,NA,NA,NA,NA,0,#741CD8,#D8271C,10,0,1,38,1,1147.9000000953674,39,0,667.5999999046326,0,0,experiment,NA,NA,1,0.7,0.3,2,3,293,7,NA
fcp-trial,329,1223398,0.0-304.0-0.0,voc_e2,11840,"[{""event"":""fullscreenenter"",""trial"":1,""time"":2338}]",NA,NA,NA,NA,NA,4,#1CD855,#FA92F8,0,0,1,38,1,820.6999998092651,39,0,459.40000009536743,0,0,experiment,NA,NA,2,0.5,0.5,4,5,294,7,NA
fcp-trial,330,1226373,0.0-305.0-0.0,voc_e2,11840,"[{""event"":""fullscreenenter"",""trial"":1,""time"":2338}]",NA,NA,NA,NA,NA,2,#741CD8,#D8271C,0,0,1,38,1,905.9000000953674,37,1,561.8000001907349,0,1,experiment,NA,NA,1,0.7,0.3,2,3,295,7,NA
fcp-trial,331,1229285,0.0-306.0-0.0,voc_e2,11840,"[{""event"":""fullscreenenter"",""trial"":1,""time"":2338}]",NA,NA,NA,NA,NA,6,#FA92F8,#1CD855,10,0,0,40,0,939.8999996185303,37,1,464.1000003814697,10,0,experiment,NA,NA,2,0.5,0.5,5,4,296,7,NA
fcp-trial,332,1232405,0.0-307.0-0.0,voc_e2,11840,"[{""event"":""fullscreenenter"",""trial"":1,""time"":2338}]",NA,NA,NA,NA,NA,5,#D89F1C,#3386FF,0,0,0,38,1,1078.6000003814697,39,0,529.4000000953674,0,1,experiment,NA,NA,0,0.1,0.9,1,0,297,7,NA
fcp-trial,333,1235408,0.0-308.0-0.0,voc_e2,11840,"[{""event"":""fullscreenenter"",""trial"":1,""time"":2338}]",NA,NA,NA,NA,NA,4,#D8271C,#741CD8,0,10,0,38,1,928.3000001907349,39,0,568.5,10,1,experiment,NA,NA,1,0.3,0.7,3,2,298,7,NA
fcp-trial,334,1239087,0.0-309.0-0.0,voc_e2,11840,"[{""event"":""fullscreenenter"",""trial"":1,""time"":2338}]",NA,NA,NA,NA,NA,1,#3386FF,#D89F1C,10,0,1,38,1,935,37,1,1238.5999999046326,10,1,experiment,NA,NA,0,0.9,0.1,0,1,299,7,NA
fcp-trial,335,1241990,0.0-310.0-0.0,voc_e2,11840,"[{""event"":""fullscreenenter"",""trial"":1,""time"":2338}]",NA,NA,NA,NA,NA,1,#741CD8,#D8271C,10,10,1,38,1,880,37,1,515.2999997138977,10,1,experiment,NA,NA,1,0.7,0.3,2,3,300,7,NA
fcp-trial,336,1245339,0.0-311.0-0.0,voc_e2,11840,"[{""event"":""fullscreenenter"",""trial"":1,""time"":2338}]",NA,NA,NA,NA,NA,4,#FA92F8,#1CD855,10,0,0,40,0,1345.4000000953674,39,0,496.90000009536743,0,1,experiment,NA,NA,2,0.5,0.5,5,4,301,7,NA
fcp-trial,337,1248661,0.0-312.0-0.0,voc_e2,11840,"[{""event"":""fullscreenenter"",""trial"":1,""time"":2338}]",NA,NA,NA,NA,NA,2,#D89F1C,#3386FF,0,10,0,38,1,1239,39,0,574.2999997138977,10,1,experiment,NA,NA,0,0.1,0.9,1,0,302,7,NA
fcp-trial,338,1252065,0.0-313.0-0.0,voc_e2,11840,"[{""event"":""fullscreenenter"",""trial"":1,""time"":2338}]",NA,NA,NA,NA,NA,0,#FA92F8,#1CD855,0,0,0,38,1,1466.8999996185303,37,1,429.19999980926514,0,0,experiment,NA,NA,2,0.5,0.5,5,4,303,7,NA
fcp-trial,339,1256507,0.0-314.0-0.0,voc_e2,11840,"[{""event"":""fullscreenenter"",""trial"":1,""time"":2338}]",NA,NA,NA,NA,NA,5,#D8271C,#741CD8,0,10,0,38,1,1884.5999999046326,37,1,1047.5,0,0,experiment,NA,NA,1,0.3,0.7,3,2,304,7,NA
fcp-trial,340,1259755,0.0-315.0-0.0,voc_e2,11840,"[{""event"":""fullscreenenter"",""trial"":1,""time"":2338}]",NA,NA,NA,NA,NA,0,#D8271C,#741CD8,10,10,0,38,1,822.4000000953674,39,0,918.3000001907347,10,1,experiment,NA,NA,1,0.3,0.7,3,2,305,7,NA
fcp-trial,341,1262805,0.0-316.0-0.0,voc_e2,11840,"[{""event"":""fullscreenenter"",""trial"":1,""time"":2338}]",NA,NA,NA,NA,NA,3,#3386FF,#D89F1C,10,0,1,38,1,973.6999998092651,37,1,565.6999998092651,10,1,experiment,NA,NA,0,0.9,0.1,0,1,306,7,NA
fcp-trial,342,1266311,0.0-317.0-0.0,voc_e2,11840,"[{""event"":""fullscreenenter"",""trial"":1,""time"":2338}]",NA,NA,NA,NA,NA,1,#FA92F8,#1CD855,0,10,0,38,1,1508,37,1,489.2000002861023,0,0,experiment,NA,NA,2,0.5,0.5,5,4,307,7,NA
fcp-trial,343,1270394,0.0-318.0-0.0,voc_e2,11840,"[{""event"":""fullscreenenter"",""trial"":1,""time"":2338}]",NA,NA,NA,NA,NA,3,#FA92F8,#1CD855,10,0,0,38,1,1956.6000003814697,37,1,618,10,0,experiment,NA,NA,2,0.5,0.5,5,4,308,7,NA
fcp-trial,344,1273999,0.0-319.0-0.0,voc_e2,11840,"[{""event"":""fullscreenenter"",""trial"":1,""time"":2338}]",NA,NA,NA,NA,NA,6,#D8271C,#741CD8,0,0,0,40,0,1592.6999998092651,37,1,504.5,0,0,experiment,NA,NA,1,0.3,0.7,3,2,309,7,NA
fcp-trial,345,1278087,0.0-320.0-0.0,voc_e2,11840,"[{""event"":""fullscreenenter"",""trial"":1,""time"":2338}]",NA,NA,NA,NA,NA,6,#D89F1C,#3386FF,0,10,0,40,0,1954,37,1,621.9000000953674,0,0,experiment,NA,NA,0,0.1,0.9,1,0,310,7,NA
fcp-trial,346,1281802,0.0-321.0-0.0,voc_e2,11840,"[{""event"":""fullscreenenter"",""trial"":1,""time"":2338}]",NA,NA,NA,NA,NA,5,#1CD855,#FA92F8,0,0,1,40,0,1223.7000002861023,39,0,985.3000001907347,0,0,experiment,NA,NA,2,0.5,0.5,4,5,311,7,NA
fcp-trial,347,1285373,0.0-322.0-0.0,voc_e2,11840,"[{""event"":""fullscreenenter"",""trial"":1,""time"":2338}]",NA,NA,NA,NA,NA,2,#1CD855,#FA92F8,0,10,1,38,1,1393.7999997138977,39,0,670.5,10,0,experiment,NA,NA,2,0.5,0.5,4,5,312,7,NA
fcp-trial,348,1288802,0.0-323.0-0.0,voc_e2,11840,"[{""event"":""fullscreenenter"",""trial"":1,""time"":2338}]",NA,NA,NA,NA,NA,3,#D8271C,#741CD8,10,10,0,40,0,1287.4000000953674,39,0,632.6999998092651,10,1,experiment,NA,NA,1,0.3,0.7,3,2,313,7,NA
fcp-trial,349,1292503,0.0-324.0-0.0,voc_e2,11840,"[{""event"":""fullscreenenter"",""trial"":1,""time"":2338}]",NA,NA,NA,NA,NA,4,#D89F1C,#3386FF,0,10,0,40,0,1222.1000003814697,37,1,969.7999997138976,0,0,experiment,NA,NA,0,0.1,0.9,1,0,314,7,NA
fcp-trial,350,1295212,0.0-325.0-0.0,voc_e2,11840,"[{""event"":""fullscreenenter"",""trial"":1,""time"":2338}]",NA,NA,NA,NA,NA,0,#3386FF,#D89F1C,10,0,1,38,1,667,37,1,533.0999999046326,10,1,experiment,NA,NA,0,0.9,0.1,0,1,315,7,NA
audio-instructions,351,1303006,0.0-326.0,voc_e2,11840,"[{""event"":""fullscreenenter"",""trial"":1,""time"":2338}]",NA,2125.800000190735,static/audio/finished.wav,NA,0,NA,NA,NA,NA,NA,NA,NA,NA,NA,NA,NA,NA,NA,NA,NA,NA,NA,NA,NA,NA,NA,NA,NA,NA,NA
audio-instructions,352,1314412,0.0-327.0-0.0,voc_e2,11840,"[{""event"":""fullscreenenter"",""trial"":1,""time"":2338}]",NA,574,static/audio/explicit1.wav,NA,0,NA,NA,NA,NA,NA,NA,NA,NA,NA,NA,NA,NA,NA,NA,NA,NA,NA,NA,NA,NA,NA,NA,NA,NA,NA
audio-instructions,353,1323596,0.0-327.0-1.0,voc_e2,11840,"[{""event"":""fullscreenenter"",""trial"":1,""time"":2338}]",NA,1587.8000001907349,static/audio/explicit2.wav,NA,0,NA,NA,NA,NA,NA,NA,NA,NA,NA,NA,NA,NA,NA,NA,NA,NA,NA,NA,NA,NA,NA,NA,NA,NA,NA
image-slider-response,354,1329116,0.0-328.0,voc_e2,11840,"[{""event"":""fullscreenenter"",""trial"":1,""time"":2338}]",NA,5517.699999809265,static/img/machines/machine4.png,NA,NA,NA,NA,NA,NA,NA,NA,NA,NA,NA,NA,NA,NA,NA,NA,explicit,NA,NA,NA,NA,NA,NA,NA,NA,NA,1
image-slider-response,355,1334332,0.0-329.0,voc_e2,11840,"[{""event"":""fullscreenenter"",""trial"":1,""time"":2338}]",NA,5214.699999809265,static/img/machines/machine1.png,NA,NA,NA,NA,NA,NA,NA,NA,NA,NA,NA,NA,NA,NA,NA,NA,explicit,NA,NA,NA,NA,NA,NA,NA,NA,NA,5
image-slider-response,356,1337075,0.0-330.0,voc_e2,11840,"[{""event"":""fullscreenenter"",""trial"":1,""time"":2338}]",NA,2741.599999904633,static/img/machines/machine5.png,NA,NA,NA,NA,NA,NA,NA,NA,NA,NA,NA,NA,NA,NA,NA,NA,explicit,NA,NA,NA,NA,NA,NA,NA,NA,NA,6
image-slider-response,357,1340483,0.0-331.0,voc_e2,11840,"[{""event"":""fullscreenenter"",""trial"":1,""time"":2338}]",NA,3406.400000095367,static/img/machines/machine2.png,NA,NA,NA,NA,NA,NA,NA,NA,NA,NA,NA,NA,NA,NA,NA,NA,explicit,NA,NA,NA,NA,NA,NA,NA,NA,NA,6
image-slider-response,358,1343612,0.0-332.0,voc_e2,11840,"[{""event"":""fullscreenenter"",""trial"":1,""time"":2338}]",NA,3127.099999904633,static/img/machines/machine6.png,NA,NA,NA,NA,NA,NA,NA,NA,NA,NA,NA,NA,NA,NA,NA,NA,explicit,NA,NA,NA,NA,NA,NA,NA,NA,NA,5
image-slider-response,359,1347540,0.0-333.0,voc_e2,11840,"[{""event"":""fullscreenenter"",""trial"":1,""time"":2338}]",NA,3926.300000190735,static/img/machines/machine3.png,NA,NA,NA,NA,NA,NA,NA,NA,NA,NA,NA,NA,NA,NA,NA,NA,explicit,NA,NA,NA,NA,NA,NA,NA,NA,NA,8
