trial_type,trial_index,time_elapsed,internal_node_id,task_version,subject_id,interactions,success,rt,stimulus,key_press,button_pressed,offer,arcade_color_L,arcade_color_R,arcade_outcome_L,arcade_outcome_R,correct,stage_1_key,stage_1_choice,stage_1_rt,stage_2_key,stage_2_choice,stage_2_rt,stage_3_outcome,accuracy,phase,responses,num_errors,context,reward_prob_L,reward_prob_R,arcade_id_L,arcade_id_R,trial,block,response
pavlovia,0,2,0.0-0.0,voc_e2,12217,[],NA,NA,NA,NA,NA,NA,NA,NA,NA,NA,NA,NA,NA,NA,NA,NA,NA,NA,NA,NA,NA,NA,NA,NA,NA,NA,NA,NA,NA,NA
fullscreen,1,2632,0.0-1.0,voc_e2,12217,"[{""event"":""focus"",""trial"":1,""time"":1560},{""event"":""fullscreenenter"",""trial"":1,""time"":1885}]",TRUE,NA,NA,NA,NA,NA,NA,NA,NA,NA,NA,NA,NA,NA,NA,NA,NA,NA,NA,NA,NA,NA,NA,NA,NA,NA,NA,NA,NA,NA
audio-keyboard-response,2,4833,0.0-2.0,voc_e2,12217,"[{""event"":""focus"",""trial"":1,""time"":1560},{""event"":""fullscreenenter"",""trial"":1,""time"":1885}]",NA,1791,static/audio/beep_loop.wav,32,NA,NA,NA,NA,NA,NA,NA,NA,NA,NA,NA,NA,NA,NA,NA,NA,NA,NA,NA,NA,NA,NA,NA,NA,NA,NA
audio-test,3,6117,0.0-3.0,voc_e2,12217,"[{""event"":""focus"",""trial"":1,""time"":1560},{""event"":""fullscreenenter"",""trial"":1,""time"":1885}]",NA,NA,static/audio/turtle.wav,NA,3,NA,NA,NA,NA,NA,NA,NA,NA,NA,NA,NA,NA,NA,NA,NA,NA,NA,NA,NA,NA,NA,NA,NA,NA,NA
audio-test,4,8254,0.0-4.0,voc_e2,12217,"[{""event"":""focus"",""trial"":1,""time"":1560},{""event"":""fullscreenenter"",""trial"":1,""time"":1885}]",NA,NA,static/audio/shark.wav,NA,2,NA,NA,NA,NA,NA,NA,NA,NA,NA,NA,NA,NA,NA,NA,NA,NA,NA,NA,NA,NA,NA,NA,NA,NA,NA
audio-instructions,5,14811,0.0-5.0-0.0,voc_e2,12217,"[{""event"":""focus"",""trial"":1,""time"":1560},{""event"":""fullscreenenter"",""trial"":1,""time"":1885}]",NA,760,static/audio/instructions1.wav,NA,0,NA,NA,NA,NA,NA,NA,NA,NA,NA,NA,NA,NA,NA,NA,NA,NA,NA,NA,NA,NA,NA,NA,NA,NA,NA
audio-instructions,6,22071,0.0-5.0-1.0,voc_e2,12217,"[{""event"":""focus"",""trial"":1,""time"":1560},{""event"":""fullscreenenter"",""trial"":1,""time"":1885}]",NA,502,static/audio/instructions2.wav,NA,0,NA,NA,NA,NA,NA,NA,NA,NA,NA,NA,NA,NA,NA,NA,NA,NA,NA,NA,NA,NA,NA,NA,NA,NA,NA
audio-instructions,7,28282,0.0-5.0-2.0,voc_e2,12217,"[{""event"":""focus"",""trial"":1,""time"":1560},{""event"":""fullscreenenter"",""trial"":1,""time"":1885}]",NA,393,static/audio/instructions3.wav,NA,0,NA,NA,NA,NA,NA,NA,NA,NA,NA,NA,NA,NA,NA,NA,NA,NA,NA,NA,NA,NA,NA,NA,NA,NA,NA
audio-instructions,8,41888,0.0-5.0-3.0,voc_e2,12217,"[{""event"":""focus"",""trial"":1,""time"":1560},{""event"":""fullscreenenter"",""trial"":1,""time"":1885}]",NA,369,static/audio/instructions4.wav,NA,0,NA,NA,NA,NA,NA,NA,NA,NA,NA,NA,NA,NA,NA,NA,NA,NA,NA,NA,NA,NA,NA,NA,NA,NA,NA
audio-instructions,9,51669,0.0-5.0-4.0,voc_e2,12217,"[{""event"":""focus"",""trial"":1,""time"":1560},{""event"":""fullscreenenter"",""trial"":1,""time"":1885}]",NA,379,static/audio/instructions5.wav,NA,0,NA,NA,NA,NA,NA,NA,NA,NA,NA,NA,NA,NA,NA,NA,NA,NA,NA,NA,NA,NA,NA,NA,NA,NA,NA
fcp-practice,10,53674,0.0-5.0-5.0-0.0,voc_e2,12217,"[{""event"":""focus"",""trial"":1,""time"":1560},{""event"":""fullscreenenter"",""trial"":1,""time"":1885}]",NA,NA,NA,NA,NA,NA,#EDC948,#46d3c8,10,0,1,null,null,null,37,1,484,10,1,practice,NA,NA,NA,NA,NA,NA,NA,NA,NA,NA
fcp-practice,11,55538,0.0-5.0-5.0-1.0,voc_e2,12217,"[{""event"":""focus"",""trial"":1,""time"":1560},{""event"":""fullscreenenter"",""trial"":1,""time"":1885}]",NA,NA,NA,NA,NA,NA,#EDC948,#46d3c8,10,0,1,null,null,null,37,1,346,10,1,practice,NA,NA,NA,NA,NA,NA,NA,NA,NA,NA
fcp-practice,12,57217,0.0-5.0-5.0-2.0,voc_e2,12217,"[{""event"":""focus"",""trial"":1,""time"":1560},{""event"":""fullscreenenter"",""trial"":1,""time"":1885}]",NA,NA,NA,NA,NA,NA,#EDC948,#46d3c8,0,10,1,null,null,null,37,1,163,0,1,practice,NA,NA,NA,NA,NA,NA,NA,NA,NA,NA
fcp-practice,13,59233,0.0-5.0-5.0-3.0,voc_e2,12217,"[{""event"":""focus"",""trial"":1,""time"":1560},{""event"":""fullscreenenter"",""trial"":1,""time"":1885}]",NA,NA,NA,NA,NA,NA,#EDC948,#46d3c8,10,0,1,null,null,null,37,1,503,10,1,practice,NA,NA,NA,NA,NA,NA,NA,NA,NA,NA
fcp-practice,14,61237,0.0-5.0-5.0-4.0,voc_e2,12217,"[{""event"":""focus"",""trial"":1,""time"":1560},{""event"":""fullscreenenter"",""trial"":1,""time"":1885}]",NA,NA,NA,NA,NA,NA,#EDC948,#46d3c8,10,0,1,null,null,null,37,1,488,10,1,practice,NA,NA,NA,NA,NA,NA,NA,NA,NA,NA
audio-instructions,15,81921,0.0-5.0-6.0,voc_e2,12217,"[{""event"":""focus"",""trial"":1,""time"":1560},{""event"":""fullscreenenter"",""trial"":1,""time"":1885}]",NA,2661,static/audio/instructions6.wav,NA,0,NA,NA,NA,NA,NA,NA,NA,NA,NA,NA,NA,NA,NA,NA,NA,NA,NA,NA,NA,NA,NA,NA,NA,NA,NA
audio-instructions,16,114983,0.0-5.0-7.0,voc_e2,12217,"[{""event"":""focus"",""trial"":1,""time"":1560},{""event"":""fullscreenenter"",""trial"":1,""time"":1885}]",NA,13853,static/audio/instructions7.wav,NA,0,NA,NA,NA,NA,NA,NA,NA,NA,NA,NA,NA,NA,NA,NA,NA,NA,NA,NA,NA,NA,NA,NA,NA,NA,NA
audio-instructions,17,191234,0.0-5.0-8.0,voc_e2,12217,"[{""event"":""focus"",""trial"":1,""time"":1560},{""event"":""fullscreenenter"",""trial"":1,""time"":1885}]",NA,66765,static/audio/instructions8.wav,NA,0,NA,NA,NA,NA,NA,NA,NA,NA,NA,NA,NA,NA,NA,NA,NA,NA,NA,NA,NA,NA,NA,NA,NA,NA,NA
fcp-comprehension,18,198470,0.0-5.0-9.0,voc_e2,12217,"[{""event"":""focus"",""trial"":1,""time"":1560},{""event"":""fullscreenenter"",""trial"":1,""time"":1885}]",NA,7233,NA,NA,NA,NA,NA,NA,NA,NA,NA,NA,NA,NA,NA,NA,NA,NA,NA,NA,"true,true",0,NA,NA,NA,NA,NA,NA,NA,NA
audio-instructions,19,206025,0.0-6.0-0.0,voc_e2,12217,"[{""event"":""focus"",""trial"":1,""time"":1560},{""event"":""fullscreenenter"",""trial"":1,""time"":1885}]",NA,1995,static/audio/instructions9.wav,NA,0,NA,NA,NA,NA,NA,NA,NA,NA,NA,NA,NA,NA,NA,NA,NA,NA,NA,NA,NA,NA,NA,NA,NA,NA,NA
audio-instructions,20,219740,0.0-6.0-1.0,voc_e2,12217,"[{""event"":""focus"",""trial"":1,""time"":1560},{""event"":""fullscreenenter"",""trial"":1,""time"":1885}]",NA,1591,static/audio/instructions10.wav,NA,0,NA,NA,NA,NA,NA,NA,NA,NA,NA,NA,NA,NA,NA,NA,NA,NA,NA,NA,NA,NA,NA,NA,NA,NA,NA
fcp-trial,21,225858,0.0-6.0-2.0,voc_e2,12217,"[{""event"":""focus"",""trial"":1,""time"":1560},{""event"":""fullscreenenter"",""trial"":1,""time"":1885}]",NA,NA,NA,NA,NA,0,#EDC948,#46d3c8,10,10,1,38,1,3538,37,1,1048,10,1,practice,NA,NA,NA,NA,NA,NA,NA,NA,NA,NA
audio-instructions,22,237633,0.0-6.0-3.0,voc_e2,12217,"[{""event"":""focus"",""trial"":1,""time"":1560},{""event"":""fullscreenenter"",""trial"":1,""time"":1885}]",NA,754,static/audio/instructions11.wav,NA,0,NA,NA,NA,NA,NA,NA,NA,NA,NA,NA,NA,NA,NA,NA,NA,NA,NA,NA,NA,NA,NA,NA,NA,NA,NA
fcp-trial,23,241785,0.0-6.0-4.0,voc_e2,12217,"[{""event"":""focus"",""trial"":1,""time"":1560},{""event"":""fullscreenenter"",""trial"":1,""time"":1885}]",NA,NA,NA,NA,NA,6,#EDC948,#46d3c8,10,10,1,40,0,964,37,1,1657,10,1,practice,NA,NA,NA,NA,NA,NA,NA,NA,NA,NA
audio-instructions,24,261274,0.0-6.0-5.0,voc_e2,12217,"[{""event"":""focus"",""trial"":1,""time"":1560},{""event"":""fullscreenenter"",""trial"":1,""time"":1885}]",NA,795,static/audio/instructions12.wav,NA,0,NA,NA,NA,NA,NA,NA,NA,NA,NA,NA,NA,NA,NA,NA,NA,NA,NA,NA,NA,NA,NA,NA,NA,NA,NA
audio-instructions,25,269286,0.0-6.0-6.0,voc_e2,12217,"[{""event"":""focus"",""trial"":1,""time"":1560},{""event"":""fullscreenenter"",""trial"":1,""time"":1885}]",NA,406,static/audio/instructions13.wav,NA,0,NA,NA,NA,NA,NA,NA,NA,NA,NA,NA,NA,NA,NA,NA,NA,NA,NA,NA,NA,NA,NA,NA,NA,NA,NA
audio-instructions,26,278914,0.0-6.0-7.0,voc_e2,12217,"[{""event"":""focus"",""trial"":1,""time"":1560},{""event"":""fullscreenenter"",""trial"":1,""time"":1885}]",NA,1163,static/audio/instructions14.wav,NA,0,NA,NA,NA,NA,NA,NA,NA,NA,NA,NA,NA,NA,NA,NA,NA,NA,NA,NA,NA,NA,NA,NA,NA,NA,NA
audio-instructions,27,286201,0.0-7.0-0.0,voc_e2,12217,"[{""event"":""focus"",""trial"":1,""time"":1560},{""event"":""fullscreenenter"",""trial"":1,""time"":1885}]",NA,362,static/audio/instructions15.wav,NA,0,NA,NA,NA,NA,NA,NA,NA,NA,NA,NA,NA,NA,NA,NA,NA,NA,NA,NA,NA,NA,NA,NA,NA,NA,NA
audio-instructions,28,293405,0.0-7.0-1.0,voc_e2,12217,"[{""event"":""focus"",""trial"":1,""time"":1560},{""event"":""fullscreenenter"",""trial"":1,""time"":1885}]",NA,366,static/audio/instructions16.wav,NA,0,NA,NA,NA,NA,NA,NA,NA,NA,NA,NA,NA,NA,NA,NA,NA,NA,NA,NA,NA,NA,NA,NA,NA,NA,NA
audio-instructions,29,301469,0.0-7.0-2.0,voc_e2,12217,"[{""event"":""focus"",""trial"":1,""time"":1560},{""event"":""fullscreenenter"",""trial"":1,""time"":1885}]",NA,379,static/audio/instructions17.wav,NA,0,NA,NA,NA,NA,NA,NA,NA,NA,NA,NA,NA,NA,NA,NA,NA,NA,NA,NA,NA,NA,NA,NA,NA,NA,NA
audio-instructions,30,309732,0.0-7.0-3.0,voc_e2,12217,"[{""event"":""focus"",""trial"":1,""time"":1560},{""event"":""fullscreenenter"",""trial"":1,""time"":1885}]",NA,483,static/audio/instructions18.wav,NA,0,NA,NA,NA,NA,NA,NA,NA,NA,NA,NA,NA,NA,NA,NA,NA,NA,NA,NA,NA,NA,NA,NA,NA,NA,NA
audio-instructions,31,317001,0.0-7.0-4.0,voc_e2,12217,"[{""event"":""focus"",""trial"":1,""time"":1560},{""event"":""fullscreenenter"",""trial"":1,""time"":1885}]",NA,512,static/audio/instructions19.wav,NA,0,NA,NA,NA,NA,NA,NA,NA,NA,NA,NA,NA,NA,NA,NA,NA,NA,NA,NA,NA,NA,NA,NA,NA,NA,NA
fcp-comprehension,32,325078,0.0-7.0-5.0,voc_e2,12217,"[{""event"":""focus"",""trial"":1,""time"":1560},{""event"":""fullscreenenter"",""trial"":1,""time"":1885}]",NA,8074,NA,NA,NA,NA,NA,NA,NA,NA,NA,NA,NA,NA,NA,NA,NA,NA,NA,NA,"false,false,false,true",0,NA,NA,NA,NA,NA,NA,NA,NA
audio-instructions,33,335373,0.0-8.0,voc_e2,12217,"[{""event"":""focus"",""trial"":1,""time"":1560},{""event"":""fullscreenenter"",""trial"":1,""time"":1885}]",NA,1063,static/audio/ready.wav,NA,0,NA,NA,NA,NA,NA,NA,NA,NA,NA,NA,NA,NA,NA,NA,NA,NA,NA,NA,NA,NA,NA,NA,NA,NA,NA
fcp-trial,34,339459,0.0-9.0-0.0,voc_e2,12217,"[{""event"":""focus"",""trial"":1,""time"":1560},{""event"":""fullscreenenter"",""trial"":1,""time"":1885}]",NA,NA,NA,NA,NA,0,#FA92F8,#1CD855,10,0,1,38,1,1821,37,1,740,10,1,experiment,NA,NA,1,0.7,0.3,2,3,1,1,NA
fcp-trial,35,342805,0.0-10.0-0.0,voc_e2,12217,"[{""event"":""focus"",""trial"":1,""time"":1560},{""event"":""fullscreenenter"",""trial"":1,""time"":1885}]",NA,NA,NA,NA,NA,5,#D8271C,#741CD8,10,0,1,38,1,1178,37,1,658,10,1,experiment,NA,NA,2,0.5,0.5,4,5,2,1,NA
fcp-trial,36,345992,0.0-11.0-0.0,voc_e2,12217,"[{""event"":""focus"",""trial"":1,""time"":1560},{""event"":""fullscreenenter"",""trial"":1,""time"":1885}]",NA,NA,NA,NA,NA,1,#D89F1C,#3386FF,0,10,0,38,1,1083,37,1,596,0,0,experiment,NA,NA,0,0.1,0.9,1,0,3,1,NA
fcp-trial,37,349107,0.0-12.0-0.0,voc_e2,12217,"[{""event"":""focus"",""trial"":1,""time"":1560},{""event"":""fullscreenenter"",""trial"":1,""time"":1885}]",NA,NA,NA,NA,NA,5,#FA92F8,#1CD855,10,0,1,38,1,1018,37,1,583,10,1,experiment,NA,NA,1,0.7,0.3,2,3,4,1,NA
fcp-trial,38,354130,0.0-13.0-0.0,voc_e2,12217,"[{""event"":""focus"",""trial"":1,""time"":1560},{""event"":""fullscreenenter"",""trial"":1,""time"":1885}]",NA,NA,NA,NA,NA,0,#3386FF,#D89F1C,10,0,1,38,1,2842,39,0,660,0,0,experiment,NA,NA,0,0.9,0.1,0,1,5,1,NA
fcp-trial,39,357374,0.0-14.0-0.0,voc_e2,12217,"[{""event"":""focus"",""trial"":1,""time"":1560},{""event"":""fullscreenenter"",""trial"":1,""time"":1885}]",NA,NA,NA,NA,NA,2,#741CD8,#D8271C,0,0,0,38,1,937,37,1,791,0,0,experiment,NA,NA,2,0.5,0.5,5,4,6,1,NA
fcp-trial,40,360566,0.0-15.0-0.0,voc_e2,12217,"[{""event"":""focus"",""trial"":1,""time"":1560},{""event"":""fullscreenenter"",""trial"":1,""time"":1885}]",NA,NA,NA,NA,NA,4,#1CD855,#FA92F8,0,10,0,38,1,1113,37,1,564,0,0,experiment,NA,NA,1,0.3,0.7,3,2,7,1,NA
fcp-trial,41,364226,0.0-16.0-0.0,voc_e2,12217,"[{""event"":""focus"",""trial"":1,""time"":1560},{""event"":""fullscreenenter"",""trial"":1,""time"":1885}]",NA,NA,NA,NA,NA,6,#D8271C,#741CD8,0,0,1,38,1,993,37,1,1134,0,1,experiment,NA,NA,2,0.5,0.5,4,5,8,1,NA
fcp-trial,42,369938,0.0-17.0-0.0,voc_e2,12217,"[{""event"":""focus"",""trial"":1,""time"":1560},{""event"":""fullscreenenter"",""trial"":1,""time"":1885}]",NA,NA,NA,NA,NA,4,#D89F1C,#3386FF,0,10,0,38,1,2161,37,1,2028,0,0,experiment,NA,NA,0,0.1,0.9,1,0,9,1,NA
fcp-trial,43,374201,0.0-18.0-0.0,voc_e2,12217,"[{""event"":""focus"",""trial"":1,""time"":1560},{""event"":""fullscreenenter"",""trial"":1,""time"":1885}]",NA,NA,NA,NA,NA,1,#1CD855,#FA92F8,0,10,0,38,1,2239,39,0,507,10,1,experiment,NA,NA,1,0.3,0.7,3,2,10,1,NA
fcp-trial,44,378651,0.0-19.0-0.0,voc_e2,12217,"[{""event"":""focus"",""trial"":1,""time"":1560},{""event"":""fullscreenenter"",""trial"":1,""time"":1885}]",NA,NA,NA,NA,NA,6,#3386FF,#D89F1C,10,0,1,38,1,2442,37,1,488,10,1,experiment,NA,NA,0,0.9,0.1,0,1,11,1,NA
fcp-trial,45,381731,0.0-20.0-0.0,voc_e2,12217,"[{""event"":""focus"",""trial"":1,""time"":1560},{""event"":""fullscreenenter"",""trial"":1,""time"":1885}]",NA,NA,NA,NA,NA,4,#D8271C,#741CD8,0,0,1,38,1,915,37,1,647,0,1,experiment,NA,NA,2,0.5,0.5,4,5,12,1,NA
fcp-trial,46,385964,0.0-21.0-0.0,voc_e2,12217,"[{""event"":""focus"",""trial"":1,""time"":1560},{""event"":""fullscreenenter"",""trial"":1,""time"":1885}]",NA,NA,NA,NA,NA,5,#D89F1C,#3386FF,0,10,0,38,1,2285,39,0,421,10,1,experiment,NA,NA,0,0.1,0.9,1,0,13,1,NA
fcp-trial,47,388714,0.0-22.0-0.0,voc_e2,12217,"[{""event"":""focus"",""trial"":1,""time"":1560},{""event"":""fullscreenenter"",""trial"":1,""time"":1885}]",NA,NA,NA,NA,NA,2,#FA92F8,#1CD855,10,0,1,38,1,750,37,1,477,10,1,experiment,NA,NA,1,0.7,0.3,2,3,14,1,NA
fcp-trial,48,391633,0.0-23.0-0.0,voc_e2,12217,"[{""event"":""focus"",""trial"":1,""time"":1560},{""event"":""fullscreenenter"",""trial"":1,""time"":1885}]",NA,NA,NA,NA,NA,1,#D8271C,#741CD8,10,0,1,38,1,945,39,0,453,0,0,experiment,NA,NA,2,0.5,0.5,4,5,15,1,NA
fcp-trial,49,396107,0.0-24.0-0.0,voc_e2,12217,"[{""event"":""focus"",""trial"":1,""time"":1560},{""event"":""fullscreenenter"",""trial"":1,""time"":1885}]",NA,NA,NA,NA,NA,3,#741CD8,#D8271C,0,0,0,40,0,1929,37,1,1022,0,0,experiment,NA,NA,2,0.5,0.5,5,4,16,1,NA
fcp-trial,50,398884,0.0-25.0-0.0,voc_e2,12217,"[{""event"":""focus"",""trial"":1,""time"":1560},{""event"":""fullscreenenter"",""trial"":1,""time"":1885}]",NA,NA,NA,NA,NA,3,#1CD855,#FA92F8,0,10,0,38,1,819,39,0,443,10,1,experiment,NA,NA,1,0.3,0.7,3,2,17,1,NA
fcp-trial,51,402226,0.0-26.0-0.0,voc_e2,12217,"[{""event"":""focus"",""trial"":1,""time"":1560},{""event"":""fullscreenenter"",""trial"":1,""time"":1885}]",NA,NA,NA,NA,NA,3,#D89F1C,#3386FF,0,10,0,38,1,1298,39,0,520,10,1,experiment,NA,NA,0,0.1,0.9,1,0,18,1,NA
fcp-trial,52,404885,0.0-27.0-0.0,voc_e2,12217,"[{""event"":""focus"",""trial"":1,""time"":1560},{""event"":""fullscreenenter"",""trial"":1,""time"":1885}]",NA,NA,NA,NA,NA,2,#D89F1C,#3386FF,0,10,0,38,1,661,39,0,476,10,1,experiment,NA,NA,0,0.1,0.9,1,0,19,1,NA
fcp-trial,53,407328,0.0-28.0-0.0,voc_e2,12217,"[{""event"":""focus"",""trial"":1,""time"":1560},{""event"":""fullscreenenter"",""trial"":1,""time"":1885}]",NA,NA,NA,NA,NA,6,#FA92F8,#1CD855,10,0,1,38,1,514,37,1,402,10,1,experiment,NA,NA,1,0.7,0.3,2,3,20,1,NA
fcp-trial,54,413930,0.0-29.0-0.0,voc_e2,12217,"[{""event"":""focus"",""trial"":1,""time"":1560},{""event"":""fullscreenenter"",""trial"":1,""time"":1885}]",NA,NA,NA,NA,NA,0,#741CD8,#D8271C,10,0,0,40,0,4522,37,1,566,10,0,experiment,NA,NA,2,0.5,0.5,5,4,21,1,NA
fcp-trial,55,418098,0.0-30.0-0.0,voc_e2,12217,"[{""event"":""focus"",""trial"":1,""time"":1560},{""event"":""fullscreenenter"",""trial"":1,""time"":1885}]",NA,NA,NA,NA,NA,1,#D89F1C,#3386FF,0,10,0,40,0,1879,37,1,763,0,0,experiment,NA,NA,0,0.1,0.9,1,0,22,1,NA
fcp-trial,56,420960,0.0-31.0-0.0,voc_e2,12217,"[{""event"":""focus"",""trial"":1,""time"":1560},{""event"":""fullscreenenter"",""trial"":1,""time"":1885}]",NA,NA,NA,NA,NA,2,#3386FF,#D89F1C,10,0,1,38,1,920,37,1,422,10,1,experiment,NA,NA,0,0.9,0.1,0,1,23,1,NA
fcp-trial,57,423558,0.0-32.0-0.0,voc_e2,12217,"[{""event"":""focus"",""trial"":1,""time"":1560},{""event"":""fullscreenenter"",""trial"":1,""time"":1885}]",NA,NA,NA,NA,NA,3,#1CD855,#FA92F8,0,10,0,38,1,611,39,0,463,10,1,experiment,NA,NA,1,0.3,0.7,3,2,24,1,NA
fcp-trial,58,426128,0.0-33.0-0.0,voc_e2,12217,"[{""event"":""focus"",""trial"":1,""time"":1560},{""event"":""fullscreenenter"",""trial"":1,""time"":1885}]",NA,NA,NA,NA,NA,4,#1CD855,#FA92F8,10,10,0,38,1,571,39,0,490,10,1,experiment,NA,NA,1,0.3,0.7,3,2,25,1,NA
fcp-trial,59,431763,0.0-34.0-0.0,voc_e2,12217,"[{""event"":""focus"",""trial"":1,""time"":1560},{""event"":""fullscreenenter"",""trial"":1,""time"":1885}]",NA,NA,NA,NA,NA,0,#741CD8,#D8271C,0,0,0,38,1,3772,37,1,338,0,0,experiment,NA,NA,2,0.5,0.5,5,4,26,1,NA
fcp-trial,60,435494,0.0-35.0-0.0,voc_e2,12217,"[{""event"":""focus"",""trial"":1,""time"":1560},{""event"":""fullscreenenter"",""trial"":1,""time"":1885}]",NA,NA,NA,NA,NA,0,#3386FF,#D89F1C,10,0,1,38,1,1836,37,1,376,10,1,experiment,NA,NA,0,0.9,0.1,0,1,27,1,NA
fcp-trial,61,437783,0.0-36.0-0.0,voc_e2,12217,"[{""event"":""focus"",""trial"":1,""time"":1560},{""event"":""fullscreenenter"",""trial"":1,""time"":1885}]",NA,NA,NA,NA,NA,5,#1CD855,#FA92F8,0,0,0,38,1,418,39,0,343,0,1,experiment,NA,NA,1,0.3,0.7,3,2,28,1,NA
fcp-trial,62,442524,0.0-37.0-0.0,voc_e2,12217,"[{""event"":""focus"",""trial"":1,""time"":1560},{""event"":""fullscreenenter"",""trial"":1,""time"":1885}]",NA,NA,NA,NA,NA,5,#741CD8,#D8271C,10,10,0,40,0,2619,37,1,599,10,0,experiment,NA,NA,2,0.5,0.5,5,4,29,1,NA
fcp-trial,63,445750,0.0-38.0-0.0,voc_e2,12217,"[{""event"":""focus"",""trial"":1,""time"":1560},{""event"":""fullscreenenter"",""trial"":1,""time"":1885}]",NA,NA,NA,NA,NA,4,#3386FF,#D89F1C,10,0,1,38,1,1245,37,1,450,10,1,experiment,NA,NA,0,0.9,0.1,0,1,30,1,NA
fcp-trial,64,448373,0.0-39.0-0.0,voc_e2,12217,"[{""event"":""focus"",""trial"":1,""time"":1560},{""event"":""fullscreenenter"",""trial"":1,""time"":1885}]",NA,NA,NA,NA,NA,0,#FA92F8,#1CD855,10,0,1,38,1,659,37,1,447,10,1,experiment,NA,NA,1,0.7,0.3,2,3,31,1,NA
fcp-trial,65,450910,0.0-40.0-0.0,voc_e2,12217,"[{""event"":""focus"",""trial"":1,""time"":1560},{""event"":""fullscreenenter"",""trial"":1,""time"":1885}]",NA,NA,NA,NA,NA,2,#1CD855,#FA92F8,10,0,0,38,1,592,39,0,422,0,1,experiment,NA,NA,1,0.3,0.7,3,2,32,1,NA
fcp-trial,66,455891,0.0-41.0-0.0,voc_e2,12217,"[{""event"":""focus"",""trial"":1,""time"":1560},{""event"":""fullscreenenter"",""trial"":1,""time"":1885}]",NA,NA,NA,NA,NA,3,#741CD8,#D8271C,10,0,0,40,0,2993,37,1,464,10,0,experiment,NA,NA,2,0.5,0.5,5,4,33,1,NA
fcp-trial,67,459281,0.0-42.0-0.0,voc_e2,12217,"[{""event"":""focus"",""trial"":1,""time"":1560},{""event"":""fullscreenenter"",""trial"":1,""time"":1885}]",NA,NA,NA,NA,NA,3,#D89F1C,#3386FF,0,10,0,38,1,1538,39,0,320,10,1,experiment,NA,NA,0,0.1,0.9,1,0,34,1,NA
fcp-trial,68,461950,0.0-43.0-0.0,voc_e2,12217,"[{""event"":""focus"",""trial"":1,""time"":1560},{""event"":""fullscreenenter"",""trial"":1,""time"":1885}]",NA,NA,NA,NA,NA,1,#1CD855,#FA92F8,10,0,0,38,1,696,39,0,454,0,1,experiment,NA,NA,1,0.3,0.7,3,2,35,1,NA
fcp-trial,69,466427,0.0-44.0-0.0,voc_e2,12217,"[{""event"":""focus"",""trial"":1,""time"":1560},{""event"":""fullscreenenter"",""trial"":1,""time"":1885}]",NA,NA,NA,NA,NA,6,#D89F1C,#3386FF,0,10,0,38,1,2608,39,0,346,10,1,experiment,NA,NA,0,0.1,0.9,1,0,36,1,NA
fcp-trial,70,471268,0.0-45.0-0.0,voc_e2,12217,"[{""event"":""focus"",""trial"":1,""time"":1560},{""event"":""fullscreenenter"",""trial"":1,""time"":1885}]",NA,NA,NA,NA,NA,2,#741CD8,#D8271C,10,10,0,38,1,2983,37,1,335,10,0,experiment,NA,NA,2,0.5,0.5,5,4,37,1,NA
fcp-trial,71,474096,0.0-46.0-0.0,voc_e2,12217,"[{""event"":""focus"",""trial"":1,""time"":1560},{""event"":""fullscreenenter"",""trial"":1,""time"":1885}]",NA,NA,NA,NA,NA,6,#D8271C,#741CD8,0,10,1,38,1,880,39,0,432,10,0,experiment,NA,NA,2,0.5,0.5,4,5,38,1,NA
fcp-trial,72,477139,0.0-47.0-0.0,voc_e2,12217,"[{""event"":""focus"",""trial"":1,""time"":1560},{""event"":""fullscreenenter"",""trial"":1,""time"":1885}]",NA,NA,NA,NA,NA,5,#D89F1C,#3386FF,0,10,0,38,1,1126,39,0,400,10,1,experiment,NA,NA,0,0.1,0.9,1,0,39,1,NA
fcp-trial,73,479822,0.0-48.0-0.0,voc_e2,12217,"[{""event"":""focus"",""trial"":1,""time"":1560},{""event"":""fullscreenenter"",""trial"":1,""time"":1885}]",NA,NA,NA,NA,NA,6,#FA92F8,#1CD855,10,10,1,38,1,721,37,1,443,10,1,experiment,NA,NA,1,0.7,0.3,2,3,40,1,NA
fcp-trial,74,486529,0.0-49.0-0.0,voc_e2,12217,"[{""event"":""focus"",""trial"":1,""time"":1560},{""event"":""fullscreenenter"",""trial"":1,""time"":1885}]",NA,NA,NA,NA,NA,4,#741CD8,#D8271C,10,0,0,38,1,4913,37,1,276,10,0,experiment,NA,NA,2,0.5,0.5,5,4,41,1,NA
fcp-trial,75,489500,0.0-50.0-0.0,voc_e2,12217,"[{""event"":""focus"",""trial"":1,""time"":1560},{""event"":""fullscreenenter"",""trial"":1,""time"":1885}]",NA,NA,NA,NA,NA,1,#741CD8,#D8271C,0,0,0,38,1,1012,37,1,440,0,0,experiment,NA,NA,2,0.5,0.5,5,4,42,1,NA
fcp-trial,76,491835,0.0-51.0-0.0,voc_e2,12217,"[{""event"":""focus"",""trial"":1,""time"":1560},{""event"":""fullscreenenter"",""trial"":1,""time"":1885}]",NA,NA,NA,NA,NA,4,#741CD8,#D8271C,0,10,0,38,1,458,37,1,356,0,0,experiment,NA,NA,2,0.5,0.5,5,4,43,1,NA
fcp-trial,77,494746,0.0-52.0-0.0,voc_e2,12217,"[{""event"":""focus"",""trial"":1,""time"":1560},{""event"":""fullscreenenter"",""trial"":1,""time"":1885}]",NA,NA,NA,NA,NA,2,#3386FF,#D89F1C,0,10,1,38,1,963,37,1,443,0,1,experiment,NA,NA,0,0.9,0.1,0,1,44,1,NA
fcp-trial,78,497260,0.0-53.0-0.0,voc_e2,12217,"[{""event"":""focus"",""trial"":1,""time"":1560},{""event"":""fullscreenenter"",""trial"":1,""time"":1885}]",NA,NA,NA,NA,NA,5,#FA92F8,#1CD855,0,10,1,38,1,620,37,1,374,0,1,experiment,NA,NA,1,0.7,0.3,2,3,45,1,NA
fcp-trial,79,503465,0.0-54.0-0.0,voc_e2,12217,"[{""event"":""focus"",""trial"":1,""time"":1560},{""event"":""fullscreenenter"",""trial"":1,""time"":1885}]",NA,NA,NA,NA,NA,1,#741CD8,#D8271C,10,0,0,38,1,4322,37,1,356,10,0,experiment,NA,NA,2,0.5,0.5,5,4,46,2,NA
fcp-trial,80,506115,0.0-55.0-0.0,voc_e2,12217,"[{""event"":""focus"",""trial"":1,""time"":1560},{""event"":""fullscreenenter"",""trial"":1,""time"":1885}]",NA,NA,NA,NA,NA,6,#D89F1C,#3386FF,0,10,0,38,1,792,39,0,335,10,1,experiment,NA,NA,0,0.1,0.9,1,0,47,2,NA
fcp-trial,81,508494,0.0-56.0-0.0,voc_e2,12217,"[{""event"":""focus"",""trial"":1,""time"":1560},{""event"":""fullscreenenter"",""trial"":1,""time"":1885}]",NA,NA,NA,NA,NA,4,#D89F1C,#3386FF,0,10,0,38,1,470,39,0,397,10,1,experiment,NA,NA,0,0.1,0.9,1,0,48,2,NA
fcp-trial,82,510890,0.0-57.0-0.0,voc_e2,12217,"[{""event"":""focus"",""trial"":1,""time"":1560},{""event"":""fullscreenenter"",""trial"":1,""time"":1885}]",NA,NA,NA,NA,NA,0,#D89F1C,#3386FF,0,10,0,38,1,503,39,0,380,10,1,experiment,NA,NA,0,0.1,0.9,1,0,49,2,NA
fcp-trial,83,514511,0.0-58.0-0.0,voc_e2,12217,"[{""event"":""focus"",""trial"":1,""time"":1560},{""event"":""fullscreenenter"",""trial"":1,""time"":1885}]",NA,NA,NA,NA,NA,6,#FA92F8,#1CD855,10,0,1,40,0,1679,37,1,417,10,1,experiment,NA,NA,1,0.7,0.3,2,3,50,2,NA
fcp-trial,84,518112,0.0-59.0-0.0,voc_e2,12217,"[{""event"":""focus"",""trial"":1,""time"":1560},{""event"":""fullscreenenter"",""trial"":1,""time"":1885}]",NA,NA,NA,NA,NA,0,#741CD8,#D8271C,0,0,0,38,1,1717,37,1,363,0,0,experiment,NA,NA,2,0.5,0.5,5,4,51,2,NA
fcp-trial,85,521474,0.0-60.0-0.0,voc_e2,12217,"[{""event"":""focus"",""trial"":1,""time"":1560},{""event"":""fullscreenenter"",""trial"":1,""time"":1885}]",NA,NA,NA,NA,NA,2,#FA92F8,#1CD855,10,0,1,38,1,1474,37,1,361,10,1,experiment,NA,NA,1,0.7,0.3,2,3,52,2,NA
fcp-trial,86,525110,0.0-61.0-0.0,voc_e2,12217,"[{""event"":""focus"",""trial"":1,""time"":1560},{""event"":""fullscreenenter"",""trial"":1,""time"":1885}]",NA,NA,NA,NA,NA,2,#D8271C,#741CD8,10,0,1,40,0,1680,39,0,441,0,0,experiment,NA,NA,2,0.5,0.5,4,5,53,2,NA
fcp-trial,87,528757,0.0-62.0-0.0,voc_e2,12217,"[{""event"":""focus"",""trial"":1,""time"":1560},{""event"":""fullscreenenter"",""trial"":1,""time"":1885}]",NA,NA,NA,NA,NA,3,#3386FF,#D89F1C,10,0,1,38,1,1859,37,1,274,10,1,experiment,NA,NA,0,0.9,0.1,0,1,54,2,NA
fcp-trial,88,532029,0.0-63.0-0.0,voc_e2,12217,"[{""event"":""focus"",""trial"":1,""time"":1560},{""event"":""fullscreenenter"",""trial"":1,""time"":1885}]",NA,NA,NA,NA,NA,6,#D8271C,#741CD8,10,10,1,40,0,1243,37,1,514,10,1,experiment,NA,NA,2,0.5,0.5,4,5,55,2,NA
fcp-trial,89,536072,0.0-64.0-0.0,voc_e2,12217,"[{""event"":""focus"",""trial"":1,""time"":1560},{""event"":""fullscreenenter"",""trial"":1,""time"":1885}]",NA,NA,NA,NA,NA,1,#D89F1C,#3386FF,0,10,0,38,1,2171,39,0,349,10,1,experiment,NA,NA,0,0.1,0.9,1,0,56,2,NA
fcp-trial,90,540711,0.0-65.0-0.0,voc_e2,12217,"[{""event"":""focus"",""trial"":1,""time"":1560},{""event"":""fullscreenenter"",""trial"":1,""time"":1885}]",NA,NA,NA,NA,NA,0,#FA92F8,#1CD855,0,0,1,38,1,2222,37,1,891,0,1,experiment,NA,NA,1,0.7,0.3,2,3,57,2,NA
fcp-trial,91,544017,0.0-66.0-0.0,voc_e2,12217,"[{""event"":""focus"",""trial"":1,""time"":1560},{""event"":""fullscreenenter"",""trial"":1,""time"":1885}]",NA,NA,NA,NA,NA,5,#741CD8,#D8271C,10,10,0,40,0,1338,39,0,455,10,1,experiment,NA,NA,2,0.5,0.5,5,4,58,2,NA
fcp-trial,92,549247,0.0-67.0-0.0,voc_e2,12217,"[{""event"":""focus"",""trial"":1,""time"":1560},{""event"":""fullscreenenter"",""trial"":1,""time"":1885}]",NA,NA,NA,NA,NA,5,#3386FF,#D89F1C,10,0,1,38,1,2884,37,1,821,10,1,experiment,NA,NA,0,0.9,0.1,0,1,59,2,NA
fcp-trial,93,552733,0.0-68.0-0.0,voc_e2,12217,"[{""event"":""focus"",""trial"":1,""time"":1560},{""event"":""fullscreenenter"",""trial"":1,""time"":1885}]",NA,NA,NA,NA,NA,3,#741CD8,#D8271C,0,0,0,40,0,1517,37,1,458,0,0,experiment,NA,NA,2,0.5,0.5,5,4,60,2,NA
fcp-trial,94,555892,0.0-69.0-0.0,voc_e2,12217,"[{""event"":""focus"",""trial"":1,""time"":1560},{""event"":""fullscreenenter"",""trial"":1,""time"":1885}]",NA,NA,NA,NA,NA,3,#FA92F8,#1CD855,0,0,1,38,1,1380,37,1,268,0,1,experiment,NA,NA,1,0.7,0.3,2,3,61,2,NA
fcp-trial,95,559084,0.0-70.0-0.0,voc_e2,12217,"[{""event"":""focus"",""trial"":1,""time"":1560},{""event"":""fullscreenenter"",""trial"":1,""time"":1885}]",NA,NA,NA,NA,NA,1,#1CD855,#FA92F8,10,0,0,40,0,1185,39,0,481,0,1,experiment,NA,NA,1,0.3,0.7,3,2,62,2,NA
fcp-trial,96,562939,0.0-71.0-0.0,voc_e2,12217,"[{""event"":""focus"",""trial"":1,""time"":1560},{""event"":""fullscreenenter"",""trial"":1,""time"":1885}]",NA,NA,NA,NA,NA,4,#FA92F8,#1CD855,10,0,1,40,0,1765,39,0,576,0,0,experiment,NA,NA,1,0.7,0.3,2,3,63,2,NA
fcp-trial,97,565857,0.0-72.0-0.0,voc_e2,12217,"[{""event"":""focus"",""trial"":1,""time"":1560},{""event"":""fullscreenenter"",""trial"":1,""time"":1885}]",NA,NA,NA,NA,NA,5,#1CD855,#FA92F8,0,10,0,40,0,988,37,1,407,0,0,experiment,NA,NA,1,0.3,0.7,3,2,64,2,NA
fcp-trial,98,569097,0.0-73.0-0.0,voc_e2,12217,"[{""event"":""focus"",""trial"":1,""time"":1560},{""event"":""fullscreenenter"",""trial"":1,""time"":1885}]",NA,NA,NA,NA,NA,1,#3386FF,#D89F1C,10,0,1,38,1,1386,37,1,333,10,1,experiment,NA,NA,0,0.9,0.1,0,1,65,2,NA
fcp-trial,99,576596,0.0-74.0-0.0,voc_e2,12217,"[{""event"":""focus"",""trial"":1,""time"":1560},{""event"":""fullscreenenter"",""trial"":1,""time"":1885}]",NA,NA,NA,NA,NA,3,#D8271C,#741CD8,10,0,1,40,0,5508,37,1,468,10,1,experiment,NA,NA,2,0.5,0.5,4,5,66,2,NA
fcp-trial,100,580642,0.0-75.0-0.0,voc_e2,12217,"[{""event"":""focus"",""trial"":1,""time"":1560},{""event"":""fullscreenenter"",""trial"":1,""time"":1885}]",NA,NA,NA,NA,NA,0,#741CD8,#D8271C,10,10,0,38,1,1463,39,0,1059,10,1,experiment,NA,NA,2,0.5,0.5,5,4,67,2,NA
fcp-trial,101,583861,0.0-76.0-0.0,voc_e2,12217,"[{""event"":""focus"",""trial"":1,""time"":1560},{""event"":""fullscreenenter"",""trial"":1,""time"":1885}]",NA,NA,NA,NA,NA,0,#FA92F8,#1CD855,10,0,1,38,1,1316,37,1,362,10,1,experiment,NA,NA,1,0.7,0.3,2,3,68,2,NA
fcp-trial,102,587002,0.0-77.0-0.0,voc_e2,12217,"[{""event"":""focus"",""trial"":1,""time"":1560},{""event"":""fullscreenenter"",""trial"":1,""time"":1885}]",NA,NA,NA,NA,NA,6,#D89F1C,#3386FF,0,10,0,38,1,1003,39,0,617,10,1,experiment,NA,NA,0,0.1,0.9,1,0,69,2,NA
fcp-trial,103,589739,0.0-78.0-0.0,voc_e2,12217,"[{""event"":""focus"",""trial"":1,""time"":1560},{""event"":""fullscreenenter"",""trial"":1,""time"":1885}]",NA,NA,NA,NA,NA,1,#1CD855,#FA92F8,0,10,0,38,1,705,37,1,517,0,0,experiment,NA,NA,1,0.3,0.7,3,2,70,2,NA
fcp-trial,104,592296,0.0-79.0-0.0,voc_e2,12217,"[{""event"":""focus"",""trial"":1,""time"":1560},{""event"":""fullscreenenter"",""trial"":1,""time"":1885}]",NA,NA,NA,NA,NA,5,#3386FF,#D89F1C,0,0,1,38,1,553,37,1,491,0,1,experiment,NA,NA,0,0.9,0.1,0,1,71,2,NA
fcp-trial,105,594800,0.0-80.0-0.0,voc_e2,12217,"[{""event"":""focus"",""trial"":1,""time"":1560},{""event"":""fullscreenenter"",""trial"":1,""time"":1885}]",NA,NA,NA,NA,NA,6,#741CD8,#D8271C,10,10,0,38,1,640,39,0,343,10,1,experiment,NA,NA,2,0.5,0.5,5,4,72,2,NA
fcp-trial,106,599982,0.0-81.0-0.0,voc_e2,12217,"[{""event"":""focus"",""trial"":1,""time"":1560},{""event"":""fullscreenenter"",""trial"":1,""time"":1885}]",NA,NA,NA,NA,NA,2,#1CD855,#FA92F8,0,10,0,38,1,2184,37,1,1487,0,0,experiment,NA,NA,1,0.3,0.7,3,2,73,2,NA
fcp-trial,107,603471,0.0-82.0-0.0,voc_e2,12217,"[{""event"":""focus"",""trial"":1,""time"":1560},{""event"":""fullscreenenter"",""trial"":1,""time"":1885}]",NA,NA,NA,NA,NA,5,#D8271C,#741CD8,10,0,1,40,0,1564,39,0,412,0,0,experiment,NA,NA,2,0.5,0.5,4,5,74,2,NA
fcp-trial,108,606222,0.0-83.0-0.0,voc_e2,12217,"[{""event"":""focus"",""trial"":1,""time"":1560},{""event"":""fullscreenenter"",""trial"":1,""time"":1885}]",NA,NA,NA,NA,NA,3,#FA92F8,#1CD855,0,10,1,38,1,826,37,1,400,0,1,experiment,NA,NA,1,0.7,0.3,2,3,75,2,NA
fcp-trial,109,609071,0.0-84.0-0.0,voc_e2,12217,"[{""event"":""focus"",""trial"":1,""time"":1560},{""event"":""fullscreenenter"",""trial"":1,""time"":1885}]",NA,NA,NA,NA,NA,0,#D89F1C,#3386FF,0,10,0,38,1,992,39,0,340,10,1,experiment,NA,NA,0,0.1,0.9,1,0,76,2,NA
fcp-trial,110,611889,0.0-85.0-0.0,voc_e2,12217,"[{""event"":""focus"",""trial"":1,""time"":1560},{""event"":""fullscreenenter"",""trial"":1,""time"":1885}]",NA,NA,NA,NA,NA,4,#D89F1C,#3386FF,0,10,0,38,1,857,39,0,448,10,1,experiment,NA,NA,0,0.1,0.9,1,0,77,2,NA
fcp-trial,111,615987,0.0-86.0-0.0,voc_e2,12217,"[{""event"":""focus"",""trial"":1,""time"":1560},{""event"":""fullscreenenter"",""trial"":1,""time"":1885}]",NA,NA,NA,NA,NA,4,#D8271C,#741CD8,0,10,1,38,1,699,39,0,1887,10,0,experiment,NA,NA,2,0.5,0.5,4,5,78,2,NA
fcp-trial,112,618549,0.0-87.0-0.0,voc_e2,12217,"[{""event"":""focus"",""trial"":1,""time"":1560},{""event"":""fullscreenenter"",""trial"":1,""time"":1885}]",NA,NA,NA,NA,NA,6,#1CD855,#FA92F8,10,10,0,38,1,623,39,0,429,10,1,experiment,NA,NA,1,0.3,0.7,3,2,79,2,NA
fcp-trial,113,622190,0.0-88.0-0.0,voc_e2,12217,"[{""event"":""focus"",""trial"":1,""time"":1560},{""event"":""fullscreenenter"",""trial"":1,""time"":1885}]",NA,NA,NA,NA,NA,2,#3386FF,#D89F1C,10,0,1,38,1,1850,37,1,272,10,1,experiment,NA,NA,0,0.9,0.1,0,1,80,2,NA
fcp-trial,114,625493,0.0-89.0-0.0,voc_e2,12217,"[{""event"":""focus"",""trial"":1,""time"":1560},{""event"":""fullscreenenter"",""trial"":1,""time"":1885}]",NA,NA,NA,NA,NA,4,#1CD855,#FA92F8,0,10,0,40,0,1387,39,0,387,10,1,experiment,NA,NA,1,0.3,0.7,3,2,81,2,NA
fcp-trial,115,628230,0.0-90.0-0.0,voc_e2,12217,"[{""event"":""focus"",""trial"":1,""time"":1560},{""event"":""fullscreenenter"",""trial"":1,""time"":1885}]",NA,NA,NA,NA,NA,3,#D89F1C,#3386FF,0,10,0,38,1,862,39,0,359,10,1,experiment,NA,NA,0,0.1,0.9,1,0,82,2,NA
fcp-trial,116,631944,0.0-91.0-0.0,voc_e2,12217,"[{""event"":""focus"",""trial"":1,""time"":1560},{""event"":""fullscreenenter"",""trial"":1,""time"":1885}]",NA,NA,NA,NA,NA,2,#D8271C,#741CD8,10,10,1,40,0,1702,39,0,502,10,0,experiment,NA,NA,2,0.5,0.5,4,5,83,2,NA
fcp-trial,117,634668,0.0-92.0-0.0,voc_e2,12217,"[{""event"":""focus"",""trial"":1,""time"":1560},{""event"":""fullscreenenter"",""trial"":1,""time"":1885}]",NA,NA,NA,NA,NA,1,#741CD8,#D8271C,0,10,0,40,0,737,37,1,468,0,0,experiment,NA,NA,2,0.5,0.5,5,4,84,2,NA
fcp-trial,118,637528,0.0-93.0-0.0,voc_e2,12217,"[{""event"":""focus"",""trial"":1,""time"":1560},{""event"":""fullscreenenter"",""trial"":1,""time"":1885}]",NA,NA,NA,NA,NA,5,#D89F1C,#3386FF,0,10,0,38,1,901,39,0,434,10,1,experiment,NA,NA,0,0.1,0.9,1,0,85,2,NA
fcp-trial,119,641570,0.0-94.0-0.0,voc_e2,12217,"[{""event"":""focus"",""trial"":1,""time"":1560},{""event"":""fullscreenenter"",""trial"":1,""time"":1885}]",NA,NA,NA,NA,NA,1,#FA92F8,#1CD855,10,0,1,40,0,2092,37,1,423,10,1,experiment,NA,NA,1,0.7,0.3,2,3,86,2,NA
fcp-trial,120,644625,0.0-95.0-0.0,voc_e2,12217,"[{""event"":""focus"",""trial"":1,""time"":1560},{""event"":""fullscreenenter"",""trial"":1,""time"":1885}]",NA,NA,NA,NA,NA,4,#3386FF,#D89F1C,10,0,1,38,1,1099,37,1,443,10,1,experiment,NA,NA,0,0.9,0.1,0,1,87,2,NA
fcp-trial,121,647615,0.0-96.0-0.0,voc_e2,12217,"[{""event"":""focus"",""trial"":1,""time"":1560},{""event"":""fullscreenenter"",""trial"":1,""time"":1885}]",NA,NA,NA,NA,NA,2,#FA92F8,#1CD855,10,0,1,40,0,1022,37,1,459,10,1,experiment,NA,NA,1,0.7,0.3,2,3,88,2,NA
fcp-trial,122,650871,0.0-97.0-0.0,voc_e2,12217,"[{""event"":""focus"",""trial"":1,""time"":1560},{""event"":""fullscreenenter"",""trial"":1,""time"":1885}]",NA,NA,NA,NA,NA,1,#D8271C,#741CD8,0,10,1,40,0,1276,37,1,460,0,1,experiment,NA,NA,2,0.5,0.5,4,5,89,2,NA
fcp-trial,123,653696,0.0-98.0-0.0,voc_e2,12217,"[{""event"":""focus"",""trial"":1,""time"":1560},{""event"":""fullscreenenter"",""trial"":1,""time"":1885}]",NA,NA,NA,NA,NA,3,#D89F1C,#3386FF,0,10,0,38,1,948,39,0,355,10,1,experiment,NA,NA,0,0.1,0.9,1,0,90,2,NA
fcp-trial,124,656717,0.0-99.0-0.0,voc_e2,12217,"[{""event"":""focus"",""trial"":1,""time"":1560},{""event"":""fullscreenenter"",""trial"":1,""time"":1885}]",NA,NA,NA,NA,NA,3,#D8271C,#741CD8,10,10,1,40,0,1055,37,1,458,10,1,experiment,NA,NA,2,0.5,0.5,4,5,91,3,NA
fcp-trial,125,663380,0.0-100.0-0.0,voc_e2,12217,"[{""event"":""focus"",""trial"":1,""time"":1560},{""event"":""fullscreenenter"",""trial"":1,""time"":1885}]",NA,NA,NA,NA,NA,4,#FA92F8,#1CD855,10,10,1,40,0,4554,39,0,595,10,0,experiment,NA,NA,1,0.7,0.3,2,3,92,3,NA
fcp-trial,126,666755,0.0-101.0-0.0,voc_e2,12217,"[{""event"":""focus"",""trial"":1,""time"":1560},{""event"":""fullscreenenter"",""trial"":1,""time"":1885}]",NA,NA,NA,NA,NA,6,#D8271C,#741CD8,10,10,1,40,0,1365,39,0,487,10,0,experiment,NA,NA,2,0.5,0.5,4,5,93,3,NA
fcp-trial,127,669832,0.0-102.0-0.0,voc_e2,12217,"[{""event"":""focus"",""trial"":1,""time"":1560},{""event"":""fullscreenenter"",""trial"":1,""time"":1885}]",NA,NA,NA,NA,NA,2,#3386FF,#D89F1C,10,0,1,38,1,1242,37,1,303,10,1,experiment,NA,NA,0,0.9,0.1,0,1,94,3,NA
fcp-trial,128,673261,0.0-103.0-0.0,voc_e2,12217,"[{""event"":""focus"",""trial"":1,""time"":1560},{""event"":""fullscreenenter"",""trial"":1,""time"":1885}]",NA,NA,NA,NA,NA,2,#741CD8,#D8271C,0,0,0,40,0,1395,37,1,516,0,0,experiment,NA,NA,2,0.5,0.5,5,4,95,3,NA
fcp-trial,129,677404,0.0-104.0-0.0,voc_e2,12217,"[{""event"":""focus"",""trial"":1,""time"":1560},{""event"":""fullscreenenter"",""trial"":1,""time"":1885}]",NA,NA,NA,NA,NA,5,#1CD855,#FA92F8,0,10,0,40,0,2201,37,1,420,0,0,experiment,NA,NA,1,0.3,0.7,3,2,96,3,NA
fcp-trial,130,680497,0.0-105.0-0.0,voc_e2,12217,"[{""event"":""focus"",""trial"":1,""time"":1560},{""event"":""fullscreenenter"",""trial"":1,""time"":1885}]",NA,NA,NA,NA,NA,0,#FA92F8,#1CD855,10,0,1,38,1,1093,37,1,479,10,1,experiment,NA,NA,1,0.7,0.3,2,3,97,3,NA
fcp-trial,131,683905,0.0-106.0-0.0,voc_e2,12217,"[{""event"":""focus"",""trial"":1,""time"":1560},{""event"":""fullscreenenter"",""trial"":1,""time"":1885}]",NA,NA,NA,NA,NA,0,#3386FF,#D89F1C,10,10,1,38,1,1413,37,1,477,10,1,experiment,NA,NA,0,0.9,0.1,0,1,98,3,NA
fcp-trial,132,686580,0.0-107.0-0.0,voc_e2,12217,"[{""event"":""focus"",""trial"":1,""time"":1560},{""event"":""fullscreenenter"",""trial"":1,""time"":1885}]",NA,NA,NA,NA,NA,1,#3386FF,#D89F1C,10,0,1,38,1,663,37,1,501,10,1,experiment,NA,NA,0,0.9,0.1,0,1,99,3,NA
fcp-trial,133,690124,0.0-108.0-0.0,voc_e2,12217,"[{""event"":""focus"",""trial"":1,""time"":1560},{""event"":""fullscreenenter"",""trial"":1,""time"":1885}]",NA,NA,NA,NA,NA,4,#741CD8,#D8271C,0,0,0,40,0,1560,39,0,470,0,1,experiment,NA,NA,2,0.5,0.5,5,4,100,3,NA
fcp-trial,134,692939,0.0-109.0-0.0,voc_e2,12217,"[{""event"":""focus"",""trial"":1,""time"":1560},{""event"":""fullscreenenter"",""trial"":1,""time"":1885}]",NA,NA,NA,NA,NA,3,#1CD855,#FA92F8,10,10,0,38,1,873,39,0,416,10,1,experiment,NA,NA,1,0.3,0.7,3,2,101,3,NA
fcp-trial,135,695865,0.0-110.0-0.0,voc_e2,12217,"[{""event"":""focus"",""trial"":1,""time"":1560},{""event"":""fullscreenenter"",""trial"":1,""time"":1885}]",NA,NA,NA,NA,NA,5,#741CD8,#D8271C,0,10,0,40,0,852,39,0,565,10,1,experiment,NA,NA,2,0.5,0.5,5,4,102,3,NA
fcp-trial,136,698665,0.0-111.0-0.0,voc_e2,12217,"[{""event"":""focus"",""trial"":1,""time"":1560},{""event"":""fullscreenenter"",""trial"":1,""time"":1885}]",NA,NA,NA,NA,NA,0,#741CD8,#D8271C,10,10,0,40,0,676,39,0,611,10,1,experiment,NA,NA,2,0.5,0.5,5,4,103,3,NA
fcp-trial,137,701943,0.0-112.0-0.0,voc_e2,12217,"[{""event"":""focus"",""trial"":1,""time"":1560},{""event"":""fullscreenenter"",""trial"":1,""time"":1885}]",NA,NA,NA,NA,NA,6,#3386FF,#D89F1C,10,10,1,38,1,1104,37,1,650,10,1,experiment,NA,NA,0,0.9,0.1,0,1,104,3,NA
fcp-trial,138,705764,0.0-113.0-0.0,voc_e2,12217,"[{""event"":""focus"",""trial"":1,""time"":1560},{""event"":""fullscreenenter"",""trial"":1,""time"":1885}]",NA,NA,NA,NA,NA,6,#1CD855,#FA92F8,10,0,0,40,0,1860,39,0,440,0,1,experiment,NA,NA,1,0.3,0.7,3,2,105,3,NA
audio-instructions,139,1460146,0.0-114.0,voc_e2,12217,"[{""event"":""focus"",""trial"":1,""time"":1560},{""event"":""fullscreenenter"",""trial"":1,""time"":1885},{""event"":""blur"",""trial"":139,""time"":1233044},{""event"":""focus"",""trial"":139,""time"":1244973}]",NA,749937,static/audio/pause.wav,NA,0,NA,NA,NA,NA,NA,NA,NA,NA,NA,NA,NA,NA,NA,NA,NA,NA,NA,NA,NA,NA,NA,NA,NA,NA,NA
fcp-trial,140,1464951,0.0-115.0-0.0,voc_e2,12217,"[{""event"":""focus"",""trial"":1,""time"":1560},{""event"":""fullscreenenter"",""trial"":1,""time"":1885},{""event"":""blur"",""trial"":139,""time"":1233044},{""event"":""focus"",""trial"":139,""time"":1244973}]",NA,NA,NA,NA,NA,4,#741CD8,#D8271C,10,0,0,38,1,2774,37,1,494,10,0,experiment,NA,NA,2,0.5,0.5,5,4,106,3,NA
fcp-trial,141,1467829,0.0-116.0-0.0,voc_e2,12217,"[{""event"":""focus"",""trial"":1,""time"":1560},{""event"":""fullscreenenter"",""trial"":1,""time"":1885},{""event"":""blur"",""trial"":139,""time"":1233044},{""event"":""focus"",""trial"":139,""time"":1244973}]",NA,NA,NA,NA,NA,4,#FA92F8,#1CD855,10,0,1,38,1,999,37,1,366,10,1,experiment,NA,NA,1,0.7,0.3,2,3,107,3,NA
fcp-trial,142,1470957,0.0-117.0-0.0,voc_e2,12217,"[{""event"":""focus"",""trial"":1,""time"":1560},{""event"":""fullscreenenter"",""trial"":1,""time"":1885},{""event"":""blur"",""trial"":139,""time"":1233044},{""event"":""focus"",""trial"":139,""time"":1244973}]",NA,NA,NA,NA,NA,2,#741CD8,#D8271C,0,10,0,40,0,1076,37,1,533,0,0,experiment,NA,NA,2,0.5,0.5,5,4,108,3,NA
fcp-trial,143,1473730,0.0-118.0-0.0,voc_e2,12217,"[{""event"":""focus"",""trial"":1,""time"":1560},{""event"":""fullscreenenter"",""trial"":1,""time"":1885},{""event"":""blur"",""trial"":139,""time"":1233044},{""event"":""focus"",""trial"":139,""time"":1244973}]",NA,NA,NA,NA,NA,2,#D89F1C,#3386FF,0,10,0,38,1,790,39,0,454,10,1,experiment,NA,NA,0,0.1,0.9,1,0,109,3,NA
fcp-trial,144,1476615,0.0-119.0-0.0,voc_e2,12217,"[{""event"":""focus"",""trial"":1,""time"":1560},{""event"":""fullscreenenter"",""trial"":1,""time"":1885},{""event"":""blur"",""trial"":139,""time"":1233044},{""event"":""focus"",""trial"":139,""time"":1244973}]",NA,NA,NA,NA,NA,5,#FA92F8,#1CD855,10,10,1,38,1,592,37,1,763,10,1,experiment,NA,NA,1,0.7,0.3,2,3,110,3,NA
fcp-trial,145,1480409,0.0-120.0-0.0,voc_e2,12217,"[{""event"":""focus"",""trial"":1,""time"":1560},{""event"":""fullscreenenter"",""trial"":1,""time"":1885},{""event"":""blur"",""trial"":139,""time"":1233044},{""event"":""focus"",""trial"":139,""time"":1244973}]",NA,NA,NA,NA,NA,4,#3386FF,#D89F1C,10,0,1,38,1,1923,37,1,360,10,1,experiment,NA,NA,0,0.9,0.1,0,1,111,3,NA
fcp-trial,146,1483210,0.0-121.0-0.0,voc_e2,12217,"[{""event"":""focus"",""trial"":1,""time"":1560},{""event"":""fullscreenenter"",""trial"":1,""time"":1885},{""event"":""blur"",""trial"":139,""time"":1233044},{""event"":""focus"",""trial"":139,""time"":1244973}]",NA,NA,NA,NA,NA,6,#D8271C,#741CD8,10,0,1,40,0,738,37,1,543,10,1,experiment,NA,NA,2,0.5,0.5,4,5,112,3,NA
fcp-trial,147,1485904,0.0-122.0-0.0,voc_e2,12217,"[{""event"":""focus"",""trial"":1,""time"":1560},{""event"":""fullscreenenter"",""trial"":1,""time"":1885},{""event"":""blur"",""trial"":139,""time"":1233044},{""event"":""focus"",""trial"":139,""time"":1244973}]",NA,NA,NA,NA,NA,1,#D89F1C,#3386FF,0,10,0,38,1,846,39,0,333,10,1,experiment,NA,NA,0,0.1,0.9,1,0,113,3,NA
fcp-trial,148,1488375,0.0-123.0-0.0,voc_e2,12217,"[{""event"":""focus"",""trial"":1,""time"":1560},{""event"":""fullscreenenter"",""trial"":1,""time"":1885},{""event"":""blur"",""trial"":139,""time"":1233044},{""event"":""focus"",""trial"":139,""time"":1244973}]",NA,NA,NA,NA,NA,0,#3386FF,#D89F1C,10,0,1,38,1,614,37,1,320,10,1,experiment,NA,NA,0,0.9,0.1,0,1,114,3,NA
fcp-trial,149,1491109,0.0-124.0-0.0,voc_e2,12217,"[{""event"":""focus"",""trial"":1,""time"":1560},{""event"":""fullscreenenter"",""trial"":1,""time"":1885},{""event"":""blur"",""trial"":139,""time"":1233044},{""event"":""focus"",""trial"":139,""time"":1244973}]",NA,NA,NA,NA,NA,6,#FA92F8,#1CD855,10,0,1,40,0,799,37,1,414,10,1,experiment,NA,NA,1,0.7,0.3,2,3,115,3,NA
fcp-trial,150,1493423,0.0-125.0-0.0,voc_e2,12217,"[{""event"":""focus"",""trial"":1,""time"":1560},{""event"":""fullscreenenter"",""trial"":1,""time"":1885},{""event"":""blur"",""trial"":139,""time"":1233044},{""event"":""focus"",""trial"":139,""time"":1244973}]",NA,NA,NA,NA,NA,0,#FA92F8,#1CD855,10,0,1,40,0,458,37,1,348,10,1,experiment,NA,NA,1,0.7,0.3,2,3,116,3,NA
fcp-trial,151,1496419,0.0-126.0-0.0,voc_e2,12217,"[{""event"":""focus"",""trial"":1,""time"":1560},{""event"":""fullscreenenter"",""trial"":1,""time"":1885},{""event"":""blur"",""trial"":139,""time"":1233044},{""event"":""focus"",""trial"":139,""time"":1244973}]",NA,NA,NA,NA,NA,1,#741CD8,#D8271C,0,10,0,40,0,1155,39,0,334,10,1,experiment,NA,NA,2,0.5,0.5,5,4,117,3,NA
fcp-trial,152,1499325,0.0-127.0-0.0,voc_e2,12217,"[{""event"":""focus"",""trial"":1,""time"":1560},{""event"":""fullscreenenter"",""trial"":1,""time"":1885},{""event"":""blur"",""trial"":139,""time"":1233044},{""event"":""focus"",""trial"":139,""time"":1244973}]",NA,NA,NA,NA,NA,2,#FA92F8,#1CD855,10,0,1,40,0,907,39,0,473,0,0,experiment,NA,NA,1,0.7,0.3,2,3,118,3,NA
fcp-trial,153,1502120,0.0-128.0-0.0,voc_e2,12217,"[{""event"":""focus"",""trial"":1,""time"":1560},{""event"":""fullscreenenter"",""trial"":1,""time"":1885},{""event"":""blur"",""trial"":139,""time"":1233044},{""event"":""focus"",""trial"":139,""time"":1244973}]",NA,NA,NA,NA,NA,6,#D89F1C,#3386FF,0,0,0,40,0,684,39,0,593,0,1,experiment,NA,NA,0,0.1,0.9,1,0,119,3,NA
fcp-trial,154,1505007,0.0-129.0-0.0,voc_e2,12217,"[{""event"":""focus"",""trial"":1,""time"":1560},{""event"":""fullscreenenter"",""trial"":1,""time"":1885},{""event"":""blur"",""trial"":139,""time"":1233044},{""event"":""focus"",""trial"":139,""time"":1244973}]",NA,NA,NA,NA,NA,3,#1CD855,#FA92F8,0,10,0,40,0,978,39,0,382,10,1,experiment,NA,NA,1,0.3,0.7,3,2,120,3,NA
fcp-trial,155,1507535,0.0-130.0-0.0,voc_e2,12217,"[{""event"":""focus"",""trial"":1,""time"":1560},{""event"":""fullscreenenter"",""trial"":1,""time"":1885},{""event"":""blur"",""trial"":139,""time"":1233044},{""event"":""focus"",""trial"":139,""time"":1244973}]",NA,NA,NA,NA,NA,5,#D8271C,#741CD8,0,10,1,40,0,616,39,0,384,10,0,experiment,NA,NA,2,0.5,0.5,4,5,121,3,NA
fcp-trial,156,1510143,0.0-131.0-0.0,voc_e2,12217,"[{""event"":""focus"",""trial"":1,""time"":1560},{""event"":""fullscreenenter"",""trial"":1,""time"":1885},{""event"":""blur"",""trial"":139,""time"":1233044},{""event"":""focus"",""trial"":139,""time"":1244973}]",NA,NA,NA,NA,NA,3,#3386FF,#D89F1C,10,0,1,38,1,792,37,1,287,10,1,experiment,NA,NA,0,0.9,0.1,0,1,122,3,NA
fcp-trial,157,1512757,0.0-132.0-0.0,voc_e2,12217,"[{""event"":""focus"",""trial"":1,""time"":1560},{""event"":""fullscreenenter"",""trial"":1,""time"":1885},{""event"":""blur"",""trial"":139,""time"":1233044},{""event"":""focus"",""trial"":139,""time"":1244973}]",NA,NA,NA,NA,NA,5,#3386FF,#D89F1C,10,0,1,40,0,486,39,0,612,0,0,experiment,NA,NA,0,0.9,0.1,0,1,123,3,NA
fcp-trial,158,1516440,0.0-133.0-0.0,voc_e2,12217,"[{""event"":""focus"",""trial"":1,""time"":1560},{""event"":""fullscreenenter"",""trial"":1,""time"":1885},{""event"":""blur"",""trial"":139,""time"":1233044},{""event"":""focus"",""trial"":139,""time"":1244973}]",NA,NA,NA,NA,NA,1,#FA92F8,#1CD855,0,10,1,38,1,1515,39,0,646,10,0,experiment,NA,NA,1,0.7,0.3,2,3,124,3,NA
fcp-trial,159,1518992,0.0-134.0-0.0,voc_e2,12217,"[{""event"":""focus"",""trial"":1,""time"":1560},{""event"":""fullscreenenter"",""trial"":1,""time"":1885},{""event"":""blur"",""trial"":139,""time"":1233044},{""event"":""focus"",""trial"":139,""time"":1244973}]",NA,NA,NA,NA,NA,3,#741CD8,#D8271C,0,0,0,40,0,646,39,0,395,0,1,experiment,NA,NA,2,0.5,0.5,5,4,125,3,NA
fcp-trial,160,1521312,0.0-135.0-0.0,voc_e2,12217,"[{""event"":""focus"",""trial"":1,""time"":1560},{""event"":""fullscreenenter"",""trial"":1,""time"":1885},{""event"":""blur"",""trial"":139,""time"":1233044},{""event"":""focus"",""trial"":139,""time"":1244973}]",NA,NA,NA,NA,NA,0,#741CD8,#D8271C,10,10,0,40,0,437,39,0,358,10,1,experiment,NA,NA,2,0.5,0.5,5,4,126,3,NA
fcp-trial,161,1524034,0.0-136.0-0.0,voc_e2,12217,"[{""event"":""focus"",""trial"":1,""time"":1560},{""event"":""fullscreenenter"",""trial"":1,""time"":1885},{""event"":""blur"",""trial"":139,""time"":1233044},{""event"":""focus"",""trial"":139,""time"":1244973}]",NA,NA,NA,NA,NA,6,#D8271C,#741CD8,0,0,1,40,0,812,37,1,389,0,1,experiment,NA,NA,2,0.5,0.5,4,5,127,3,NA
fcp-trial,162,1526703,0.0-137.0-0.0,voc_e2,12217,"[{""event"":""focus"",""trial"":1,""time"":1560},{""event"":""fullscreenenter"",""trial"":1,""time"":1885},{""event"":""blur"",""trial"":139,""time"":1233044},{""event"":""focus"",""trial"":139,""time"":1244973}]",NA,NA,NA,NA,NA,2,#741CD8,#D8271C,10,0,0,40,0,772,37,1,374,10,0,experiment,NA,NA,2,0.5,0.5,5,4,128,3,NA
fcp-trial,163,1529315,0.0-138.0-0.0,voc_e2,12217,"[{""event"":""focus"",""trial"":1,""time"":1560},{""event"":""fullscreenenter"",""trial"":1,""time"":1885},{""event"":""blur"",""trial"":139,""time"":1233044},{""event"":""focus"",""trial"":139,""time"":1244973}]",NA,NA,NA,NA,NA,6,#3386FF,#D89F1C,10,0,1,38,1,821,37,1,258,10,1,experiment,NA,NA,0,0.9,0.1,0,1,129,3,NA
fcp-trial,164,1531913,0.0-139.0-0.0,voc_e2,12217,"[{""event"":""focus"",""trial"":1,""time"":1560},{""event"":""fullscreenenter"",""trial"":1,""time"":1885},{""event"":""blur"",""trial"":139,""time"":1233044},{""event"":""focus"",""trial"":139,""time"":1244973}]",NA,NA,NA,NA,NA,3,#D89F1C,#3386FF,0,0,0,38,1,622,39,0,451,0,1,experiment,NA,NA,0,0.1,0.9,1,0,130,3,NA
fcp-trial,165,1534584,0.0-140.0-0.0,voc_e2,12217,"[{""event"":""focus"",""trial"":1,""time"":1560},{""event"":""fullscreenenter"",""trial"":1,""time"":1885},{""event"":""blur"",""trial"":139,""time"":1233044},{""event"":""focus"",""trial"":139,""time"":1244973}]",NA,NA,NA,NA,NA,0,#FA92F8,#1CD855,0,0,1,40,0,803,37,1,348,0,1,experiment,NA,NA,1,0.7,0.3,2,3,131,3,NA
fcp-trial,166,1537056,0.0-141.0-0.0,voc_e2,12217,"[{""event"":""focus"",""trial"":1,""time"":1560},{""event"":""fullscreenenter"",""trial"":1,""time"":1885},{""event"":""blur"",""trial"":139,""time"":1233044},{""event"":""focus"",""trial"":139,""time"":1244973}]",NA,NA,NA,NA,NA,2,#3386FF,#D89F1C,0,0,1,38,1,655,37,1,294,0,1,experiment,NA,NA,0,0.9,0.1,0,1,132,3,NA
fcp-trial,167,1539529,0.0-142.0-0.0,voc_e2,12217,"[{""event"":""focus"",""trial"":1,""time"":1560},{""event"":""fullscreenenter"",""trial"":1,""time"":1885},{""event"":""blur"",""trial"":139,""time"":1233044},{""event"":""focus"",""trial"":139,""time"":1244973}]",NA,NA,NA,NA,NA,3,#D8271C,#741CD8,0,10,1,40,0,573,37,1,369,0,1,experiment,NA,NA,2,0.5,0.5,4,5,133,3,NA
fcp-trial,168,1541959,0.0-143.0-0.0,voc_e2,12217,"[{""event"":""focus"",""trial"":1,""time"":1560},{""event"":""fullscreenenter"",""trial"":1,""time"":1885},{""event"":""blur"",""trial"":139,""time"":1233044},{""event"":""focus"",""trial"":139,""time"":1244973}]",NA,NA,NA,NA,NA,2,#1CD855,#FA92F8,0,10,0,40,0,603,39,0,319,10,1,experiment,NA,NA,1,0.3,0.7,3,2,134,3,NA
fcp-trial,169,1544282,0.0-144.0-0.0,voc_e2,12217,"[{""event"":""focus"",""trial"":1,""time"":1560},{""event"":""fullscreenenter"",""trial"":1,""time"":1885},{""event"":""blur"",""trial"":139,""time"":1233044},{""event"":""focus"",""trial"":139,""time"":1244973}]",NA,NA,NA,NA,NA,5,#D89F1C,#3386FF,0,10,0,38,1,479,39,0,321,10,1,experiment,NA,NA,0,0.1,0.9,1,0,135,3,NA
fcp-trial,170,1546693,0.0-145.0-0.0,voc_e2,12217,"[{""event"":""focus"",""trial"":1,""time"":1560},{""event"":""fullscreenenter"",""trial"":1,""time"":1885},{""event"":""blur"",""trial"":139,""time"":1233044},{""event"":""focus"",""trial"":139,""time"":1244973}]",NA,NA,NA,NA,NA,4,#D8271C,#741CD8,10,0,1,40,0,530,39,0,364,0,0,experiment,NA,NA,2,0.5,0.5,4,5,136,4,NA
fcp-trial,171,1549009,0.0-146.0-0.0,voc_e2,12217,"[{""event"":""focus"",""trial"":1,""time"":1560},{""event"":""fullscreenenter"",""trial"":1,""time"":1885},{""event"":""blur"",""trial"":139,""time"":1233044},{""event"":""focus"",""trial"":139,""time"":1244973}]",NA,NA,NA,NA,NA,1,#D89F1C,#3386FF,0,10,0,38,1,508,39,0,294,10,1,experiment,NA,NA,0,0.1,0.9,1,0,137,4,NA
fcp-trial,172,1551473,0.0-147.0-0.0,voc_e2,12217,"[{""event"":""focus"",""trial"":1,""time"":1560},{""event"":""fullscreenenter"",""trial"":1,""time"":1885},{""event"":""blur"",""trial"":139,""time"":1233044},{""event"":""focus"",""trial"":139,""time"":1244973}]",NA,NA,NA,NA,NA,1,#1CD855,#FA92F8,0,10,0,40,0,608,37,1,335,0,0,experiment,NA,NA,1,0.3,0.7,3,2,138,4,NA
fcp-trial,173,1553839,0.0-148.0-0.0,voc_e2,12217,"[{""event"":""focus"",""trial"":1,""time"":1560},{""event"":""fullscreenenter"",""trial"":1,""time"":1885},{""event"":""blur"",""trial"":139,""time"":1233044},{""event"":""focus"",""trial"":139,""time"":1244973}]",NA,NA,NA,NA,NA,5,#FA92F8,#1CD855,10,0,1,38,1,556,37,1,299,10,1,experiment,NA,NA,1,0.7,0.3,2,3,139,4,NA
fcp-trial,174,1556515,0.0-149.0-0.0,voc_e2,12217,"[{""event"":""focus"",""trial"":1,""time"":1560},{""event"":""fullscreenenter"",""trial"":1,""time"":1885},{""event"":""blur"",""trial"":139,""time"":1233044},{""event"":""focus"",""trial"":139,""time"":1244973}]",NA,NA,NA,NA,NA,5,#741CD8,#D8271C,10,0,0,40,0,689,39,0,459,0,1,experiment,NA,NA,2,0.5,0.5,5,4,140,4,NA
fcp-trial,175,1558804,0.0-150.0-0.0,voc_e2,12217,"[{""event"":""focus"",""trial"":1,""time"":1560},{""event"":""fullscreenenter"",""trial"":1,""time"":1885},{""event"":""blur"",""trial"":139,""time"":1233044},{""event"":""focus"",""trial"":139,""time"":1244973}]",NA,NA,NA,NA,NA,0,#3386FF,#D89F1C,10,0,1,38,1,516,37,1,261,10,1,experiment,NA,NA,0,0.9,0.1,0,1,141,4,NA
fcp-trial,176,1561078,0.0-151.0-0.0,voc_e2,12217,"[{""event"":""focus"",""trial"":1,""time"":1560},{""event"":""fullscreenenter"",""trial"":1,""time"":1885},{""event"":""blur"",""trial"":139,""time"":1233044},{""event"":""focus"",""trial"":139,""time"":1244973}]",NA,NA,NA,NA,NA,6,#FA92F8,#1CD855,10,0,1,38,1,417,37,1,334,10,1,experiment,NA,NA,1,0.7,0.3,2,3,142,4,NA
fcp-trial,177,1563385,0.0-152.0-0.0,voc_e2,12217,"[{""event"":""focus"",""trial"":1,""time"":1560},{""event"":""fullscreenenter"",""trial"":1,""time"":1885},{""event"":""blur"",""trial"":139,""time"":1233044},{""event"":""focus"",""trial"":139,""time"":1244973}]",NA,NA,NA,NA,NA,3,#FA92F8,#1CD855,10,0,1,38,1,448,37,1,346,10,1,experiment,NA,NA,1,0.7,0.3,2,3,143,4,NA
fcp-trial,178,1565988,0.0-153.0-0.0,voc_e2,12217,"[{""event"":""focus"",""trial"":1,""time"":1560},{""event"":""fullscreenenter"",""trial"":1,""time"":1885},{""event"":""blur"",""trial"":139,""time"":1233044},{""event"":""focus"",""trial"":139,""time"":1244973}]",NA,NA,NA,NA,NA,1,#D8271C,#741CD8,0,0,1,40,0,698,39,0,382,0,0,experiment,NA,NA,2,0.5,0.5,4,5,144,4,NA
fcp-trial,179,1568262,0.0-154.0-0.0,voc_e2,12217,"[{""event"":""focus"",""trial"":1,""time"":1560},{""event"":""fullscreenenter"",""trial"":1,""time"":1885},{""event"":""blur"",""trial"":139,""time"":1233044},{""event"":""focus"",""trial"":139,""time"":1244973}]",NA,NA,NA,NA,NA,4,#D89F1C,#3386FF,0,10,0,38,1,469,39,0,278,10,1,experiment,NA,NA,0,0.1,0.9,1,0,145,4,NA
fcp-trial,180,1570579,0.0-155.0-0.0,voc_e2,12217,"[{""event"":""focus"",""trial"":1,""time"":1560},{""event"":""fullscreenenter"",""trial"":1,""time"":1885},{""event"":""blur"",""trial"":139,""time"":1233044},{""event"":""focus"",""trial"":139,""time"":1244973}]",NA,NA,NA,NA,NA,4,#1CD855,#FA92F8,0,0,0,38,1,475,39,0,321,0,1,experiment,NA,NA,1,0.3,0.7,3,2,146,4,NA
fcp-trial,181,1573752,0.0-156.0-0.0,voc_e2,12217,"[{""event"":""focus"",""trial"":1,""time"":1560},{""event"":""fullscreenenter"",""trial"":1,""time"":1885},{""event"":""blur"",""trial"":139,""time"":1233044},{""event"":""focus"",""trial"":139,""time"":1244973}]",NA,NA,NA,NA,NA,0,#741CD8,#D8271C,10,10,0,38,1,587,37,1,1062,10,0,experiment,NA,NA,2,0.5,0.5,5,4,147,4,NA
fcp-trial,182,1576325,0.0-157.0-0.0,voc_e2,12217,"[{""event"":""focus"",""trial"":1,""time"":1560},{""event"":""fullscreenenter"",""trial"":1,""time"":1885},{""event"":""blur"",""trial"":139,""time"":1233044},{""event"":""focus"",""trial"":139,""time"":1244973}]",NA,NA,NA,NA,NA,1,#FA92F8,#1CD855,10,10,1,38,1,537,39,0,523,10,0,experiment,NA,NA,1,0.7,0.3,2,3,148,4,NA
fcp-trial,183,1578722,0.0-158.0-0.0,voc_e2,12217,"[{""event"":""focus"",""trial"":1,""time"":1560},{""event"":""fullscreenenter"",""trial"":1,""time"":1885},{""event"":""blur"",""trial"":139,""time"":1233044},{""event"":""focus"",""trial"":139,""time"":1244973}]",NA,NA,NA,NA,NA,0,#D89F1C,#3386FF,0,10,0,38,1,590,39,0,262,10,1,experiment,NA,NA,0,0.1,0.9,1,0,149,4,NA
fcp-trial,184,1581309,0.0-159.0-0.0,voc_e2,12217,"[{""event"":""focus"",""trial"":1,""time"":1560},{""event"":""fullscreenenter"",""trial"":1,""time"":1885},{""event"":""blur"",""trial"":139,""time"":1233044},{""event"":""focus"",""trial"":139,""time"":1244973}]",NA,NA,NA,NA,NA,0,#D8271C,#741CD8,0,10,1,38,1,540,37,1,529,0,1,experiment,NA,NA,2,0.5,0.5,4,5,150,4,NA
fcp-trial,185,1583984,0.0-160.0-0.0,voc_e2,12217,"[{""event"":""focus"",""trial"":1,""time"":1560},{""event"":""fullscreenenter"",""trial"":1,""time"":1885},{""event"":""blur"",""trial"":139,""time"":1233044},{""event"":""focus"",""trial"":139,""time"":1244973}]",NA,NA,NA,NA,NA,5,#FA92F8,#1CD855,10,0,1,38,1,841,37,1,311,10,1,experiment,NA,NA,1,0.7,0.3,2,3,151,4,NA
fcp-trial,186,1586731,0.0-161.0-0.0,voc_e2,12217,"[{""event"":""focus"",""trial"":1,""time"":1560},{""event"":""fullscreenenter"",""trial"":1,""time"":1885},{""event"":""blur"",""trial"":139,""time"":1233044},{""event"":""focus"",""trial"":139,""time"":1244973}]",NA,NA,NA,NA,NA,6,#D8271C,#741CD8,10,0,1,40,0,875,39,0,358,0,0,experiment,NA,NA,2,0.5,0.5,4,5,152,4,NA
fcp-trial,187,1589061,0.0-162.0-0.0,voc_e2,12217,"[{""event"":""focus"",""trial"":1,""time"":1560},{""event"":""fullscreenenter"",""trial"":1,""time"":1885},{""event"":""blur"",""trial"":139,""time"":1233044},{""event"":""focus"",""trial"":139,""time"":1244973}]",NA,NA,NA,NA,NA,4,#741CD8,#D8271C,0,10,0,40,0,464,37,1,341,0,0,experiment,NA,NA,2,0.5,0.5,5,4,153,4,NA
fcp-trial,188,1591460,0.0-163.0-0.0,voc_e2,12217,"[{""event"":""focus"",""trial"":1,""time"":1560},{""event"":""fullscreenenter"",""trial"":1,""time"":1885},{""event"":""blur"",""trial"":139,""time"":1233044},{""event"":""focus"",""trial"":139,""time"":1244973}]",NA,NA,NA,NA,NA,1,#3386FF,#D89F1C,10,0,1,38,1,558,39,0,324,0,0,experiment,NA,NA,0,0.9,0.1,0,1,154,4,NA
fcp-trial,189,1593934,0.0-164.0-0.0,voc_e2,12217,"[{""event"":""focus"",""trial"":1,""time"":1560},{""event"":""fullscreenenter"",""trial"":1,""time"":1885},{""event"":""blur"",""trial"":139,""time"":1233044},{""event"":""focus"",""trial"":139,""time"":1244973}]",NA,NA,NA,NA,NA,2,#FA92F8,#1CD855,10,10,1,38,1,636,37,1,333,10,1,experiment,NA,NA,1,0.7,0.3,2,3,155,4,NA
fcp-trial,190,1596382,0.0-165.0-0.0,voc_e2,12217,"[{""event"":""focus"",""trial"":1,""time"":1560},{""event"":""fullscreenenter"",""trial"":1,""time"":1885},{""event"":""blur"",""trial"":139,""time"":1233044},{""event"":""focus"",""trial"":139,""time"":1244973}]",NA,NA,NA,NA,NA,4,#FA92F8,#1CD855,10,0,1,38,1,549,37,1,378,10,1,experiment,NA,NA,1,0.7,0.3,2,3,156,4,NA
fcp-trial,191,1598808,0.0-166.0-0.0,voc_e2,12217,"[{""event"":""focus"",""trial"":1,""time"":1560},{""event"":""fullscreenenter"",""trial"":1,""time"":1885},{""event"":""blur"",""trial"":139,""time"":1233044},{""event"":""focus"",""trial"":139,""time"":1244973}]",NA,NA,NA,NA,NA,5,#D89F1C,#3386FF,10,10,0,38,1,510,39,0,404,10,1,experiment,NA,NA,0,0.1,0.9,1,0,157,4,NA
fcp-trial,192,1601798,0.0-167.0-0.0,voc_e2,12217,"[{""event"":""focus"",""trial"":1,""time"":1560},{""event"":""fullscreenenter"",""trial"":1,""time"":1885},{""event"":""blur"",""trial"":139,""time"":1233044},{""event"":""focus"",""trial"":139,""time"":1244973}]",NA,NA,NA,NA,NA,2,#D8271C,#741CD8,10,0,1,40,0,966,37,1,498,10,1,experiment,NA,NA,2,0.5,0.5,4,5,158,4,NA
fcp-trial,193,1604176,0.0-168.0-0.0,voc_e2,12217,"[{""event"":""focus"",""trial"":1,""time"":1560},{""event"":""fullscreenenter"",""trial"":1,""time"":1885},{""event"":""blur"",""trial"":139,""time"":1233044},{""event"":""focus"",""trial"":139,""time"":1244973}]",NA,NA,NA,NA,NA,4,#D89F1C,#3386FF,0,10,0,38,1,560,39,0,292,10,1,experiment,NA,NA,0,0.1,0.9,1,0,159,4,NA
fcp-trial,194,1606621,0.0-169.0-0.0,voc_e2,12217,"[{""event"":""focus"",""trial"":1,""time"":1560},{""event"":""fullscreenenter"",""trial"":1,""time"":1885},{""event"":""blur"",""trial"":139,""time"":1233044},{""event"":""focus"",""trial"":139,""time"":1244973}]",NA,NA,NA,NA,NA,0,#1CD855,#FA92F8,0,0,0,38,1,584,39,0,340,0,1,experiment,NA,NA,1,0.3,0.7,3,2,160,4,NA
fcp-trial,195,1609005,0.0-170.0-0.0,voc_e2,12217,"[{""event"":""focus"",""trial"":1,""time"":1560},{""event"":""fullscreenenter"",""trial"":1,""time"":1885},{""event"":""blur"",""trial"":139,""time"":1233044},{""event"":""focus"",""trial"":139,""time"":1244973}]",NA,NA,NA,NA,NA,5,#D8271C,#741CD8,0,0,1,38,1,532,37,1,333,0,1,experiment,NA,NA,2,0.5,0.5,4,5,161,4,NA
fcp-trial,196,1611313,0.0-171.0-0.0,voc_e2,12217,"[{""event"":""focus"",""trial"":1,""time"":1560},{""event"":""fullscreenenter"",""trial"":1,""time"":1885},{""event"":""blur"",""trial"":139,""time"":1233044},{""event"":""focus"",""trial"":139,""time"":1244973}]",NA,NA,NA,NA,NA,6,#D89F1C,#3386FF,0,10,0,38,1,483,39,0,302,10,1,experiment,NA,NA,0,0.1,0.9,1,0,162,4,NA
fcp-trial,197,1614157,0.0-172.0-0.0,voc_e2,12217,"[{""event"":""focus"",""trial"":1,""time"":1560},{""event"":""fullscreenenter"",""trial"":1,""time"":1885},{""event"":""blur"",""trial"":139,""time"":1233044},{""event"":""focus"",""trial"":139,""time"":1244973}]",NA,NA,NA,NA,NA,3,#D89F1C,#3386FF,0,10,0,40,0,509,39,0,813,10,1,experiment,NA,NA,0,0.1,0.9,1,0,163,4,NA
fcp-trial,198,1616630,0.0-173.0-0.0,voc_e2,12217,"[{""event"":""focus"",""trial"":1,""time"":1560},{""event"":""fullscreenenter"",""trial"":1,""time"":1885},{""event"":""blur"",""trial"":139,""time"":1233044},{""event"":""focus"",""trial"":139,""time"":1244973}]",NA,NA,NA,NA,NA,3,#1CD855,#FA92F8,10,0,0,38,1,616,39,0,347,0,1,experiment,NA,NA,1,0.3,0.7,3,2,164,4,NA
fcp-trial,199,1618930,0.0-174.0-0.0,voc_e2,12217,"[{""event"":""focus"",""trial"":1,""time"":1560},{""event"":""fullscreenenter"",""trial"":1,""time"":1885},{""event"":""blur"",""trial"":139,""time"":1233044},{""event"":""focus"",""trial"":139,""time"":1244973}]",NA,NA,NA,NA,NA,6,#FA92F8,#1CD855,10,10,1,38,1,468,37,1,305,10,1,experiment,NA,NA,1,0.7,0.3,2,3,165,4,NA
fcp-trial,200,1621422,0.0-175.0-0.0,voc_e2,12217,"[{""event"":""focus"",""trial"":1,""time"":1560},{""event"":""fullscreenenter"",""trial"":1,""time"":1885},{""event"":""blur"",""trial"":139,""time"":1233044},{""event"":""focus"",""trial"":139,""time"":1244973}]",NA,NA,NA,NA,NA,3,#741CD8,#D8271C,0,10,0,40,0,622,39,0,347,10,1,experiment,NA,NA,2,0.5,0.5,5,4,166,4,NA
fcp-trial,201,1623791,0.0-176.0-0.0,voc_e2,12217,"[{""event"":""focus"",""trial"":1,""time"":1560},{""event"":""fullscreenenter"",""trial"":1,""time"":1885},{""event"":""blur"",""trial"":139,""time"":1233044},{""event"":""focus"",""trial"":139,""time"":1244973}]",NA,NA,NA,NA,NA,2,#3386FF,#D89F1C,10,0,1,38,1,485,37,1,369,10,1,experiment,NA,NA,0,0.9,0.1,0,1,167,4,NA
fcp-trial,202,1626389,0.0-177.0-0.0,voc_e2,12217,"[{""event"":""focus"",""trial"":1,""time"":1560},{""event"":""fullscreenenter"",""trial"":1,""time"":1885},{""event"":""blur"",""trial"":139,""time"":1233044},{""event"":""focus"",""trial"":139,""time"":1244973}]",NA,NA,NA,NA,NA,1,#D8271C,#741CD8,0,0,1,40,0,770,39,0,316,0,0,experiment,NA,NA,2,0.5,0.5,4,5,168,4,NA
fcp-trial,203,1628778,0.0-178.0-0.0,voc_e2,12217,"[{""event"":""focus"",""trial"":1,""time"":1560},{""event"":""fullscreenenter"",""trial"":1,""time"":1885},{""event"":""blur"",""trial"":139,""time"":1233044},{""event"":""focus"",""trial"":139,""time"":1244973}]",NA,NA,NA,NA,NA,2,#FA92F8,#1CD855,10,10,1,38,1,556,37,1,307,10,1,experiment,NA,NA,1,0.7,0.3,2,3,169,4,NA
fcp-trial,204,1631376,0.0-179.0-0.0,voc_e2,12217,"[{""event"":""focus"",""trial"":1,""time"":1560},{""event"":""fullscreenenter"",""trial"":1,""time"":1885},{""event"":""blur"",""trial"":139,""time"":1233044},{""event"":""focus"",""trial"":139,""time"":1244973}]",NA,NA,NA,NA,NA,4,#D8271C,#741CD8,0,0,1,40,0,665,39,0,421,0,0,experiment,NA,NA,2,0.5,0.5,4,5,170,4,NA
fcp-trial,205,1633937,0.0-180.0-0.0,voc_e2,12217,"[{""event"":""focus"",""trial"":1,""time"":1560},{""event"":""fullscreenenter"",""trial"":1,""time"":1885},{""event"":""blur"",""trial"":139,""time"":1233044},{""event"":""focus"",""trial"":139,""time"":1244973}]",NA,NA,NA,NA,NA,3,#FA92F8,#1CD855,10,10,1,38,1,668,37,1,368,10,1,experiment,NA,NA,1,0.7,0.3,2,3,171,4,NA
fcp-trial,206,1636660,0.0-181.0-0.0,voc_e2,12217,"[{""event"":""focus"",""trial"":1,""time"":1560},{""event"":""fullscreenenter"",""trial"":1,""time"":1885},{""event"":""blur"",""trial"":139,""time"":1233044},{""event"":""focus"",""trial"":139,""time"":1244973}]",NA,NA,NA,NA,NA,3,#D8271C,#741CD8,10,0,1,40,0,920,39,0,288,0,0,experiment,NA,NA,2,0.5,0.5,4,5,172,4,NA
fcp-trial,207,1639959,0.0-182.0-0.0,voc_e2,12217,"[{""event"":""focus"",""trial"":1,""time"":1560},{""event"":""fullscreenenter"",""trial"":1,""time"":1885},{""event"":""blur"",""trial"":139,""time"":1233044},{""event"":""focus"",""trial"":139,""time"":1244973}]",NA,NA,NA,NA,NA,4,#3386FF,#D89F1C,10,0,1,38,1,1408,37,1,374,10,1,experiment,NA,NA,0,0.9,0.1,0,1,173,4,NA
fcp-trial,208,1642546,0.0-183.0-0.0,voc_e2,12217,"[{""event"":""focus"",""trial"":1,""time"":1560},{""event"":""fullscreenenter"",""trial"":1,""time"":1885},{""event"":""blur"",""trial"":139,""time"":1233044},{""event"":""focus"",""trial"":139,""time"":1244973}]",NA,NA,NA,NA,NA,0,#D8271C,#741CD8,10,0,1,40,0,639,37,1,431,10,1,experiment,NA,NA,2,0.5,0.5,4,5,174,4,NA
fcp-trial,209,1644959,0.0-184.0-0.0,voc_e2,12217,"[{""event"":""focus"",""trial"":1,""time"":1560},{""event"":""fullscreenenter"",""trial"":1,""time"":1885},{""event"":""blur"",""trial"":139,""time"":1233044},{""event"":""focus"",""trial"":139,""time"":1244973}]",NA,NA,NA,NA,NA,3,#3386FF,#D89F1C,10,0,1,38,1,551,37,1,348,10,1,experiment,NA,NA,0,0.9,0.1,0,1,175,4,NA
fcp-trial,210,1647334,0.0-185.0-0.0,voc_e2,12217,"[{""event"":""focus"",""trial"":1,""time"":1560},{""event"":""fullscreenenter"",""trial"":1,""time"":1885},{""event"":""blur"",""trial"":139,""time"":1233044},{""event"":""focus"",""trial"":139,""time"":1244973}]",NA,NA,NA,NA,NA,6,#1CD855,#FA92F8,10,10,0,38,1,520,39,0,335,10,1,experiment,NA,NA,1,0.3,0.7,3,2,176,4,NA
fcp-trial,211,1649849,0.0-186.0-0.0,voc_e2,12217,"[{""event"":""focus"",""trial"":1,""time"":1560},{""event"":""fullscreenenter"",""trial"":1,""time"":1885},{""event"":""blur"",""trial"":139,""time"":1233044},{""event"":""focus"",""trial"":139,""time"":1244973}]",NA,NA,NA,NA,NA,1,#D89F1C,#3386FF,0,0,0,38,1,630,39,0,351,0,1,experiment,NA,NA,0,0.1,0.9,1,0,177,4,NA
fcp-trial,212,1652171,0.0-187.0-0.0,voc_e2,12217,"[{""event"":""focus"",""trial"":1,""time"":1560},{""event"":""fullscreenenter"",""trial"":1,""time"":1885},{""event"":""blur"",""trial"":139,""time"":1233044},{""event"":""focus"",""trial"":139,""time"":1244973}]",NA,NA,NA,NA,NA,6,#3386FF,#D89F1C,10,0,1,38,1,461,37,1,342,10,1,experiment,NA,NA,0,0.9,0.1,0,1,178,4,NA
fcp-trial,213,1654694,0.0-188.0-0.0,voc_e2,12217,"[{""event"":""focus"",""trial"":1,""time"":1560},{""event"":""fullscreenenter"",""trial"":1,""time"":1885},{""event"":""blur"",""trial"":139,""time"":1233044},{""event"":""focus"",""trial"":139,""time"":1244973}]",NA,NA,NA,NA,NA,2,#D8271C,#741CD8,0,0,1,40,0,581,39,0,418,0,0,experiment,NA,NA,2,0.5,0.5,4,5,179,4,NA
fcp-trial,214,1657056,0.0-189.0-0.0,voc_e2,12217,"[{""event"":""focus"",""trial"":1,""time"":1560},{""event"":""fullscreenenter"",""trial"":1,""time"":1885},{""event"":""blur"",""trial"":139,""time"":1233044},{""event"":""focus"",""trial"":139,""time"":1244973}]",NA,NA,NA,NA,NA,1,#1CD855,#FA92F8,10,10,0,38,1,512,39,0,323,10,1,experiment,NA,NA,1,0.3,0.7,3,2,180,4,NA
fcp-trial,215,1659468,0.0-190.0-0.0,voc_e2,12217,"[{""event"":""focus"",""trial"":1,""time"":1560},{""event"":""fullscreenenter"",""trial"":1,""time"":1885},{""event"":""blur"",""trial"":139,""time"":1233044},{""event"":""focus"",""trial"":139,""time"":1244973}]",NA,NA,NA,NA,NA,0,#FA92F8,#1CD855,10,0,1,38,1,523,37,1,374,10,1,experiment,NA,NA,1,0.7,0.3,2,3,181,5,NA
fcp-trial,216,1661820,0.0-191.0-0.0,voc_e2,12217,"[{""event"":""focus"",""trial"":1,""time"":1560},{""event"":""fullscreenenter"",""trial"":1,""time"":1885},{""event"":""blur"",""trial"":139,""time"":1233044},{""event"":""focus"",""trial"":139,""time"":1244973}]",NA,NA,NA,NA,NA,4,#FA92F8,#1CD855,10,0,1,38,1,463,37,1,370,10,1,experiment,NA,NA,1,0.7,0.3,2,3,182,5,NA
fcp-trial,217,1664305,0.0-192.0-0.0,voc_e2,12217,"[{""event"":""focus"",""trial"":1,""time"":1560},{""event"":""fullscreenenter"",""trial"":1,""time"":1885},{""event"":""blur"",""trial"":139,""time"":1233044},{""event"":""focus"",""trial"":139,""time"":1244973}]",NA,NA,NA,NA,NA,5,#3386FF,#D89F1C,10,0,1,38,1,597,37,1,373,10,1,experiment,NA,NA,0,0.9,0.1,0,1,183,5,NA
fcp-trial,218,1667010,0.0-193.0-0.0,voc_e2,12217,"[{""event"":""focus"",""trial"":1,""time"":1560},{""event"":""fullscreenenter"",""trial"":1,""time"":1885},{""event"":""blur"",""trial"":139,""time"":1233044},{""event"":""focus"",""trial"":139,""time"":1244973}]",NA,NA,NA,NA,NA,1,#741CD8,#D8271C,10,0,0,40,0,865,39,0,334,0,1,experiment,NA,NA,2,0.5,0.5,5,4,184,5,NA
fcp-trial,219,1669793,0.0-194.0-0.0,voc_e2,12217,"[{""event"":""focus"",""trial"":1,""time"":1560},{""event"":""fullscreenenter"",""trial"":1,""time"":1885},{""event"":""blur"",""trial"":139,""time"":1233044},{""event"":""focus"",""trial"":139,""time"":1244973}]",NA,NA,NA,NA,NA,5,#1CD855,#FA92F8,10,10,0,38,1,587,39,0,684,10,1,experiment,NA,NA,1,0.3,0.7,3,2,185,5,NA
fcp-trial,220,1672185,0.0-195.0-0.0,voc_e2,12217,"[{""event"":""focus"",""trial"":1,""time"":1560},{""event"":""fullscreenenter"",""trial"":1,""time"":1885},{""event"":""blur"",""trial"":139,""time"":1233044},{""event"":""focus"",""trial"":139,""time"":1244973}]",NA,NA,NA,NA,NA,0,#3386FF,#D89F1C,10,0,1,38,1,404,37,1,471,10,1,experiment,NA,NA,0,0.9,0.1,0,1,186,5,NA
fcp-trial,221,1674453,0.0-196.0-0.0,voc_e2,12217,"[{""event"":""focus"",""trial"":1,""time"":1560},{""event"":""fullscreenenter"",""trial"":1,""time"":1885},{""event"":""blur"",""trial"":139,""time"":1233044},{""event"":""focus"",""trial"":139,""time"":1244973}]",NA,NA,NA,NA,NA,2,#D89F1C,#3386FF,0,10,0,38,1,393,39,0,360,10,1,experiment,NA,NA,0,0.1,0.9,1,0,187,5,NA
fcp-trial,222,1677020,0.0-197.0-0.0,voc_e2,12217,"[{""event"":""focus"",""trial"":1,""time"":1560},{""event"":""fullscreenenter"",""trial"":1,""time"":1885},{""event"":""blur"",""trial"":139,""time"":1233044},{""event"":""focus"",""trial"":139,""time"":1244973}]",NA,NA,NA,NA,NA,5,#741CD8,#D8271C,10,10,0,40,0,527,39,0,508,10,1,experiment,NA,NA,2,0.5,0.5,5,4,188,5,NA
fcp-trial,223,1679654,0.0-198.0-0.0,voc_e2,12217,"[{""event"":""focus"",""trial"":1,""time"":1560},{""event"":""fullscreenenter"",""trial"":1,""time"":1885},{""event"":""blur"",""trial"":139,""time"":1233044},{""event"":""focus"",""trial"":139,""time"":1244973}]",NA,NA,NA,NA,NA,6,#D8271C,#741CD8,0,0,1,38,1,621,37,1,491,0,1,experiment,NA,NA,2,0.5,0.5,4,5,189,5,NA
fcp-trial,224,1682310,0.0-199.0-0.0,voc_e2,12217,"[{""event"":""focus"",""trial"":1,""time"":1560},{""event"":""fullscreenenter"",""trial"":1,""time"":1885},{""event"":""blur"",""trial"":139,""time"":1233044},{""event"":""focus"",""trial"":139,""time"":1244973}]",NA,NA,NA,NA,NA,1,#D89F1C,#3386FF,10,10,0,38,1,569,39,0,566,10,1,experiment,NA,NA,0,0.1,0.9,1,0,190,5,NA
fcp-trial,225,1685021,0.0-200.0-0.0,voc_e2,12217,"[{""event"":""focus"",""trial"":1,""time"":1560},{""event"":""fullscreenenter"",""trial"":1,""time"":1885},{""event"":""blur"",""trial"":139,""time"":1233044},{""event"":""focus"",""trial"":139,""time"":1244973}]",NA,NA,NA,NA,NA,2,#D89F1C,#3386FF,0,10,0,38,1,616,39,0,564,10,1,experiment,NA,NA,0,0.1,0.9,1,0,191,5,NA
fcp-trial,226,1687529,0.0-201.0-0.0,voc_e2,12217,"[{""event"":""focus"",""trial"":1,""time"":1560},{""event"":""fullscreenenter"",""trial"":1,""time"":1885},{""event"":""blur"",""trial"":139,""time"":1233044},{""event"":""focus"",""trial"":139,""time"":1244973}]",NA,NA,NA,NA,NA,5,#FA92F8,#1CD855,10,0,1,38,1,639,37,1,345,10,1,experiment,NA,NA,1,0.7,0.3,2,3,192,5,NA
fcp-trial,227,1690333,0.0-202.0-0.0,voc_e2,12217,"[{""event"":""focus"",""trial"":1,""time"":1560},{""event"":""fullscreenenter"",""trial"":1,""time"":1885},{""event"":""blur"",""trial"":139,""time"":1233044},{""event"":""focus"",""trial"":139,""time"":1244973}]",NA,NA,NA,NA,NA,6,#741CD8,#D8271C,0,10,0,40,0,806,37,1,477,0,0,experiment,NA,NA,2,0.5,0.5,5,4,193,5,NA
fcp-trial,228,1692884,0.0-203.0-0.0,voc_e2,12217,"[{""event"":""focus"",""trial"":1,""time"":1560},{""event"":""fullscreenenter"",""trial"":1,""time"":1885},{""event"":""blur"",""trial"":139,""time"":1233044},{""event"":""focus"",""trial"":139,""time"":1244973}]",NA,NA,NA,NA,NA,0,#1CD855,#FA92F8,0,10,0,38,1,705,39,0,312,10,1,experiment,NA,NA,1,0.3,0.7,3,2,194,5,NA
fcp-trial,229,1695371,0.0-204.0-0.0,voc_e2,12217,"[{""event"":""focus"",""trial"":1,""time"":1560},{""event"":""fullscreenenter"",""trial"":1,""time"":1885},{""event"":""blur"",""trial"":139,""time"":1233044},{""event"":""focus"",""trial"":139,""time"":1244973}]",NA,NA,NA,NA,NA,5,#D8271C,#741CD8,10,10,1,40,0,637,39,0,326,10,0,experiment,NA,NA,2,0.5,0.5,4,5,195,5,NA
fcp-trial,230,1697781,0.0-205.0-0.0,voc_e2,12217,"[{""event"":""focus"",""trial"":1,""time"":1560},{""event"":""fullscreenenter"",""trial"":1,""time"":1885},{""event"":""blur"",""trial"":139,""time"":1233044},{""event"":""focus"",""trial"":139,""time"":1244973}]",NA,NA,NA,NA,NA,5,#3386FF,#D89F1C,10,0,1,38,1,618,37,1,281,10,1,experiment,NA,NA,0,0.9,0.1,0,1,196,5,NA
fcp-trial,231,1700263,0.0-206.0-0.0,voc_e2,12217,"[{""event"":""focus"",""trial"":1,""time"":1560},{""event"":""fullscreenenter"",""trial"":1,""time"":1885},{""event"":""blur"",""trial"":139,""time"":1233044},{""event"":""focus"",""trial"":139,""time"":1244973}]",NA,NA,NA,NA,NA,3,#3386FF,#D89F1C,10,0,1,38,1,578,37,1,377,10,1,experiment,NA,NA,0,0.9,0.1,0,1,197,5,NA
fcp-trial,232,1703053,0.0-207.0-0.0,voc_e2,12217,"[{""event"":""focus"",""trial"":1,""time"":1560},{""event"":""fullscreenenter"",""trial"":1,""time"":1885},{""event"":""blur"",""trial"":139,""time"":1233044},{""event"":""focus"",""trial"":139,""time"":1244973}]",NA,NA,NA,NA,NA,4,#FA92F8,#1CD855,10,0,1,38,1,604,37,1,679,10,1,experiment,NA,NA,1,0.7,0.3,2,3,198,5,NA
fcp-trial,233,1705451,0.0-208.0-0.0,voc_e2,12217,"[{""event"":""focus"",""trial"":1,""time"":1560},{""event"":""fullscreenenter"",""trial"":1,""time"":1885},{""event"":""blur"",""trial"":139,""time"":1233044},{""event"":""focus"",""trial"":139,""time"":1244973}]",NA,NA,NA,NA,NA,1,#FA92F8,#1CD855,0,10,1,38,1,430,37,1,441,0,1,experiment,NA,NA,1,0.7,0.3,2,3,199,5,NA
fcp-trial,234,1707665,0.0-209.0-0.0,voc_e2,12217,"[{""event"":""focus"",""trial"":1,""time"":1560},{""event"":""fullscreenenter"",""trial"":1,""time"":1885},{""event"":""blur"",""trial"":139,""time"":1233044},{""event"":""focus"",""trial"":139,""time"":1244973}]",NA,NA,NA,NA,NA,2,#D8271C,#741CD8,10,10,1,38,1,370,39,0,294,10,0,experiment,NA,NA,2,0.5,0.5,4,5,200,5,NA
fcp-trial,235,1709927,0.0-210.0-0.0,voc_e2,12217,"[{""event"":""focus"",""trial"":1,""time"":1560},{""event"":""fullscreenenter"",""trial"":1,""time"":1885},{""event"":""blur"",""trial"":139,""time"":1233044},{""event"":""focus"",""trial"":139,""time"":1244973}]",NA,NA,NA,NA,NA,0,#3386FF,#D89F1C,10,0,1,38,1,404,37,1,333,10,1,experiment,NA,NA,0,0.9,0.1,0,1,201,5,NA
fcp-trial,236,1712291,0.0-211.0-0.0,voc_e2,12217,"[{""event"":""focus"",""trial"":1,""time"":1560},{""event"":""fullscreenenter"",""trial"":1,""time"":1885},{""event"":""blur"",""trial"":139,""time"":1233044},{""event"":""focus"",""trial"":139,""time"":1244973}]",NA,NA,NA,NA,NA,0,#D8271C,#741CD8,10,0,1,38,1,542,39,0,302,0,0,experiment,NA,NA,2,0.5,0.5,4,5,202,5,NA
fcp-trial,237,1714755,0.0-212.0-0.0,voc_e2,12217,"[{""event"":""focus"",""trial"":1,""time"":1560},{""event"":""fullscreenenter"",""trial"":1,""time"":1885},{""event"":""blur"",""trial"":139,""time"":1233044},{""event"":""focus"",""trial"":139,""time"":1244973}]",NA,NA,NA,NA,NA,1,#741CD8,#D8271C,10,0,0,38,1,657,37,1,285,10,0,experiment,NA,NA,2,0.5,0.5,5,4,203,5,NA
fcp-trial,238,1717150,0.0-213.0-0.0,voc_e2,12217,"[{""event"":""focus"",""trial"":1,""time"":1560},{""event"":""fullscreenenter"",""trial"":1,""time"":1885},{""event"":""blur"",""trial"":139,""time"":1233044},{""event"":""focus"",""trial"":139,""time"":1244973}]",NA,NA,NA,NA,NA,3,#FA92F8,#1CD855,10,10,1,38,1,517,37,1,368,10,1,experiment,NA,NA,1,0.7,0.3,2,3,204,5,NA
fcp-trial,239,1719475,0.0-214.0-0.0,voc_e2,12217,"[{""event"":""focus"",""trial"":1,""time"":1560},{""event"":""fullscreenenter"",""trial"":1,""time"":1885},{""event"":""blur"",""trial"":139,""time"":1233044},{""event"":""focus"",""trial"":139,""time"":1244973}]",NA,NA,NA,NA,NA,4,#741CD8,#D8271C,0,10,0,38,1,446,37,1,361,0,0,experiment,NA,NA,2,0.5,0.5,5,4,205,5,NA
fcp-trial,240,1722022,0.0-215.0-0.0,voc_e2,12217,"[{""event"":""focus"",""trial"":1,""time"":1560},{""event"":""fullscreenenter"",""trial"":1,""time"":1885},{""event"":""blur"",""trial"":139,""time"":1233044},{""event"":""focus"",""trial"":139,""time"":1244973}]",NA,NA,NA,NA,NA,4,#D89F1C,#3386FF,0,10,0,38,1,560,37,1,457,0,0,experiment,NA,NA,0,0.1,0.9,1,0,206,5,NA
fcp-trial,241,1724277,0.0-216.0-0.0,voc_e2,12217,"[{""event"":""focus"",""trial"":1,""time"":1560},{""event"":""fullscreenenter"",""trial"":1,""time"":1885},{""event"":""blur"",""trial"":139,""time"":1233044},{""event"":""focus"",""trial"":139,""time"":1244973}]",NA,NA,NA,NA,NA,6,#3386FF,#D89F1C,10,0,1,38,1,408,37,1,337,10,1,experiment,NA,NA,0,0.9,0.1,0,1,207,5,NA
fcp-trial,242,1726528,0.0-217.0-0.0,voc_e2,12217,"[{""event"":""focus"",""trial"":1,""time"":1560},{""event"":""fullscreenenter"",""trial"":1,""time"":1885},{""event"":""blur"",""trial"":139,""time"":1233044},{""event"":""focus"",""trial"":139,""time"":1244973}]",NA,NA,NA,NA,NA,3,#D8271C,#741CD8,0,0,1,38,1,473,39,0,269,0,0,experiment,NA,NA,2,0.5,0.5,4,5,208,5,NA
fcp-trial,243,1728894,0.0-218.0-0.0,voc_e2,12217,"[{""event"":""focus"",""trial"":1,""time"":1560},{""event"":""fullscreenenter"",""trial"":1,""time"":1885},{""event"":""blur"",""trial"":139,""time"":1233044},{""event"":""focus"",""trial"":139,""time"":1244973}]",NA,NA,NA,NA,NA,2,#FA92F8,#1CD855,0,0,1,38,1,533,37,1,323,0,1,experiment,NA,NA,1,0.7,0.3,2,3,209,5,NA
fcp-trial,244,1731174,0.0-219.0-0.0,voc_e2,12217,"[{""event"":""focus"",""trial"":1,""time"":1560},{""event"":""fullscreenenter"",""trial"":1,""time"":1885},{""event"":""blur"",""trial"":139,""time"":1233044},{""event"":""focus"",""trial"":139,""time"":1244973}]",NA,NA,NA,NA,NA,6,#FA92F8,#1CD855,10,0,1,38,1,448,37,1,307,10,1,experiment,NA,NA,1,0.7,0.3,2,3,210,5,NA
audio-instructions,245,1860662,0.0-220.0,voc_e2,12217,"[{""event"":""focus"",""trial"":1,""time"":1560},{""event"":""fullscreenenter"",""trial"":1,""time"":1885},{""event"":""blur"",""trial"":139,""time"":1233044},{""event"":""focus"",""trial"":139,""time"":1244973}]",NA,125041,static/audio/pause.wav,NA,0,NA,NA,NA,NA,NA,NA,NA,NA,NA,NA,NA,NA,NA,NA,NA,NA,NA,NA,NA,NA,NA,NA,NA,NA,NA
fcp-trial,246,1864292,0.0-221.0-0.0,voc_e2,12217,"[{""event"":""focus"",""trial"":1,""time"":1560},{""event"":""fullscreenenter"",""trial"":1,""time"":1885},{""event"":""blur"",""trial"":139,""time"":1233044},{""event"":""focus"",""trial"":139,""time"":1244973}]",NA,NA,NA,NA,NA,1,#D89F1C,#3386FF,0,10,0,38,1,1832,39,0,262,10,1,experiment,NA,NA,0,0.1,0.9,1,0,211,5,NA
fcp-trial,247,1866896,0.0-222.0-0.0,voc_e2,12217,"[{""event"":""focus"",""trial"":1,""time"":1560},{""event"":""fullscreenenter"",""trial"":1,""time"":1885},{""event"":""blur"",""trial"":139,""time"":1233044},{""event"":""focus"",""trial"":139,""time"":1244973}]",NA,NA,NA,NA,NA,2,#3386FF,#D89F1C,10,0,1,38,1,459,37,1,636,10,1,experiment,NA,NA,0,0.9,0.1,0,1,212,5,NA
fcp-trial,248,1869931,0.0-223.0-0.0,voc_e2,12217,"[{""event"":""focus"",""trial"":1,""time"":1560},{""event"":""fullscreenenter"",""trial"":1,""time"":1885},{""event"":""blur"",""trial"":139,""time"":1233044},{""event"":""focus"",""trial"":139,""time"":1244973}]",NA,NA,NA,NA,NA,0,#D8271C,#741CD8,0,0,1,40,0,1105,39,0,407,0,0,experiment,NA,NA,2,0.5,0.5,4,5,213,5,NA
fcp-trial,249,1872413,0.0-224.0-0.0,voc_e2,12217,"[{""event"":""focus"",""trial"":1,""time"":1560},{""event"":""fullscreenenter"",""trial"":1,""time"":1885},{""event"":""blur"",""trial"":139,""time"":1233044},{""event"":""focus"",""trial"":139,""time"":1244973}]",NA,NA,NA,NA,NA,5,#3386FF,#D89F1C,10,0,1,38,1,653,37,1,305,10,1,experiment,NA,NA,0,0.9,0.1,0,1,214,5,NA
fcp-trial,250,1874746,0.0-225.0-0.0,voc_e2,12217,"[{""event"":""focus"",""trial"":1,""time"":1560},{""event"":""fullscreenenter"",""trial"":1,""time"":1885},{""event"":""blur"",""trial"":139,""time"":1233044},{""event"":""focus"",""trial"":139,""time"":1244973}]",NA,NA,NA,NA,NA,6,#1CD855,#FA92F8,0,10,0,38,1,485,39,0,327,10,1,experiment,NA,NA,1,0.3,0.7,3,2,215,5,NA
fcp-trial,251,1876981,0.0-226.0-0.0,voc_e2,12217,"[{""event"":""focus"",""trial"":1,""time"":1560},{""event"":""fullscreenenter"",""trial"":1,""time"":1885},{""event"":""blur"",""trial"":139,""time"":1233044},{""event"":""focus"",""trial"":139,""time"":1244973}]",NA,NA,NA,NA,NA,6,#D89F1C,#3386FF,0,10,0,38,1,435,39,0,266,10,1,experiment,NA,NA,0,0.1,0.9,1,0,216,5,NA
fcp-trial,252,1880862,0.0-227.0-0.0,voc_e2,12217,"[{""event"":""focus"",""trial"":1,""time"":1560},{""event"":""fullscreenenter"",""trial"":1,""time"":1885},{""event"":""blur"",""trial"":139,""time"":1233044},{""event"":""focus"",""trial"":139,""time"":1244973}]",NA,NA,NA,NA,NA,2,#FA92F8,#1CD855,10,0,1,38,1,2044,39,0,322,0,0,experiment,NA,NA,1,0.7,0.3,2,3,217,5,NA
fcp-trial,253,1883309,0.0-228.0-0.0,voc_e2,12217,"[{""event"":""focus"",""trial"":1,""time"":1560},{""event"":""fullscreenenter"",""trial"":1,""time"":1885},{""event"":""blur"",""trial"":139,""time"":1233044},{""event"":""focus"",""trial"":139,""time"":1244973}]",NA,NA,NA,NA,NA,3,#D8271C,#741CD8,10,10,1,38,1,634,37,1,283,10,1,experiment,NA,NA,2,0.5,0.5,4,5,218,5,NA
fcp-trial,254,1885820,0.0-229.0-0.0,voc_e2,12217,"[{""event"":""focus"",""trial"":1,""time"":1560},{""event"":""fullscreenenter"",""trial"":1,""time"":1885},{""event"":""blur"",""trial"":139,""time"":1233044},{""event"":""focus"",""trial"":139,""time"":1244973}]",NA,NA,NA,NA,NA,0,#1CD855,#FA92F8,0,10,0,38,1,672,37,1,313,0,0,experiment,NA,NA,1,0.3,0.7,3,2,219,5,NA
fcp-trial,255,1888152,0.0-230.0-0.0,voc_e2,12217,"[{""event"":""focus"",""trial"":1,""time"":1560},{""event"":""fullscreenenter"",""trial"":1,""time"":1885},{""event"":""blur"",""trial"":139,""time"":1233044},{""event"":""focus"",""trial"":139,""time"":1244973}]",NA,NA,NA,NA,NA,4,#D89F1C,#3386FF,0,10,0,38,1,530,39,0,282,10,1,experiment,NA,NA,0,0.1,0.9,1,0,220,5,NA
fcp-trial,256,1890577,0.0-231.0-0.0,voc_e2,12217,"[{""event"":""focus"",""trial"":1,""time"":1560},{""event"":""fullscreenenter"",""trial"":1,""time"":1885},{""event"":""blur"",""trial"":139,""time"":1233044},{""event"":""focus"",""trial"":139,""time"":1244973}]",NA,NA,NA,NA,NA,6,#741CD8,#D8271C,0,10,0,38,1,628,39,0,279,10,1,experiment,NA,NA,2,0.5,0.5,5,4,221,5,NA
fcp-trial,257,1892769,0.0-232.0-0.0,voc_e2,12217,"[{""event"":""focus"",""trial"":1,""time"":1560},{""event"":""fullscreenenter"",""trial"":1,""time"":1885},{""event"":""blur"",""trial"":139,""time"":1233044},{""event"":""focus"",""trial"":139,""time"":1244973}]",NA,NA,NA,NA,NA,2,#D8271C,#741CD8,10,10,1,38,1,389,37,1,283,10,1,experiment,NA,NA,2,0.5,0.5,4,5,222,5,NA
fcp-trial,258,1894984,0.0-233.0-0.0,voc_e2,12217,"[{""event"":""focus"",""trial"":1,""time"":1560},{""event"":""fullscreenenter"",""trial"":1,""time"":1885},{""event"":""blur"",""trial"":139,""time"":1233044},{""event"":""focus"",""trial"":139,""time"":1244973}]",NA,NA,NA,NA,NA,4,#FA92F8,#1CD855,10,0,1,38,1,266,37,1,420,10,1,experiment,NA,NA,1,0.7,0.3,2,3,223,5,NA
fcp-trial,259,1897335,0.0-234.0-0.0,voc_e2,12217,"[{""event"":""focus"",""trial"":1,""time"":1560},{""event"":""fullscreenenter"",""trial"":1,""time"":1885},{""event"":""blur"",""trial"":139,""time"":1233044},{""event"":""focus"",""trial"":139,""time"":1244973}]",NA,NA,NA,NA,NA,3,#1CD855,#FA92F8,0,0,0,38,1,467,39,0,357,0,1,experiment,NA,NA,1,0.3,0.7,3,2,224,5,NA
fcp-trial,260,1899576,0.0-235.0-0.0,voc_e2,12217,"[{""event"":""focus"",""trial"":1,""time"":1560},{""event"":""fullscreenenter"",""trial"":1,""time"":1885},{""event"":""blur"",""trial"":139,""time"":1233044},{""event"":""focus"",""trial"":139,""time"":1244973}]",NA,NA,NA,NA,NA,0,#D89F1C,#3386FF,0,10,0,38,1,409,39,0,315,10,1,experiment,NA,NA,0,0.1,0.9,1,0,225,5,NA
fcp-trial,261,1902846,0.0-236.0-0.0,voc_e2,12217,"[{""event"":""focus"",""trial"":1,""time"":1560},{""event"":""fullscreenenter"",""trial"":1,""time"":1885},{""event"":""blur"",""trial"":139,""time"":1233044},{""event"":""focus"",""trial"":139,""time"":1244973}]",NA,NA,NA,NA,NA,5,#1CD855,#FA92F8,10,0,0,38,1,460,39,0,1295,0,1,experiment,NA,NA,1,0.3,0.7,3,2,226,6,NA
fcp-trial,262,1905319,0.0-237.0-0.0,voc_e2,12217,"[{""event"":""focus"",""trial"":1,""time"":1560},{""event"":""fullscreenenter"",""trial"":1,""time"":1885},{""event"":""blur"",""trial"":139,""time"":1233044},{""event"":""focus"",""trial"":139,""time"":1244973}]",NA,NA,NA,NA,NA,1,#D8271C,#741CD8,10,0,1,38,1,524,37,1,427,10,1,experiment,NA,NA,2,0.5,0.5,4,5,227,6,NA
fcp-trial,263,1907940,0.0-238.0-0.0,voc_e2,12217,"[{""event"":""focus"",""trial"":1,""time"":1560},{""event"":""fullscreenenter"",""trial"":1,""time"":1885},{""event"":""blur"",""trial"":139,""time"":1233044},{""event"":""focus"",""trial"":139,""time"":1244973}]",NA,NA,NA,NA,NA,3,#3386FF,#D89F1C,10,10,1,38,1,493,37,1,610,10,1,experiment,NA,NA,0,0.9,0.1,0,1,228,6,NA
fcp-trial,264,1910212,0.0-239.0-0.0,voc_e2,12217,"[{""event"":""focus"",""trial"":1,""time"":1560},{""event"":""fullscreenenter"",""trial"":1,""time"":1885},{""event"":""blur"",""trial"":139,""time"":1233044},{""event"":""focus"",""trial"":139,""time"":1244973}]",NA,NA,NA,NA,NA,1,#FA92F8,#1CD855,10,0,1,38,1,398,37,1,357,10,1,experiment,NA,NA,1,0.7,0.3,2,3,229,6,NA
fcp-trial,265,1912676,0.0-240.0-0.0,voc_e2,12217,"[{""event"":""focus"",""trial"":1,""time"":1560},{""event"":""fullscreenenter"",""trial"":1,""time"":1885},{""event"":""blur"",""trial"":139,""time"":1233044},{""event"":""focus"",""trial"":139,""time"":1244973}]",NA,NA,NA,NA,NA,5,#741CD8,#D8271C,0,0,0,38,1,411,39,0,525,0,1,experiment,NA,NA,2,0.5,0.5,5,4,230,6,NA
fcp-trial,266,1914942,0.0-241.0-0.0,voc_e2,12217,"[{""event"":""focus"",""trial"":1,""time"":1560},{""event"":""fullscreenenter"",""trial"":1,""time"":1885},{""event"":""blur"",""trial"":139,""time"":1233044},{""event"":""focus"",""trial"":139,""time"":1244973}]",NA,NA,NA,NA,NA,4,#741CD8,#D8271C,10,10,0,38,1,425,39,0,331,10,1,experiment,NA,NA,2,0.5,0.5,5,4,231,6,NA
fcp-trial,267,1917057,0.0-242.0-0.0,voc_e2,12217,"[{""event"":""focus"",""trial"":1,""time"":1560},{""event"":""fullscreenenter"",""trial"":1,""time"":1885},{""event"":""blur"",""trial"":139,""time"":1233044},{""event"":""focus"",""trial"":139,""time"":1244973}]",NA,NA,NA,NA,NA,2,#D89F1C,#3386FF,0,10,0,38,1,273,39,0,332,10,1,experiment,NA,NA,0,0.1,0.9,1,0,232,6,NA
fcp-trial,268,1919185,0.0-243.0-0.0,voc_e2,12217,"[{""event"":""focus"",""trial"":1,""time"":1560},{""event"":""fullscreenenter"",""trial"":1,""time"":1885},{""event"":""blur"",""trial"":139,""time"":1233044},{""event"":""focus"",""trial"":139,""time"":1244973}]",NA,NA,NA,NA,NA,1,#D89F1C,#3386FF,0,0,0,38,1,301,39,0,311,0,1,experiment,NA,NA,0,0.1,0.9,1,0,233,6,NA
fcp-trial,269,1921700,0.0-244.0-0.0,voc_e2,12217,"[{""event"":""focus"",""trial"":1,""time"":1560},{""event"":""fullscreenenter"",""trial"":1,""time"":1885},{""event"":""blur"",""trial"":139,""time"":1233044},{""event"":""focus"",""trial"":139,""time"":1244973}]",NA,NA,NA,NA,NA,6,#1CD855,#FA92F8,0,10,0,38,1,324,39,0,681,10,1,experiment,NA,NA,1,0.3,0.7,3,2,234,6,NA
fcp-trial,270,1924108,0.0-245.0-0.0,voc_e2,12217,"[{""event"":""focus"",""trial"":1,""time"":1560},{""event"":""fullscreenenter"",""trial"":1,""time"":1885},{""event"":""blur"",""trial"":139,""time"":1233044},{""event"":""focus"",""trial"":139,""time"":1244973}]",NA,NA,NA,NA,NA,0,#3386FF,#D89F1C,0,0,1,38,1,432,37,1,462,0,1,experiment,NA,NA,0,0.9,0.1,0,1,235,6,NA
fcp-trial,271,1926367,0.0-246.0-0.0,voc_e2,12217,"[{""event"":""focus"",""trial"":1,""time"":1560},{""event"":""fullscreenenter"",""trial"":1,""time"":1885},{""event"":""blur"",""trial"":139,""time"":1233044},{""event"":""focus"",""trial"":139,""time"":1244973}]",NA,NA,NA,NA,NA,3,#D8271C,#741CD8,10,0,1,38,1,412,39,0,334,0,0,experiment,NA,NA,2,0.5,0.5,4,5,236,6,NA
fcp-trial,272,1928864,0.0-247.0-0.0,voc_e2,12217,"[{""event"":""focus"",""trial"":1,""time"":1560},{""event"":""fullscreenenter"",""trial"":1,""time"":1885},{""event"":""blur"",""trial"":139,""time"":1233044},{""event"":""focus"",""trial"":139,""time"":1244973}]",NA,NA,NA,NA,NA,5,#1CD855,#FA92F8,10,10,0,38,1,496,39,0,482,10,1,experiment,NA,NA,1,0.3,0.7,3,2,237,6,NA
fcp-trial,273,1931069,0.0-248.0-0.0,voc_e2,12217,"[{""event"":""focus"",""trial"":1,""time"":1560},{""event"":""fullscreenenter"",""trial"":1,""time"":1885},{""event"":""blur"",""trial"":139,""time"":1233044},{""event"":""focus"",""trial"":139,""time"":1244973}]",NA,NA,NA,NA,NA,0,#FA92F8,#1CD855,10,0,1,38,1,355,37,1,325,10,1,experiment,NA,NA,1,0.7,0.3,2,3,238,6,NA
fcp-trial,274,1933550,0.0-249.0-0.0,voc_e2,12217,"[{""event"":""focus"",""trial"":1,""time"":1560},{""event"":""fullscreenenter"",""trial"":1,""time"":1885},{""event"":""blur"",""trial"":139,""time"":1233044},{""event"":""focus"",""trial"":139,""time"":1244973}]",NA,NA,NA,NA,NA,5,#D8271C,#741CD8,0,10,1,38,1,404,37,1,557,0,1,experiment,NA,NA,2,0.5,0.5,4,5,239,6,NA
fcp-trial,275,1935884,0.0-250.0-0.0,voc_e2,12217,"[{""event"":""focus"",""trial"":1,""time"":1560},{""event"":""fullscreenenter"",""trial"":1,""time"":1885},{""event"":""blur"",""trial"":139,""time"":1233044},{""event"":""focus"",""trial"":139,""time"":1244973}]",NA,NA,NA,NA,NA,3,#D89F1C,#3386FF,0,10,0,38,1,488,39,0,325,10,1,experiment,NA,NA,0,0.1,0.9,1,0,240,6,NA
fcp-trial,276,1938123,0.0-251.0-0.0,voc_e2,12217,"[{""event"":""focus"",""trial"":1,""time"":1560},{""event"":""fullscreenenter"",""trial"":1,""time"":1885},{""event"":""blur"",""trial"":139,""time"":1233044},{""event"":""focus"",""trial"":139,""time"":1244973}]",NA,NA,NA,NA,NA,3,#1CD855,#FA92F8,0,10,0,38,1,398,39,0,331,10,1,experiment,NA,NA,1,0.3,0.7,3,2,241,6,NA
fcp-trial,277,1940264,0.0-252.0-0.0,voc_e2,12217,"[{""event"":""focus"",""trial"":1,""time"":1560},{""event"":""fullscreenenter"",""trial"":1,""time"":1885},{""event"":""blur"",""trial"":139,""time"":1233044},{""event"":""focus"",""trial"":139,""time"":1244973}]",NA,NA,NA,NA,NA,4,#D8271C,#741CD8,0,10,1,38,1,337,37,1,289,0,1,experiment,NA,NA,2,0.5,0.5,4,5,242,6,NA
fcp-trial,278,1942897,0.0-253.0-0.0,voc_e2,12217,"[{""event"":""focus"",""trial"":1,""time"":1560},{""event"":""fullscreenenter"",""trial"":1,""time"":1885},{""event"":""blur"",""trial"":139,""time"":1233044},{""event"":""focus"",""trial"":139,""time"":1244973}]",NA,NA,NA,NA,NA,5,#3386FF,#D89F1C,10,0,1,38,1,402,37,1,708,10,1,experiment,NA,NA,0,0.9,0.1,0,1,243,6,NA
fcp-trial,279,1945056,0.0-254.0-0.0,voc_e2,12217,"[{""event"":""focus"",""trial"":1,""time"":1560},{""event"":""fullscreenenter"",""trial"":1,""time"":1885},{""event"":""blur"",""trial"":139,""time"":1233044},{""event"":""focus"",""trial"":139,""time"":1244973}]",NA,NA,NA,NA,NA,4,#D89F1C,#3386FF,0,10,0,38,1,359,39,0,272,10,1,experiment,NA,NA,0,0.1,0.9,1,0,244,6,NA
fcp-trial,280,1947404,0.0-255.0-0.0,voc_e2,12217,"[{""event"":""focus"",""trial"":1,""time"":1560},{""event"":""fullscreenenter"",""trial"":1,""time"":1885},{""event"":""blur"",""trial"":139,""time"":1233044},{""event"":""focus"",""trial"":139,""time"":1244973}]",NA,NA,NA,NA,NA,6,#D8271C,#741CD8,0,0,1,40,0,486,37,1,349,0,1,experiment,NA,NA,2,0.5,0.5,4,5,245,6,NA
fcp-trial,281,1950172,0.0-256.0-0.0,voc_e2,12217,"[{""event"":""focus"",""trial"":1,""time"":1560},{""event"":""fullscreenenter"",""trial"":1,""time"":1885},{""event"":""blur"",""trial"":139,""time"":1233044},{""event"":""focus"",""trial"":139,""time"":1244973}]",NA,NA,NA,NA,NA,2,#FA92F8,#1CD855,0,0,1,38,1,938,37,1,308,0,1,experiment,NA,NA,1,0.7,0.3,2,3,246,6,NA
fcp-trial,282,1952431,0.0-257.0-0.0,voc_e2,12217,"[{""event"":""focus"",""trial"":1,""time"":1560},{""event"":""fullscreenenter"",""trial"":1,""time"":1885},{""event"":""blur"",""trial"":139,""time"":1233044},{""event"":""focus"",""trial"":139,""time"":1244973}]",NA,NA,NA,NA,NA,4,#FA92F8,#1CD855,10,0,1,38,1,450,37,1,279,10,1,experiment,NA,NA,1,0.7,0.3,2,3,247,6,NA
fcp-trial,283,1954456,0.0-258.0-0.0,voc_e2,12217,"[{""event"":""focus"",""trial"":1,""time"":1560},{""event"":""fullscreenenter"",""trial"":1,""time"":1885},{""event"":""blur"",""trial"":139,""time"":1233044},{""event"":""focus"",""trial"":139,""time"":1244973}]",NA,NA,NA,NA,NA,6,#D89F1C,#3386FF,0,10,0,38,1,221,39,0,281,10,1,experiment,NA,NA,0,0.1,0.9,1,0,248,6,NA
fcp-trial,284,1956885,0.0-259.0-0.0,voc_e2,12217,"[{""event"":""focus"",""trial"":1,""time"":1560},{""event"":""fullscreenenter"",""trial"":1,""time"":1885},{""event"":""blur"",""trial"":139,""time"":1233044},{""event"":""focus"",""trial"":139,""time"":1244973}]",NA,NA,NA,NA,NA,0,#741CD8,#D8271C,0,10,0,40,0,564,39,0,343,10,1,experiment,NA,NA,2,0.5,0.5,5,4,249,6,NA
fcp-trial,285,1959453,0.0-260.0-0.0,voc_e2,12217,"[{""event"":""focus"",""trial"":1,""time"":1560},{""event"":""fullscreenenter"",""trial"":1,""time"":1885},{""event"":""blur"",""trial"":139,""time"":1233044},{""event"":""focus"",""trial"":139,""time"":1244973}]",NA,NA,NA,NA,NA,1,#D8271C,#741CD8,0,0,1,38,1,623,37,1,430,0,1,experiment,NA,NA,2,0.5,0.5,4,5,250,6,NA
fcp-trial,286,1961973,0.0-261.0-0.0,voc_e2,12217,"[{""event"":""focus"",""trial"":1,""time"":1560},{""event"":""fullscreenenter"",""trial"":1,""time"":1885},{""event"":""blur"",""trial"":139,""time"":1233044},{""event"":""focus"",""trial"":139,""time"":1244973}]",NA,NA,NA,NA,NA,1,#1CD855,#FA92F8,10,10,0,38,1,676,39,0,322,10,1,experiment,NA,NA,1,0.3,0.7,3,2,251,6,NA
fcp-trial,287,1964723,0.0-262.0-0.0,voc_e2,12217,"[{""event"":""focus"",""trial"":1,""time"":1560},{""event"":""fullscreenenter"",""trial"":1,""time"":1885},{""event"":""blur"",""trial"":139,""time"":1233044},{""event"":""focus"",""trial"":139,""time"":1244973}]",NA,NA,NA,NA,NA,2,#741CD8,#D8271C,0,10,0,40,0,884,37,1,343,0,0,experiment,NA,NA,2,0.5,0.5,5,4,252,6,NA
fcp-trial,288,1967229,0.0-263.0-0.0,voc_e2,12217,"[{""event"":""focus"",""trial"":1,""time"":1560},{""event"":""fullscreenenter"",""trial"":1,""time"":1885},{""event"":""blur"",""trial"":139,""time"":1233044},{""event"":""focus"",""trial"":139,""time"":1244973}]",NA,NA,NA,NA,NA,6,#3386FF,#D89F1C,10,0,1,38,1,703,37,1,280,10,1,experiment,NA,NA,0,0.9,0.1,0,1,253,6,NA
fcp-trial,289,1969733,0.0-264.0-0.0,voc_e2,12217,"[{""event"":""focus"",""trial"":1,""time"":1560},{""event"":""fullscreenenter"",""trial"":1,""time"":1885},{""event"":""blur"",""trial"":139,""time"":1233044},{""event"":""focus"",""trial"":139,""time"":1244973}]",NA,NA,NA,NA,NA,4,#3386FF,#D89F1C,10,0,1,38,1,674,37,1,308,10,1,experiment,NA,NA,0,0.9,0.1,0,1,254,6,NA
fcp-trial,290,1972032,0.0-265.0-0.0,voc_e2,12217,"[{""event"":""focus"",""trial"":1,""time"":1560},{""event"":""fullscreenenter"",""trial"":1,""time"":1885},{""event"":""blur"",""trial"":139,""time"":1233044},{""event"":""focus"",""trial"":139,""time"":1244973}]",NA,NA,NA,NA,NA,4,#FA92F8,#1CD855,10,0,1,38,1,488,37,1,295,10,1,experiment,NA,NA,1,0.7,0.3,2,3,255,6,NA
fcp-trial,291,1974817,0.0-266.0-0.0,voc_e2,12217,"[{""event"":""focus"",""trial"":1,""time"":1560},{""event"":""fullscreenenter"",""trial"":1,""time"":1885},{""event"":""blur"",""trial"":139,""time"":1233044},{""event"":""focus"",""trial"":139,""time"":1244973}]",NA,NA,NA,NA,NA,0,#1CD855,#FA92F8,0,0,0,38,1,539,39,0,729,0,1,experiment,NA,NA,1,0.3,0.7,3,2,256,6,NA
fcp-trial,292,1977214,0.0-267.0-0.0,voc_e2,12217,"[{""event"":""focus"",""trial"":1,""time"":1560},{""event"":""fullscreenenter"",""trial"":1,""time"":1885},{""event"":""blur"",""trial"":139,""time"":1233044},{""event"":""focus"",""trial"":139,""time"":1244973}]",NA,NA,NA,NA,NA,6,#FA92F8,#1CD855,10,0,1,38,1,506,37,1,373,10,1,experiment,NA,NA,1,0.7,0.3,2,3,257,6,NA
fcp-trial,293,1979761,0.0-268.0-0.0,voc_e2,12217,"[{""event"":""focus"",""trial"":1,""time"":1560},{""event"":""fullscreenenter"",""trial"":1,""time"":1885},{""event"":""blur"",""trial"":139,""time"":1233044},{""event"":""focus"",""trial"":139,""time"":1244973}]",NA,NA,NA,NA,NA,3,#D8271C,#741CD8,10,10,1,40,0,669,37,1,367,10,1,experiment,NA,NA,2,0.5,0.5,4,5,258,6,NA
fcp-trial,294,1982621,0.0-269.0-0.0,voc_e2,12217,"[{""event"":""focus"",""trial"":1,""time"":1560},{""event"":""fullscreenenter"",""trial"":1,""time"":1885},{""event"":""blur"",""trial"":139,""time"":1233044},{""event"":""focus"",""trial"":139,""time"":1244973}]",NA,NA,NA,NA,NA,0,#3386FF,#D89F1C,10,0,1,38,1,601,37,1,722,10,1,experiment,NA,NA,0,0.9,0.1,0,1,259,6,NA
fcp-trial,295,1985923,0.0-270.0-0.0,voc_e2,12217,"[{""event"":""focus"",""trial"":1,""time"":1560},{""event"":""fullscreenenter"",""trial"":1,""time"":1885},{""event"":""blur"",""trial"":139,""time"":1233044},{""event"":""focus"",""trial"":139,""time"":1244973}]",NA,NA,NA,NA,NA,5,#D8271C,#741CD8,0,10,1,38,1,554,39,0,1236,10,0,experiment,NA,NA,2,0.5,0.5,4,5,260,6,NA
fcp-trial,296,1988676,0.0-271.0-0.0,voc_e2,12217,"[{""event"":""focus"",""trial"":1,""time"":1560},{""event"":""fullscreenenter"",""trial"":1,""time"":1885},{""event"":""blur"",""trial"":139,""time"":1233044},{""event"":""focus"",""trial"":139,""time"":1244973}]",NA,NA,NA,NA,NA,1,#1CD855,#FA92F8,10,0,0,38,1,701,39,0,524,0,1,experiment,NA,NA,1,0.3,0.7,3,2,261,6,NA
fcp-trial,297,1991279,0.0-272.0-0.0,voc_e2,12217,"[{""event"":""focus"",""trial"":1,""time"":1560},{""event"":""fullscreenenter"",""trial"":1,""time"":1885},{""event"":""blur"",""trial"":139,""time"":1233044},{""event"":""focus"",""trial"":139,""time"":1244973}]",NA,NA,NA,NA,NA,6,#741CD8,#D8271C,0,10,0,40,0,774,37,1,317,0,0,experiment,NA,NA,2,0.5,0.5,5,4,262,6,NA
fcp-trial,298,1993630,0.0-273.0-0.0,voc_e2,12217,"[{""event"":""focus"",""trial"":1,""time"":1560},{""event"":""fullscreenenter"",""trial"":1,""time"":1885},{""event"":""blur"",""trial"":139,""time"":1233044},{""event"":""focus"",""trial"":139,""time"":1244973}]",NA,NA,NA,NA,NA,1,#3386FF,#D89F1C,10,0,1,38,1,558,37,1,269,10,1,experiment,NA,NA,0,0.9,0.1,0,1,263,6,NA
fcp-trial,299,1996080,0.0-274.0-0.0,voc_e2,12217,"[{""event"":""focus"",""trial"":1,""time"":1560},{""event"":""fullscreenenter"",""trial"":1,""time"":1885},{""event"":""blur"",""trial"":139,""time"":1233044},{""event"":""focus"",""trial"":139,""time"":1244973}]",NA,NA,NA,NA,NA,5,#FA92F8,#1CD855,0,0,1,38,1,556,37,1,385,0,1,experiment,NA,NA,1,0.7,0.3,2,3,264,6,NA
fcp-trial,300,1998415,0.0-275.0-0.0,voc_e2,12217,"[{""event"":""focus"",""trial"":1,""time"":1560},{""event"":""fullscreenenter"",""trial"":1,""time"":1885},{""event"":""blur"",""trial"":139,""time"":1233044},{""event"":""focus"",""trial"":139,""time"":1244973}]",NA,NA,NA,NA,NA,4,#D8271C,#741CD8,10,10,1,40,0,476,39,0,337,10,0,experiment,NA,NA,2,0.5,0.5,4,5,265,6,NA
fcp-trial,301,2000766,0.0-276.0-0.0,voc_e2,12217,"[{""event"":""focus"",""trial"":1,""time"":1560},{""event"":""fullscreenenter"",""trial"":1,""time"":1885},{""event"":""blur"",""trial"":139,""time"":1233044},{""event"":""focus"",""trial"":139,""time"":1244973}]",NA,NA,NA,NA,NA,1,#D8271C,#741CD8,0,10,1,40,0,469,37,1,339,0,1,experiment,NA,NA,2,0.5,0.5,4,5,266,6,NA
fcp-trial,302,2003317,0.0-277.0-0.0,voc_e2,12217,"[{""event"":""focus"",""trial"":1,""time"":1560},{""event"":""fullscreenenter"",""trial"":1,""time"":1885},{""event"":""blur"",""trial"":139,""time"":1233044},{""event"":""focus"",""trial"":139,""time"":1244973}]",NA,NA,NA,NA,NA,3,#FA92F8,#1CD855,10,10,1,38,1,642,37,1,387,10,1,experiment,NA,NA,1,0.7,0.3,2,3,267,6,NA
fcp-trial,303,2005498,0.0-278.0-0.0,voc_e2,12217,"[{""event"":""focus"",""trial"":1,""time"":1560},{""event"":""fullscreenenter"",""trial"":1,""time"":1885},{""event"":""blur"",""trial"":139,""time"":1233044},{""event"":""focus"",""trial"":139,""time"":1244973}]",NA,NA,NA,NA,NA,3,#D89F1C,#3386FF,0,0,0,38,1,398,39,0,269,0,1,experiment,NA,NA,0,0.1,0.9,1,0,268,6,NA
fcp-trial,304,2007911,0.0-279.0-0.0,voc_e2,12217,"[{""event"":""focus"",""trial"":1,""time"":1560},{""event"":""fullscreenenter"",""trial"":1,""time"":1885},{""event"":""blur"",""trial"":139,""time"":1233044},{""event"":""focus"",""trial"":139,""time"":1244973}]",NA,NA,NA,NA,NA,2,#FA92F8,#1CD855,10,0,1,38,1,464,37,1,428,10,1,experiment,NA,NA,1,0.7,0.3,2,3,269,6,NA
fcp-trial,305,2010367,0.0-280.0-0.0,voc_e2,12217,"[{""event"":""focus"",""trial"":1,""time"":1560},{""event"":""fullscreenenter"",""trial"":1,""time"":1885},{""event"":""blur"",""trial"":139,""time"":1233044},{""event"":""focus"",""trial"":139,""time"":1244973}]",NA,NA,NA,NA,NA,2,#741CD8,#D8271C,10,10,0,40,0,624,39,0,300,10,1,experiment,NA,NA,2,0.5,0.5,5,4,270,6,NA
fcp-trial,306,2012751,0.0-281.0-0.0,voc_e2,12217,"[{""event"":""focus"",""trial"":1,""time"":1560},{""event"":""fullscreenenter"",""trial"":1,""time"":1885},{""event"":""blur"",""trial"":139,""time"":1233044},{""event"":""focus"",""trial"":139,""time"":1244973}]",NA,NA,NA,NA,NA,2,#D89F1C,#3386FF,0,10,0,38,1,609,39,0,254,10,1,experiment,NA,NA,0,0.1,0.9,1,0,271,7,NA
fcp-trial,307,2015085,0.0-282.0-0.0,voc_e2,12217,"[{""event"":""focus"",""trial"":1,""time"":1560},{""event"":""fullscreenenter"",""trial"":1,""time"":1885},{""event"":""blur"",""trial"":139,""time"":1233044},{""event"":""focus"",""trial"":139,""time"":1244973}]",NA,NA,NA,NA,NA,5,#D89F1C,#3386FF,10,0,0,38,1,525,39,0,289,0,1,experiment,NA,NA,0,0.1,0.9,1,0,272,7,NA
fcp-trial,308,2017984,0.0-283.0-0.0,voc_e2,12217,"[{""event"":""focus"",""trial"":1,""time"":1560},{""event"":""fullscreenenter"",""trial"":1,""time"":1885},{""event"":""blur"",""trial"":139,""time"":1233044},{""event"":""focus"",""trial"":139,""time"":1244973}]",NA,NA,NA,NA,NA,0,#D8271C,#741CD8,10,10,1,40,0,597,37,1,778,10,1,experiment,NA,NA,2,0.5,0.5,4,5,273,7,NA
fcp-trial,309,2020550,0.0-284.0-0.0,voc_e2,12217,"[{""event"":""focus"",""trial"":1,""time"":1560},{""event"":""fullscreenenter"",""trial"":1,""time"":1885},{""event"":""blur"",""trial"":139,""time"":1233044},{""event"":""focus"",""trial"":139,""time"":1244973}]",NA,NA,NA,NA,NA,4,#741CD8,#D8271C,10,10,0,40,0,704,39,0,343,10,1,experiment,NA,NA,2,0.5,0.5,5,4,274,7,NA
fcp-trial,310,2022807,0.0-285.0-0.0,voc_e2,12217,"[{""event"":""focus"",""trial"":1,""time"":1560},{""event"":""fullscreenenter"",""trial"":1,""time"":1885},{""event"":""blur"",""trial"":139,""time"":1233044},{""event"":""focus"",""trial"":139,""time"":1244973}]",NA,NA,NA,NA,NA,4,#3386FF,#D89F1C,10,0,1,38,1,415,37,1,321,10,1,experiment,NA,NA,0,0.9,0.1,0,1,275,7,NA
