trial_type,trial_index,time_elapsed,internal_node_id,task_version,subject_id,interactions,success,rt,stimulus,key_press,button_pressed,offer,arcade_color_L,arcade_color_R,arcade_outcome_L,arcade_outcome_R,correct,stage_1_key,stage_1_choice,stage_1_rt,stage_2_key,stage_2_choice,stage_2_rt,stage_3_outcome,accuracy,phase,responses,num_errors,context,reward_prob_L,reward_prob_R,arcade_id_L,arcade_id_R,trial,block,response
pavlovia,0,10,0.0-0.0,voc_e2,11948,"[{""event"":""blur"",""trial"":0,""time"":0}]",NA,NA,NA,NA,NA,NA,NA,NA,NA,NA,NA,NA,NA,NA,NA,NA,NA,NA,NA,NA,NA,NA,NA,NA,NA,NA,NA,NA,NA,NA
fullscreen,1,128953,0.0-1.0,voc_e2,11948,"[{""event"":""blur"",""trial"":0,""time"":0},{""event"":""focus"",""trial"":1,""time"":30326},{""event"":""blur"",""trial"":1,""time"":31392},{""event"":""focus"",""trial"":1,""time"":40710},{""event"":""blur"",""trial"":1,""time"":40802},{""event"":""focus"",""trial"":1,""time"":126467},{""event"":""fullscreenenter"",""trial"":1,""time"":127975}]",TRUE,NA,NA,NA,NA,NA,NA,NA,NA,NA,NA,NA,NA,NA,NA,NA,NA,NA,NA,NA,NA,NA,NA,NA,NA,NA,NA,NA,NA,NA
audio-keyboard-response,2,131419,0.0-2.0,voc_e2,11948,"[{""event"":""blur"",""trial"":0,""time"":0},{""event"":""focus"",""trial"":1,""time"":30326},{""event"":""blur"",""trial"":1,""time"":31392},{""event"":""focus"",""trial"":1,""time"":40710},{""event"":""blur"",""trial"":1,""time"":40802},{""event"":""focus"",""trial"":1,""time"":126467},{""event"":""fullscreenenter"",""trial"":1,""time"":127975}]",NA,2400,static/audio/beep_loop.wav,32,NA,NA,NA,NA,NA,NA,NA,NA,NA,NA,NA,NA,NA,NA,NA,NA,NA,NA,NA,NA,NA,NA,NA,NA,NA,NA
audio-test,3,133269,0.0-3.0,voc_e2,11948,"[{""event"":""blur"",""trial"":0,""time"":0},{""event"":""focus"",""trial"":1,""time"":30326},{""event"":""blur"",""trial"":1,""time"":31392},{""event"":""focus"",""trial"":1,""time"":40710},{""event"":""blur"",""trial"":1,""time"":40802},{""event"":""focus"",""trial"":1,""time"":126467},{""event"":""fullscreenenter"",""trial"":1,""time"":127975}]",NA,NA,static/audio/turtle.wav,NA,3,NA,NA,NA,NA,NA,NA,NA,NA,NA,NA,NA,NA,NA,NA,NA,NA,NA,NA,NA,NA,NA,NA,NA,NA,NA
audio-test,4,135420,0.0-4.0,voc_e2,11948,"[{""event"":""blur"",""trial"":0,""time"":0},{""event"":""focus"",""trial"":1,""time"":30326},{""event"":""blur"",""trial"":1,""time"":31392},{""event"":""focus"",""trial"":1,""time"":40710},{""event"":""blur"",""trial"":1,""time"":40802},{""event"":""focus"",""trial"":1,""time"":126467},{""event"":""fullscreenenter"",""trial"":1,""time"":127975}]",NA,NA,static/audio/shark.wav,NA,2,NA,NA,NA,NA,NA,NA,NA,NA,NA,NA,NA,NA,NA,NA,NA,NA,NA,NA,NA,NA,NA,NA,NA,NA,NA
audio-instructions,5,144749,0.0-5.0-0.0,voc_e2,11948,"[{""event"":""blur"",""trial"":0,""time"":0},{""event"":""focus"",""trial"":1,""time"":30326},{""event"":""blur"",""trial"":1,""time"":31392},{""event"":""focus"",""trial"":1,""time"":40710},{""event"":""blur"",""trial"":1,""time"":40802},{""event"":""focus"",""trial"":1,""time"":126467},{""event"":""fullscreenenter"",""trial"":1,""time"":127975}]",NA,3535.300000190735,static/audio/instructions1.wav,NA,0,NA,NA,NA,NA,NA,NA,NA,NA,NA,NA,NA,NA,NA,NA,NA,NA,NA,NA,NA,NA,NA,NA,NA,NA,NA
audio-instructions,6,179237,0.0-5.0-1.0,voc_e2,11948,"[{""event"":""blur"",""trial"":0,""time"":0},{""event"":""focus"",""trial"":1,""time"":30326},{""event"":""blur"",""trial"":1,""time"":31392},{""event"":""focus"",""trial"":1,""time"":40710},{""event"":""blur"",""trial"":1,""time"":40802},{""event"":""focus"",""trial"":1,""time"":126467},{""event"":""fullscreenenter"",""trial"":1,""time"":127975},{""event"":""fullscreenexit"",""trial"":6,""time"":150632},{""event"":""blur"",""trial"":6,""time"":171701},{""event"":""focus"",""trial"":6,""time"":172893},{""event"":""blur"",""trial"":6,""time"":173910},{""event"":""focus"",""trial"":6,""time"":175159}]",NA,27742.900000095367,static/audio/instructions2.wav,NA,0,NA,NA,NA,NA,NA,NA,NA,NA,NA,NA,NA,NA,NA,NA,NA,NA,NA,NA,NA,NA,NA,NA,NA,NA,NA
audio-instructions,7,190020,0.0-5.0-2.0,voc_e2,11948,"[{""event"":""blur"",""trial"":0,""time"":0},{""event"":""focus"",""trial"":1,""time"":30326},{""event"":""blur"",""trial"":1,""time"":31392},{""event"":""focus"",""trial"":1,""time"":40710},{""event"":""blur"",""trial"":1,""time"":40802},{""event"":""focus"",""trial"":1,""time"":126467},{""event"":""fullscreenenter"",""trial"":1,""time"":127975},{""event"":""fullscreenexit"",""trial"":6,""time"":150632},{""event"":""blur"",""trial"":6,""time"":171701},{""event"":""focus"",""trial"":6,""time"":172893},{""event"":""blur"",""trial"":6,""time"":173910},{""event"":""focus"",""trial"":6,""time"":175159}]",NA,4977,static/audio/instructions3.wav,NA,0,NA,NA,NA,NA,NA,NA,NA,NA,NA,NA,NA,NA,NA,NA,NA,NA,NA,NA,NA,NA,NA,NA,NA,NA,NA
audio-instructions,8,207804,0.0-5.0-3.0,voc_e2,11948,"[{""event"":""blur"",""trial"":0,""time"":0},{""event"":""focus"",""trial"":1,""time"":30326},{""event"":""blur"",""trial"":1,""time"":31392},{""event"":""focus"",""trial"":1,""time"":40710},{""event"":""blur"",""trial"":1,""time"":40802},{""event"":""focus"",""trial"":1,""time"":126467},{""event"":""fullscreenenter"",""trial"":1,""time"":127975},{""event"":""fullscreenexit"",""trial"":6,""time"":150632},{""event"":""blur"",""trial"":6,""time"":171701},{""event"":""focus"",""trial"":6,""time"":172893},{""event"":""blur"",""trial"":6,""time"":173910},{""event"":""focus"",""trial"":6,""time"":175159},{""event"":""blur"",""trial"":8,""time"":193759},{""event"":""focus"",""trial"":8,""time"":196870}]",NA,4560.799999952316,static/audio/instructions4.wav,NA,0,NA,NA,NA,NA,NA,NA,NA,NA,NA,NA,NA,NA,NA,NA,NA,NA,NA,NA,NA,NA,NA,NA,NA,NA,NA
audio-instructions,9,218636,0.0-5.0-4.0,voc_e2,11948,"[{""event"":""blur"",""trial"":0,""time"":0},{""event"":""focus"",""trial"":1,""time"":30326},{""event"":""blur"",""trial"":1,""time"":31392},{""event"":""focus"",""trial"":1,""time"":40710},{""event"":""blur"",""trial"":1,""time"":40802},{""event"":""focus"",""trial"":1,""time"":126467},{""event"":""fullscreenenter"",""trial"":1,""time"":127975},{""event"":""fullscreenexit"",""trial"":6,""time"":150632},{""event"":""blur"",""trial"":6,""time"":171701},{""event"":""focus"",""trial"":6,""time"":172893},{""event"":""blur"",""trial"":6,""time"":173910},{""event"":""focus"",""trial"":6,""time"":175159},{""event"":""blur"",""trial"":8,""time"":193759},{""event"":""focus"",""trial"":8,""time"":196870}]",NA,1423,static/audio/instructions5.wav,NA,0,NA,NA,NA,NA,NA,NA,NA,NA,NA,NA,NA,NA,NA,NA,NA,NA,NA,NA,NA,NA,NA,NA,NA,NA,NA
fcp-practice,10,222596,0.0-5.0-5.0-0.0,voc_e2,11948,"[{""event"":""blur"",""trial"":0,""time"":0},{""event"":""focus"",""trial"":1,""time"":30326},{""event"":""blur"",""trial"":1,""time"":31392},{""event"":""focus"",""trial"":1,""time"":40710},{""event"":""blur"",""trial"":1,""time"":40802},{""event"":""focus"",""trial"":1,""time"":126467},{""event"":""fullscreenenter"",""trial"":1,""time"":127975},{""event"":""fullscreenexit"",""trial"":6,""time"":150632},{""event"":""blur"",""trial"":6,""time"":171701},{""event"":""focus"",""trial"":6,""time"":172893},{""event"":""blur"",""trial"":6,""time"":173910},{""event"":""focus"",""trial"":6,""time"":175159},{""event"":""blur"",""trial"":8,""time"":193759},{""event"":""focus"",""trial"":8,""time"":196870}]",NA,NA,NA,NA,NA,NA,#EDC948,#46d3c8,10,0,1,null,null,null,37,1,2441,10,1,practice,NA,NA,NA,NA,NA,NA,NA,NA,NA,NA
fcp-practice,11,225129,0.0-5.0-5.0-1.0,voc_e2,11948,"[{""event"":""blur"",""trial"":0,""time"":0},{""event"":""focus"",""trial"":1,""time"":30326},{""event"":""blur"",""trial"":1,""time"":31392},{""event"":""focus"",""trial"":1,""time"":40710},{""event"":""blur"",""trial"":1,""time"":40802},{""event"":""focus"",""trial"":1,""time"":126467},{""event"":""fullscreenenter"",""trial"":1,""time"":127975},{""event"":""fullscreenexit"",""trial"":6,""time"":150632},{""event"":""blur"",""trial"":6,""time"":171701},{""event"":""focus"",""trial"":6,""time"":172893},{""event"":""blur"",""trial"":6,""time"":173910},{""event"":""focus"",""trial"":6,""time"":175159},{""event"":""blur"",""trial"":8,""time"":193759},{""event"":""focus"",""trial"":8,""time"":196870}]",NA,NA,NA,NA,NA,NA,#EDC948,#46d3c8,10,0,1,null,null,null,37,1,1010.2000000476836,10,1,practice,NA,NA,NA,NA,NA,NA,NA,NA,NA,NA
fcp-practice,12,227625,0.0-5.0-5.0-2.0,voc_e2,11948,"[{""event"":""blur"",""trial"":0,""time"":0},{""event"":""focus"",""trial"":1,""time"":30326},{""event"":""blur"",""trial"":1,""time"":31392},{""event"":""focus"",""trial"":1,""time"":40710},{""event"":""blur"",""trial"":1,""time"":40802},{""event"":""focus"",""trial"":1,""time"":126467},{""event"":""fullscreenenter"",""trial"":1,""time"":127975},{""event"":""fullscreenexit"",""trial"":6,""time"":150632},{""event"":""blur"",""trial"":6,""time"":171701},{""event"":""focus"",""trial"":6,""time"":172893},{""event"":""blur"",""trial"":6,""time"":173910},{""event"":""focus"",""trial"":6,""time"":175159},{""event"":""blur"",""trial"":8,""time"":193759},{""event"":""focus"",""trial"":8,""time"":196870}]",NA,NA,NA,NA,NA,NA,#EDC948,#46d3c8,0,10,1,null,null,null,37,1,982.3000001907347,0,1,practice,NA,NA,NA,NA,NA,NA,NA,NA,NA,NA
fcp-practice,13,230108,0.0-5.0-5.0-3.0,voc_e2,11948,"[{""event"":""blur"",""trial"":0,""time"":0},{""event"":""focus"",""trial"":1,""time"":30326},{""event"":""blur"",""trial"":1,""time"":31392},{""event"":""focus"",""trial"":1,""time"":40710},{""event"":""blur"",""trial"":1,""time"":40802},{""event"":""focus"",""trial"":1,""time"":126467},{""event"":""fullscreenenter"",""trial"":1,""time"":127975},{""event"":""fullscreenexit"",""trial"":6,""time"":150632},{""event"":""blur"",""trial"":6,""time"":171701},{""event"":""focus"",""trial"":6,""time"":172893},{""event"":""blur"",""trial"":6,""time"":173910},{""event"":""focus"",""trial"":6,""time"":175159},{""event"":""blur"",""trial"":8,""time"":193759},{""event"":""focus"",""trial"":8,""time"":196870}]",NA,NA,NA,NA,NA,NA,#EDC948,#46d3c8,10,0,1,null,null,null,37,1,966.2999999523164,10,1,practice,NA,NA,NA,NA,NA,NA,NA,NA,NA,NA
fcp-practice,14,234950,0.0-5.0-5.0-4.0,voc_e2,11948,"[{""event"":""blur"",""trial"":0,""time"":0},{""event"":""focus"",""trial"":1,""time"":30326},{""event"":""blur"",""trial"":1,""time"":31392},{""event"":""focus"",""trial"":1,""time"":40710},{""event"":""blur"",""trial"":1,""time"":40802},{""event"":""focus"",""trial"":1,""time"":126467},{""event"":""fullscreenenter"",""trial"":1,""time"":127975},{""event"":""fullscreenexit"",""trial"":6,""time"":150632},{""event"":""blur"",""trial"":6,""time"":171701},{""event"":""focus"",""trial"":6,""time"":172893},{""event"":""blur"",""trial"":6,""time"":173910},{""event"":""focus"",""trial"":6,""time"":175159},{""event"":""blur"",""trial"":8,""time"":193759},{""event"":""focus"",""trial"":8,""time"":196870}]",NA,NA,NA,NA,NA,NA,#EDC948,#46d3c8,10,0,1,null,null,null,37,1,3332.399999856949,10,1,practice,NA,NA,NA,NA,NA,NA,NA,NA,NA,NA
audio-instructions,15,254604,0.0-5.0-6.0,voc_e2,11948,"[{""event"":""blur"",""trial"":0,""time"":0},{""event"":""focus"",""trial"":1,""time"":30326},{""event"":""blur"",""trial"":1,""time"":31392},{""event"":""focus"",""trial"":1,""time"":40710},{""event"":""blur"",""trial"":1,""time"":40802},{""event"":""focus"",""trial"":1,""time"":126467},{""event"":""fullscreenenter"",""trial"":1,""time"":127975},{""event"":""fullscreenexit"",""trial"":6,""time"":150632},{""event"":""blur"",""trial"":6,""time"":171701},{""event"":""focus"",""trial"":6,""time"":172893},{""event"":""blur"",""trial"":6,""time"":173910},{""event"":""focus"",""trial"":6,""time"":175159},{""event"":""blur"",""trial"":8,""time"":193759},{""event"":""focus"",""trial"":8,""time"":196870}]",NA,1630.5999999046326,static/audio/instructions6.wav,NA,0,NA,NA,NA,NA,NA,NA,NA,NA,NA,NA,NA,NA,NA,NA,NA,NA,NA,NA,NA,NA,NA,NA,NA,NA,NA
audio-instructions,16,277332,0.0-5.0-7.0,voc_e2,11948,"[{""event"":""blur"",""trial"":0,""time"":0},{""event"":""focus"",""trial"":1,""time"":30326},{""event"":""blur"",""trial"":1,""time"":31392},{""event"":""focus"",""trial"":1,""time"":40710},{""event"":""blur"",""trial"":1,""time"":40802},{""event"":""focus"",""trial"":1,""time"":126467},{""event"":""fullscreenenter"",""trial"":1,""time"":127975},{""event"":""fullscreenexit"",""trial"":6,""time"":150632},{""event"":""blur"",""trial"":6,""time"":171701},{""event"":""focus"",""trial"":6,""time"":172893},{""event"":""blur"",""trial"":6,""time"":173910},{""event"":""focus"",""trial"":6,""time"":175159},{""event"":""blur"",""trial"":8,""time"":193759},{""event"":""focus"",""trial"":8,""time"":196870},{""event"":""blur"",""trial"":16,""time"":269059},{""event"":""focus"",""trial"":16,""time"":270587}]",NA,3498.7999999523163,static/audio/instructions7.wav,NA,0,NA,NA,NA,NA,NA,NA,NA,NA,NA,NA,NA,NA,NA,NA,NA,NA,NA,NA,NA,NA,NA,NA,NA,NA,NA
audio-instructions,17,288564,0.0-5.0-8.0,voc_e2,11948,"[{""event"":""blur"",""trial"":0,""time"":0},{""event"":""focus"",""trial"":1,""time"":30326},{""event"":""blur"",""trial"":1,""time"":31392},{""event"":""focus"",""trial"":1,""time"":40710},{""event"":""blur"",""trial"":1,""time"":40802},{""event"":""focus"",""trial"":1,""time"":126467},{""event"":""fullscreenenter"",""trial"":1,""time"":127975},{""event"":""fullscreenexit"",""trial"":6,""time"":150632},{""event"":""blur"",""trial"":6,""time"":171701},{""event"":""focus"",""trial"":6,""time"":172893},{""event"":""blur"",""trial"":6,""time"":173910},{""event"":""focus"",""trial"":6,""time"":175159},{""event"":""blur"",""trial"":8,""time"":193759},{""event"":""focus"",""trial"":8,""time"":196870},{""event"":""blur"",""trial"":16,""time"":269059},{""event"":""focus"",""trial"":16,""time"":270587}]",NA,1741.3999998569489,static/audio/instructions8.wav,NA,0,NA,NA,NA,NA,NA,NA,NA,NA,NA,NA,NA,NA,NA,NA,NA,NA,NA,NA,NA,NA,NA,NA,NA,NA,NA
fcp-comprehension,18,298477,0.0-5.0-9.0,voc_e2,11948,"[{""event"":""blur"",""trial"":0,""time"":0},{""event"":""focus"",""trial"":1,""time"":30326},{""event"":""blur"",""trial"":1,""time"":31392},{""event"":""focus"",""trial"":1,""time"":40710},{""event"":""blur"",""trial"":1,""time"":40802},{""event"":""focus"",""trial"":1,""time"":126467},{""event"":""fullscreenenter"",""trial"":1,""time"":127975},{""event"":""fullscreenexit"",""trial"":6,""time"":150632},{""event"":""blur"",""trial"":6,""time"":171701},{""event"":""focus"",""trial"":6,""time"":172893},{""event"":""blur"",""trial"":6,""time"":173910},{""event"":""focus"",""trial"":6,""time"":175159},{""event"":""blur"",""trial"":8,""time"":193759},{""event"":""focus"",""trial"":8,""time"":196870},{""event"":""blur"",""trial"":16,""time"":269059},{""event"":""focus"",""trial"":16,""time"":270587}]",NA,9910.799999952316,NA,NA,NA,NA,NA,NA,NA,NA,NA,NA,NA,NA,NA,NA,NA,NA,NA,NA,"true,true",0,NA,NA,NA,NA,NA,NA,NA,NA
audio-instructions,19,304908,0.0-6.0-0.0,voc_e2,11948,"[{""event"":""blur"",""trial"":0,""time"":0},{""event"":""focus"",""trial"":1,""time"":30326},{""event"":""blur"",""trial"":1,""time"":31392},{""event"":""focus"",""trial"":1,""time"":40710},{""event"":""blur"",""trial"":1,""time"":40802},{""event"":""focus"",""trial"":1,""time"":126467},{""event"":""fullscreenenter"",""trial"":1,""time"":127975},{""event"":""fullscreenexit"",""trial"":6,""time"":150632},{""event"":""blur"",""trial"":6,""time"":171701},{""event"":""focus"",""trial"":6,""time"":172893},{""event"":""blur"",""trial"":6,""time"":173910},{""event"":""focus"",""trial"":6,""time"":175159},{""event"":""blur"",""trial"":8,""time"":193759},{""event"":""focus"",""trial"":8,""time"":196870},{""event"":""blur"",""trial"":16,""time"":269059},{""event"":""focus"",""trial"":16,""time"":270587}]",NA,884,static/audio/instructions9.wav,NA,0,NA,NA,NA,NA,NA,NA,NA,NA,NA,NA,NA,NA,NA,NA,NA,NA,NA,NA,NA,NA,NA,NA,NA,NA,NA
audio-instructions,20,320132,0.0-6.0-1.0,voc_e2,11948,"[{""event"":""blur"",""trial"":0,""time"":0},{""event"":""focus"",""trial"":1,""time"":30326},{""event"":""blur"",""trial"":1,""time"":31392},{""event"":""focus"",""trial"":1,""time"":40710},{""event"":""blur"",""trial"":1,""time"":40802},{""event"":""focus"",""trial"":1,""time"":126467},{""event"":""fullscreenenter"",""trial"":1,""time"":127975},{""event"":""fullscreenexit"",""trial"":6,""time"":150632},{""event"":""blur"",""trial"":6,""time"":171701},{""event"":""focus"",""trial"":6,""time"":172893},{""event"":""blur"",""trial"":6,""time"":173910},{""event"":""focus"",""trial"":6,""time"":175159},{""event"":""blur"",""trial"":8,""time"":193759},{""event"":""focus"",""trial"":8,""time"":196870},{""event"":""blur"",""trial"":16,""time"":269059},{""event"":""focus"",""trial"":16,""time"":270587}]",NA,3078.800000190735,static/audio/instructions10.wav,NA,0,NA,NA,NA,NA,NA,NA,NA,NA,NA,NA,NA,NA,NA,NA,NA,NA,NA,NA,NA,NA,NA,NA,NA,NA,NA
fcp-trial,21,328228,0.0-6.0-2.0,voc_e2,11948,"[{""event"":""blur"",""trial"":0,""time"":0},{""event"":""focus"",""trial"":1,""time"":30326},{""event"":""blur"",""trial"":1,""time"":31392},{""event"":""focus"",""trial"":1,""time"":40710},{""event"":""blur"",""trial"":1,""time"":40802},{""event"":""focus"",""trial"":1,""time"":126467},{""event"":""fullscreenenter"",""trial"":1,""time"":127975},{""event"":""fullscreenexit"",""trial"":6,""time"":150632},{""event"":""blur"",""trial"":6,""time"":171701},{""event"":""focus"",""trial"":6,""time"":172893},{""event"":""blur"",""trial"":6,""time"":173910},{""event"":""focus"",""trial"":6,""time"":175159},{""event"":""blur"",""trial"":8,""time"":193759},{""event"":""focus"",""trial"":8,""time"":196870},{""event"":""blur"",""trial"":16,""time"":269059},{""event"":""focus"",""trial"":16,""time"":270587}]",NA,NA,NA,NA,NA,0,#EDC948,#46d3c8,10,10,1,38,1,4784.799999952316,37,1,1775.5999999046326,10,1,practice,NA,NA,NA,NA,NA,NA,NA,NA,NA,NA
audio-instructions,22,346812,0.0-6.0-3.0,voc_e2,11948,"[{""event"":""blur"",""trial"":0,""time"":0},{""event"":""focus"",""trial"":1,""time"":30326},{""event"":""blur"",""trial"":1,""time"":31392},{""event"":""focus"",""trial"":1,""time"":40710},{""event"":""blur"",""trial"":1,""time"":40802},{""event"":""focus"",""trial"":1,""time"":126467},{""event"":""fullscreenenter"",""trial"":1,""time"":127975},{""event"":""fullscreenexit"",""trial"":6,""time"":150632},{""event"":""blur"",""trial"":6,""time"":171701},{""event"":""focus"",""trial"":6,""time"":172893},{""event"":""blur"",""trial"":6,""time"":173910},{""event"":""focus"",""trial"":6,""time"":175159},{""event"":""blur"",""trial"":8,""time"":193759},{""event"":""focus"",""trial"":8,""time"":196870},{""event"":""blur"",""trial"":16,""time"":269059},{""event"":""focus"",""trial"":16,""time"":270587},{""event"":""blur"",""trial"":22,""time"":342138},{""event"":""focus"",""trial"":22,""time"":345422}]",NA,7578.799999952316,static/audio/instructions11.wav,NA,0,NA,NA,NA,NA,NA,NA,NA,NA,NA,NA,NA,NA,NA,NA,NA,NA,NA,NA,NA,NA,NA,NA,NA,NA,NA
fcp-trial,23,359490,0.0-6.0-4.0,voc_e2,11948,"[{""event"":""blur"",""trial"":0,""time"":0},{""event"":""focus"",""trial"":1,""time"":30326},{""event"":""blur"",""trial"":1,""time"":31392},{""event"":""focus"",""trial"":1,""time"":40710},{""event"":""blur"",""trial"":1,""time"":40802},{""event"":""focus"",""trial"":1,""time"":126467},{""event"":""fullscreenenter"",""trial"":1,""time"":127975},{""event"":""fullscreenexit"",""trial"":6,""time"":150632},{""event"":""blur"",""trial"":6,""time"":171701},{""event"":""focus"",""trial"":6,""time"":172893},{""event"":""blur"",""trial"":6,""time"":173910},{""event"":""focus"",""trial"":6,""time"":175159},{""event"":""blur"",""trial"":8,""time"":193759},{""event"":""focus"",""trial"":8,""time"":196870},{""event"":""blur"",""trial"":16,""time"":269059},{""event"":""focus"",""trial"":16,""time"":270587},{""event"":""blur"",""trial"":22,""time"":342138},{""event"":""focus"",""trial"":22,""time"":345422}]",NA,NA,NA,NA,NA,6,#EDC948,#46d3c8,10,10,1,40,0,7247.5,39,0,3919.399999856949,10,0,practice,NA,NA,NA,NA,NA,NA,NA,NA,NA,NA
audio-instructions,24,379907,0.0-6.0-5.0,voc_e2,11948,"[{""event"":""blur"",""trial"":0,""time"":0},{""event"":""focus"",""trial"":1,""time"":30326},{""event"":""blur"",""trial"":1,""time"":31392},{""event"":""focus"",""trial"":1,""time"":40710},{""event"":""blur"",""trial"":1,""time"":40802},{""event"":""focus"",""trial"":1,""time"":126467},{""event"":""fullscreenenter"",""trial"":1,""time"":127975},{""event"":""fullscreenexit"",""trial"":6,""time"":150632},{""event"":""blur"",""trial"":6,""time"":171701},{""event"":""focus"",""trial"":6,""time"":172893},{""event"":""blur"",""trial"":6,""time"":173910},{""event"":""focus"",""trial"":6,""time"":175159},{""event"":""blur"",""trial"":8,""time"":193759},{""event"":""focus"",""trial"":8,""time"":196870},{""event"":""blur"",""trial"":16,""time"":269059},{""event"":""focus"",""trial"":16,""time"":270587},{""event"":""blur"",""trial"":22,""time"":342138},{""event"":""focus"",""trial"":22,""time"":345422}]",NA,1714.1999998092651,static/audio/instructions12.wav,NA,0,NA,NA,NA,NA,NA,NA,NA,NA,NA,NA,NA,NA,NA,NA,NA,NA,NA,NA,NA,NA,NA,NA,NA,NA,NA
audio-instructions,25,390995,0.0-6.0-6.0,voc_e2,11948,"[{""event"":""blur"",""trial"":0,""time"":0},{""event"":""focus"",""trial"":1,""time"":30326},{""event"":""blur"",""trial"":1,""time"":31392},{""event"":""focus"",""trial"":1,""time"":40710},{""event"":""blur"",""trial"":1,""time"":40802},{""event"":""focus"",""trial"":1,""time"":126467},{""event"":""fullscreenenter"",""trial"":1,""time"":127975},{""event"":""fullscreenexit"",""trial"":6,""time"":150632},{""event"":""blur"",""trial"":6,""time"":171701},{""event"":""focus"",""trial"":6,""time"":172893},{""event"":""blur"",""trial"":6,""time"":173910},{""event"":""focus"",""trial"":6,""time"":175159},{""event"":""blur"",""trial"":8,""time"":193759},{""event"":""focus"",""trial"":8,""time"":196870},{""event"":""blur"",""trial"":16,""time"":269059},{""event"":""focus"",""trial"":16,""time"":270587},{""event"":""blur"",""trial"":22,""time"":342138},{""event"":""focus"",""trial"":22,""time"":345422},{""event"":""blur"",""trial"":25,""time"":381707},{""event"":""focus"",""trial"":25,""time"":386232}]",NA,3481.199999809265,static/audio/instructions13.wav,NA,0,NA,NA,NA,NA,NA,NA,NA,NA,NA,NA,NA,NA,NA,NA,NA,NA,NA,NA,NA,NA,NA,NA,NA,NA,NA
audio-instructions,26,400427,0.0-6.0-7.0,voc_e2,11948,"[{""event"":""blur"",""trial"":0,""time"":0},{""event"":""focus"",""trial"":1,""time"":30326},{""event"":""blur"",""trial"":1,""time"":31392},{""event"":""focus"",""trial"":1,""time"":40710},{""event"":""blur"",""trial"":1,""time"":40802},{""event"":""focus"",""trial"":1,""time"":126467},{""event"":""fullscreenenter"",""trial"":1,""time"":127975},{""event"":""fullscreenexit"",""trial"":6,""time"":150632},{""event"":""blur"",""trial"":6,""time"":171701},{""event"":""focus"",""trial"":6,""time"":172893},{""event"":""blur"",""trial"":6,""time"":173910},{""event"":""focus"",""trial"":6,""time"":175159},{""event"":""blur"",""trial"":8,""time"":193759},{""event"":""focus"",""trial"":8,""time"":196870},{""event"":""blur"",""trial"":16,""time"":269059},{""event"":""focus"",""trial"":16,""time"":270587},{""event"":""blur"",""trial"":22,""time"":342138},{""event"":""focus"",""trial"":22,""time"":345422},{""event"":""blur"",""trial"":25,""time"":381707},{""event"":""focus"",""trial"":25,""time"":386232}]",NA,974.5,static/audio/instructions14.wav,NA,0,NA,NA,NA,NA,NA,NA,NA,NA,NA,NA,NA,NA,NA,NA,NA,NA,NA,NA,NA,NA,NA,NA,NA,NA,NA
audio-instructions,27,407947,0.0-7.0-0.0,voc_e2,11948,"[{""event"":""blur"",""trial"":0,""time"":0},{""event"":""focus"",""trial"":1,""time"":30326},{""event"":""blur"",""trial"":1,""time"":31392},{""event"":""focus"",""trial"":1,""time"":40710},{""event"":""blur"",""trial"":1,""time"":40802},{""event"":""focus"",""trial"":1,""time"":126467},{""event"":""fullscreenenter"",""trial"":1,""time"":127975},{""event"":""fullscreenexit"",""trial"":6,""time"":150632},{""event"":""blur"",""trial"":6,""time"":171701},{""event"":""focus"",""trial"":6,""time"":172893},{""event"":""blur"",""trial"":6,""time"":173910},{""event"":""focus"",""trial"":6,""time"":175159},{""event"":""blur"",""trial"":8,""time"":193759},{""event"":""focus"",""trial"":8,""time"":196870},{""event"":""blur"",""trial"":16,""time"":269059},{""event"":""focus"",""trial"":16,""time"":270587},{""event"":""blur"",""trial"":22,""time"":342138},{""event"":""focus"",""trial"":22,""time"":345422},{""event"":""blur"",""trial"":25,""time"":381707},{""event"":""focus"",""trial"":25,""time"":386232}]",NA,613.0999999046326,static/audio/instructions15.wav,NA,0,NA,NA,NA,NA,NA,NA,NA,NA,NA,NA,NA,NA,NA,NA,NA,NA,NA,NA,NA,NA,NA,NA,NA,NA,NA
audio-instructions,28,415539,0.0-7.0-1.0,voc_e2,11948,"[{""event"":""blur"",""trial"":0,""time"":0},{""event"":""focus"",""trial"":1,""time"":30326},{""event"":""blur"",""trial"":1,""time"":31392},{""event"":""focus"",""trial"":1,""time"":40710},{""event"":""blur"",""trial"":1,""time"":40802},{""event"":""focus"",""trial"":1,""time"":126467},{""event"":""fullscreenenter"",""trial"":1,""time"":127975},{""event"":""fullscreenexit"",""trial"":6,""time"":150632},{""event"":""blur"",""trial"":6,""time"":171701},{""event"":""focus"",""trial"":6,""time"":172893},{""event"":""blur"",""trial"":6,""time"":173910},{""event"":""focus"",""trial"":6,""time"":175159},{""event"":""blur"",""trial"":8,""time"":193759},{""event"":""focus"",""trial"":8,""time"":196870},{""event"":""blur"",""trial"":16,""time"":269059},{""event"":""focus"",""trial"":16,""time"":270587},{""event"":""blur"",""trial"":22,""time"":342138},{""event"":""focus"",""trial"":22,""time"":345422},{""event"":""blur"",""trial"":25,""time"":381707},{""event"":""focus"",""trial"":25,""time"":386232}]",NA,764.7000000476837,static/audio/instructions16.wav,NA,0,NA,NA,NA,NA,NA,NA,NA,NA,NA,NA,NA,NA,NA,NA,NA,NA,NA,NA,NA,NA,NA,NA,NA,NA,NA
audio-instructions,29,423811,0.0-7.0-2.0,voc_e2,11948,"[{""event"":""blur"",""trial"":0,""time"":0},{""event"":""focus"",""trial"":1,""time"":30326},{""event"":""blur"",""trial"":1,""time"":31392},{""event"":""focus"",""trial"":1,""time"":40710},{""event"":""blur"",""trial"":1,""time"":40802},{""event"":""focus"",""trial"":1,""time"":126467},{""event"":""fullscreenenter"",""trial"":1,""time"":127975},{""event"":""fullscreenexit"",""trial"":6,""time"":150632},{""event"":""blur"",""trial"":6,""time"":171701},{""event"":""focus"",""trial"":6,""time"":172893},{""event"":""blur"",""trial"":6,""time"":173910},{""event"":""focus"",""trial"":6,""time"":175159},{""event"":""blur"",""trial"":8,""time"":193759},{""event"":""focus"",""trial"":8,""time"":196870},{""event"":""blur"",""trial"":16,""time"":269059},{""event"":""focus"",""trial"":16,""time"":270587},{""event"":""blur"",""trial"":22,""time"":342138},{""event"":""focus"",""trial"":22,""time"":345422},{""event"":""blur"",""trial"":25,""time"":381707},{""event"":""focus"",""trial"":25,""time"":386232}]",NA,586.9000000953674,static/audio/instructions17.wav,NA,0,NA,NA,NA,NA,NA,NA,NA,NA,NA,NA,NA,NA,NA,NA,NA,NA,NA,NA,NA,NA,NA,NA,NA,NA,NA
audio-instructions,30,433162,0.0-7.0-3.0,voc_e2,11948,"[{""event"":""blur"",""trial"":0,""time"":0},{""event"":""focus"",""trial"":1,""time"":30326},{""event"":""blur"",""trial"":1,""time"":31392},{""event"":""focus"",""trial"":1,""time"":40710},{""event"":""blur"",""trial"":1,""time"":40802},{""event"":""focus"",""trial"":1,""time"":126467},{""event"":""fullscreenenter"",""trial"":1,""time"":127975},{""event"":""fullscreenexit"",""trial"":6,""time"":150632},{""event"":""blur"",""trial"":6,""time"":171701},{""event"":""focus"",""trial"":6,""time"":172893},{""event"":""blur"",""trial"":6,""time"":173910},{""event"":""focus"",""trial"":6,""time"":175159},{""event"":""blur"",""trial"":8,""time"":193759},{""event"":""focus"",""trial"":8,""time"":196870},{""event"":""blur"",""trial"":16,""time"":269059},{""event"":""focus"",""trial"":16,""time"":270587},{""event"":""blur"",""trial"":22,""time"":342138},{""event"":""focus"",""trial"":22,""time"":345422},{""event"":""blur"",""trial"":25,""time"":381707},{""event"":""focus"",""trial"":25,""time"":386232}]",NA,1568.5999999046326,static/audio/instructions18.wav,NA,0,NA,NA,NA,NA,NA,NA,NA,NA,NA,NA,NA,NA,NA,NA,NA,NA,NA,NA,NA,NA,NA,NA,NA,NA,NA
audio-instructions,31,440586,0.0-7.0-4.0,voc_e2,11948,"[{""event"":""blur"",""trial"":0,""time"":0},{""event"":""focus"",""trial"":1,""time"":30326},{""event"":""blur"",""trial"":1,""time"":31392},{""event"":""focus"",""trial"":1,""time"":40710},{""event"":""blur"",""trial"":1,""time"":40802},{""event"":""focus"",""trial"":1,""time"":126467},{""event"":""fullscreenenter"",""trial"":1,""time"":127975},{""event"":""fullscreenexit"",""trial"":6,""time"":150632},{""event"":""blur"",""trial"":6,""time"":171701},{""event"":""focus"",""trial"":6,""time"":172893},{""event"":""blur"",""trial"":6,""time"":173910},{""event"":""focus"",""trial"":6,""time"":175159},{""event"":""blur"",""trial"":8,""time"":193759},{""event"":""focus"",""trial"":8,""time"":196870},{""event"":""blur"",""trial"":16,""time"":269059},{""event"":""focus"",""trial"":16,""time"":270587},{""event"":""blur"",""trial"":22,""time"":342138},{""event"":""focus"",""trial"":22,""time"":345422},{""event"":""blur"",""trial"":25,""time"":381707},{""event"":""focus"",""trial"":25,""time"":386232}]",NA,642.8999998569489,static/audio/instructions19.wav,NA,0,NA,NA,NA,NA,NA,NA,NA,NA,NA,NA,NA,NA,NA,NA,NA,NA,NA,NA,NA,NA,NA,NA,NA,NA,NA
fcp-comprehension,32,463075,0.0-7.0-5.0,voc_e2,11948,"[{""event"":""blur"",""trial"":0,""time"":0},{""event"":""focus"",""trial"":1,""time"":30326},{""event"":""blur"",""trial"":1,""time"":31392},{""event"":""focus"",""trial"":1,""time"":40710},{""event"":""blur"",""trial"":1,""time"":40802},{""event"":""focus"",""trial"":1,""time"":126467},{""event"":""fullscreenenter"",""trial"":1,""time"":127975},{""event"":""fullscreenexit"",""trial"":6,""time"":150632},{""event"":""blur"",""trial"":6,""time"":171701},{""event"":""focus"",""trial"":6,""time"":172893},{""event"":""blur"",""trial"":6,""time"":173910},{""event"":""focus"",""trial"":6,""time"":175159},{""event"":""blur"",""trial"":8,""time"":193759},{""event"":""focus"",""trial"":8,""time"":196870},{""event"":""blur"",""trial"":16,""time"":269059},{""event"":""focus"",""trial"":16,""time"":270587},{""event"":""blur"",""trial"":22,""time"":342138},{""event"":""focus"",""trial"":22,""time"":345422},{""event"":""blur"",""trial"":25,""time"":381707},{""event"":""focus"",""trial"":25,""time"":386232}]",NA,22487.099999904633,NA,NA,NA,NA,NA,NA,NA,NA,NA,NA,NA,NA,NA,NA,NA,NA,NA,NA,"false,false,false,true",0,NA,NA,NA,NA,NA,NA,NA,NA
audio-instructions,33,473154,0.0-8.0,voc_e2,11948,"[{""event"":""blur"",""trial"":0,""time"":0},{""event"":""focus"",""trial"":1,""time"":30326},{""event"":""blur"",""trial"":1,""time"":31392},{""event"":""focus"",""trial"":1,""time"":40710},{""event"":""blur"",""trial"":1,""time"":40802},{""event"":""focus"",""trial"":1,""time"":126467},{""event"":""fullscreenenter"",""trial"":1,""time"":127975},{""event"":""fullscreenexit"",""trial"":6,""time"":150632},{""event"":""blur"",""trial"":6,""time"":171701},{""event"":""focus"",""trial"":6,""time"":172893},{""event"":""blur"",""trial"":6,""time"":173910},{""event"":""focus"",""trial"":6,""time"":175159},{""event"":""blur"",""trial"":8,""time"":193759},{""event"":""focus"",""trial"":8,""time"":196870},{""event"":""blur"",""trial"":16,""time"":269059},{""event"":""focus"",""trial"":16,""time"":270587},{""event"":""blur"",""trial"":22,""time"":342138},{""event"":""focus"",""trial"":22,""time"":345422},{""event"":""blur"",""trial"":25,""time"":381707},{""event"":""focus"",""trial"":25,""time"":386232}]",NA,850.7000000476837,static/audio/ready.wav,NA,0,NA,NA,NA,NA,NA,NA,NA,NA,NA,NA,NA,NA,NA,NA,NA,NA,NA,NA,NA,NA,NA,NA,NA,NA,NA
fcp-trial,34,477318,0.0-9.0-0.0,voc_e2,11948,"[{""event"":""blur"",""trial"":0,""time"":0},{""event"":""focus"",""trial"":1,""time"":30326},{""event"":""blur"",""trial"":1,""time"":31392},{""event"":""focus"",""trial"":1,""time"":40710},{""event"":""blur"",""trial"":1,""time"":40802},{""event"":""focus"",""trial"":1,""time"":126467},{""event"":""fullscreenenter"",""trial"":1,""time"":127975},{""event"":""fullscreenexit"",""trial"":6,""time"":150632},{""event"":""blur"",""trial"":6,""time"":171701},{""event"":""focus"",""trial"":6,""time"":172893},{""event"":""blur"",""trial"":6,""time"":173910},{""event"":""focus"",""trial"":6,""time"":175159},{""event"":""blur"",""trial"":8,""time"":193759},{""event"":""focus"",""trial"":8,""time"":196870},{""event"":""blur"",""trial"":16,""time"":269059},{""event"":""focus"",""trial"":16,""time"":270587},{""event"":""blur"",""trial"":22,""time"":342138},{""event"":""focus"",""trial"":22,""time"":345422},{""event"":""blur"",""trial"":25,""time"":381707},{""event"":""focus"",""trial"":25,""time"":386232}]",NA,NA,NA,NA,NA,1,#741CD8,#D8271C,0,10,0,38,1,1974.7999999523163,37,1,678.0999999046326,0,0,experiment,NA,NA,0,0.1,0.9,1,0,1,1,NA
fcp-trial,35,480709,0.0-10.0-0.0,voc_e2,11948,"[{""event"":""blur"",""trial"":0,""time"":0},{""event"":""focus"",""trial"":1,""time"":30326},{""event"":""blur"",""trial"":1,""time"":31392},{""event"":""focus"",""trial"":1,""time"":40710},{""event"":""blur"",""trial"":1,""time"":40802},{""event"":""focus"",""trial"":1,""time"":126467},{""event"":""fullscreenenter"",""trial"":1,""time"":127975},{""event"":""fullscreenexit"",""trial"":6,""time"":150632},{""event"":""blur"",""trial"":6,""time"":171701},{""event"":""focus"",""trial"":6,""time"":172893},{""event"":""blur"",""trial"":6,""time"":173910},{""event"":""focus"",""trial"":6,""time"":175159},{""event"":""blur"",""trial"":8,""time"":193759},{""event"":""focus"",""trial"":8,""time"":196870},{""event"":""blur"",""trial"":16,""time"":269059},{""event"":""focus"",""trial"":16,""time"":270587},{""event"":""blur"",""trial"":22,""time"":342138},{""event"":""focus"",""trial"":22,""time"":345422},{""event"":""blur"",""trial"":25,""time"":381707},{""event"":""focus"",""trial"":25,""time"":386232}]",NA,NA,NA,NA,NA,0,#1CD855,#FA92F8,10,0,1,38,1,1224.9000000953674,39,0,652.5999999046326,0,0,experiment,NA,NA,1,0.7,0.3,2,3,2,1,NA
fcp-trial,36,484041,0.0-11.0-0.0,voc_e2,11948,"[{""event"":""blur"",""trial"":0,""time"":0},{""event"":""focus"",""trial"":1,""time"":30326},{""event"":""blur"",""trial"":1,""time"":31392},{""event"":""focus"",""trial"":1,""time"":40710},{""event"":""blur"",""trial"":1,""time"":40802},{""event"":""focus"",""trial"":1,""time"":126467},{""event"":""fullscreenenter"",""trial"":1,""time"":127975},{""event"":""fullscreenexit"",""trial"":6,""time"":150632},{""event"":""blur"",""trial"":6,""time"":171701},{""event"":""focus"",""trial"":6,""time"":172893},{""event"":""blur"",""trial"":6,""time"":173910},{""event"":""focus"",""trial"":6,""time"":175159},{""event"":""blur"",""trial"":8,""time"":193759},{""event"":""focus"",""trial"":8,""time"":196870},{""event"":""blur"",""trial"":16,""time"":269059},{""event"":""focus"",""trial"":16,""time"":270587},{""event"":""blur"",""trial"":22,""time"":342138},{""event"":""focus"",""trial"":22,""time"":345422},{""event"":""blur"",""trial"":25,""time"":381707},{""event"":""focus"",""trial"":25,""time"":386232}]",NA,NA,NA,NA,NA,0,#D89F1C,#3386FF,0,0,1,38,1,1232.7999999523163,39,0,578.5,0,0,experiment,NA,NA,2,0.5,0.5,4,5,3,1,NA
fcp-trial,37,487478,0.0-12.0-0.0,voc_e2,11948,"[{""event"":""blur"",""trial"":0,""time"":0},{""event"":""focus"",""trial"":1,""time"":30326},{""event"":""blur"",""trial"":1,""time"":31392},{""event"":""focus"",""trial"":1,""time"":40710},{""event"":""blur"",""trial"":1,""time"":40802},{""event"":""focus"",""trial"":1,""time"":126467},{""event"":""fullscreenenter"",""trial"":1,""time"":127975},{""event"":""fullscreenexit"",""trial"":6,""time"":150632},{""event"":""blur"",""trial"":6,""time"":171701},{""event"":""focus"",""trial"":6,""time"":172893},{""event"":""blur"",""trial"":6,""time"":173910},{""event"":""focus"",""trial"":6,""time"":175159},{""event"":""blur"",""trial"":8,""time"":193759},{""event"":""focus"",""trial"":8,""time"":196870},{""event"":""blur"",""trial"":16,""time"":269059},{""event"":""focus"",""trial"":16,""time"":270587},{""event"":""blur"",""trial"":22,""time"":342138},{""event"":""focus"",""trial"":22,""time"":345422},{""event"":""blur"",""trial"":25,""time"":381707},{""event"":""focus"",""trial"":25,""time"":386232}]",NA,NA,NA,NA,NA,3,#D8271C,#741CD8,10,0,1,38,1,1076.2000000476837,39,0,845.7000000476837,0,0,experiment,NA,NA,0,0.9,0.1,0,1,4,1,NA
fcp-trial,38,490644,0.0-13.0-0.0,voc_e2,11948,"[{""event"":""blur"",""trial"":0,""time"":0},{""event"":""focus"",""trial"":1,""time"":30326},{""event"":""blur"",""trial"":1,""time"":31392},{""event"":""focus"",""trial"":1,""time"":40710},{""event"":""blur"",""trial"":1,""time"":40802},{""event"":""focus"",""trial"":1,""time"":126467},{""event"":""fullscreenenter"",""trial"":1,""time"":127975},{""event"":""fullscreenexit"",""trial"":6,""time"":150632},{""event"":""blur"",""trial"":6,""time"":171701},{""event"":""focus"",""trial"":6,""time"":172893},{""event"":""blur"",""trial"":6,""time"":173910},{""event"":""focus"",""trial"":6,""time"":175159},{""event"":""blur"",""trial"":8,""time"":193759},{""event"":""focus"",""trial"":8,""time"":196870},{""event"":""blur"",""trial"":16,""time"":269059},{""event"":""focus"",""trial"":16,""time"":270587},{""event"":""blur"",""trial"":22,""time"":342138},{""event"":""focus"",""trial"":22,""time"":345422},{""event"":""blur"",""trial"":25,""time"":381707},{""event"":""focus"",""trial"":25,""time"":386232}]",NA,NA,NA,NA,NA,2,#1CD855,#FA92F8,0,0,1,38,1,1048.9000000953674,37,1,601.8999998569489,0,1,experiment,NA,NA,1,0.7,0.3,2,3,5,1,NA
fcp-trial,39,493725,0.0-14.0-0.0,voc_e2,11948,"[{""event"":""blur"",""trial"":0,""time"":0},{""event"":""focus"",""trial"":1,""time"":30326},{""event"":""blur"",""trial"":1,""time"":31392},{""event"":""focus"",""trial"":1,""time"":40710},{""event"":""blur"",""trial"":1,""time"":40802},{""event"":""focus"",""trial"":1,""time"":126467},{""event"":""fullscreenenter"",""trial"":1,""time"":127975},{""event"":""fullscreenexit"",""trial"":6,""time"":150632},{""event"":""blur"",""trial"":6,""time"":171701},{""event"":""focus"",""trial"":6,""time"":172893},{""event"":""blur"",""trial"":6,""time"":173910},{""event"":""focus"",""trial"":6,""time"":175159},{""event"":""blur"",""trial"":8,""time"":193759},{""event"":""focus"",""trial"":8,""time"":196870},{""event"":""blur"",""trial"":16,""time"":269059},{""event"":""focus"",""trial"":16,""time"":270587},{""event"":""blur"",""trial"":22,""time"":342138},{""event"":""focus"",""trial"":22,""time"":345422},{""event"":""blur"",""trial"":25,""time"":381707},{""event"":""focus"",""trial"":25,""time"":386232}]",NA,NA,NA,NA,NA,4,#3386FF,#D89F1C,0,10,0,38,1,1042.0999999046326,39,0,519.5999999046326,10,1,experiment,NA,NA,2,0.5,0.5,5,4,6,1,NA
fcp-trial,40,497910,0.0-15.0-0.0,voc_e2,11948,"[{""event"":""blur"",""trial"":0,""time"":0},{""event"":""focus"",""trial"":1,""time"":30326},{""event"":""blur"",""trial"":1,""time"":31392},{""event"":""focus"",""trial"":1,""time"":40710},{""event"":""blur"",""trial"":1,""time"":40802},{""event"":""focus"",""trial"":1,""time"":126467},{""event"":""fullscreenenter"",""trial"":1,""time"":127975},{""event"":""fullscreenexit"",""trial"":6,""time"":150632},{""event"":""blur"",""trial"":6,""time"":171701},{""event"":""focus"",""trial"":6,""time"":172893},{""event"":""blur"",""trial"":6,""time"":173910},{""event"":""focus"",""trial"":6,""time"":175159},{""event"":""blur"",""trial"":8,""time"":193759},{""event"":""focus"",""trial"":8,""time"":196870},{""event"":""blur"",""trial"":16,""time"":269059},{""event"":""focus"",""trial"":16,""time"":270587},{""event"":""blur"",""trial"":22,""time"":342138},{""event"":""focus"",""trial"":22,""time"":345422},{""event"":""blur"",""trial"":25,""time"":381707},{""event"":""focus"",""trial"":25,""time"":386232}]",NA,NA,NA,NA,NA,4,#741CD8,#D8271C,10,10,0,38,1,1031.0999999046326,39,0,1635.9000000953674,10,1,experiment,NA,NA,0,0.1,0.9,1,0,7,1,NA
fcp-trial,41,501289,0.0-16.0-0.0,voc_e2,11948,"[{""event"":""blur"",""trial"":0,""time"":0},{""event"":""focus"",""trial"":1,""time"":30326},{""event"":""blur"",""trial"":1,""time"":31392},{""event"":""focus"",""trial"":1,""time"":40710},{""event"":""blur"",""trial"":1,""time"":40802},{""event"":""focus"",""trial"":1,""time"":126467},{""event"":""fullscreenenter"",""trial"":1,""time"":127975},{""event"":""fullscreenexit"",""trial"":6,""time"":150632},{""event"":""blur"",""trial"":6,""time"":171701},{""event"":""focus"",""trial"":6,""time"":172893},{""event"":""blur"",""trial"":6,""time"":173910},{""event"":""focus"",""trial"":6,""time"":175159},{""event"":""blur"",""trial"":8,""time"":193759},{""event"":""focus"",""trial"":8,""time"":196870},{""event"":""blur"",""trial"":16,""time"":269059},{""event"":""focus"",""trial"":16,""time"":270587},{""event"":""blur"",""trial"":22,""time"":342138},{""event"":""focus"",""trial"":22,""time"":345422},{""event"":""blur"",""trial"":25,""time"":381707},{""event"":""focus"",""trial"":25,""time"":386232}]",NA,NA,NA,NA,NA,5,#D89F1C,#3386FF,0,10,1,38,1,1304.2000000476837,37,1,558.7000000476837,0,1,experiment,NA,NA,2,0.5,0.5,4,5,8,1,NA
fcp-trial,42,505325,0.0-17.0-0.0,voc_e2,11948,"[{""event"":""blur"",""trial"":0,""time"":0},{""event"":""focus"",""trial"":1,""time"":30326},{""event"":""blur"",""trial"":1,""time"":31392},{""event"":""focus"",""trial"":1,""time"":40710},{""event"":""blur"",""trial"":1,""time"":40802},{""event"":""focus"",""trial"":1,""time"":126467},{""event"":""fullscreenenter"",""trial"":1,""time"":127975},{""event"":""fullscreenexit"",""trial"":6,""time"":150632},{""event"":""blur"",""trial"":6,""time"":171701},{""event"":""focus"",""trial"":6,""time"":172893},{""event"":""blur"",""trial"":6,""time"":173910},{""event"":""focus"",""trial"":6,""time"":175159},{""event"":""blur"",""trial"":8,""time"":193759},{""event"":""focus"",""trial"":8,""time"":196870},{""event"":""blur"",""trial"":16,""time"":269059},{""event"":""focus"",""trial"":16,""time"":270587},{""event"":""blur"",""trial"":22,""time"":342138},{""event"":""focus"",""trial"":22,""time"":345422},{""event"":""blur"",""trial"":25,""time"":381707},{""event"":""focus"",""trial"":25,""time"":386232}]",NA,NA,NA,NA,NA,6,#741CD8,#D8271C,0,10,0,38,1,1228.3999998569489,39,0,1294.2999999523165,10,1,experiment,NA,NA,0,0.1,0.9,1,0,9,1,NA
fcp-trial,43,508372,0.0-18.0-0.0,voc_e2,11948,"[{""event"":""blur"",""trial"":0,""time"":0},{""event"":""focus"",""trial"":1,""time"":30326},{""event"":""blur"",""trial"":1,""time"":31392},{""event"":""focus"",""trial"":1,""time"":40710},{""event"":""blur"",""trial"":1,""time"":40802},{""event"":""focus"",""trial"":1,""time"":126467},{""event"":""fullscreenenter"",""trial"":1,""time"":127975},{""event"":""fullscreenexit"",""trial"":6,""time"":150632},{""event"":""blur"",""trial"":6,""time"":171701},{""event"":""focus"",""trial"":6,""time"":172893},{""event"":""blur"",""trial"":6,""time"":173910},{""event"":""focus"",""trial"":6,""time"":175159},{""event"":""blur"",""trial"":8,""time"":193759},{""event"":""focus"",""trial"":8,""time"":196870},{""event"":""blur"",""trial"":16,""time"":269059},{""event"":""focus"",""trial"":16,""time"":270587},{""event"":""blur"",""trial"":22,""time"":342138},{""event"":""focus"",""trial"":22,""time"":345422},{""event"":""blur"",""trial"":25,""time"":381707},{""event"":""focus"",""trial"":25,""time"":386232}]",NA,NA,NA,NA,NA,4,#FA92F8,#1CD855,0,10,0,38,1,817.2000000476837,39,0,719.0999999046326,10,1,experiment,NA,NA,1,0.3,0.7,3,2,10,1,NA
fcp-trial,44,512052,0.0-19.0-0.0,voc_e2,11948,"[{""event"":""blur"",""trial"":0,""time"":0},{""event"":""focus"",""trial"":1,""time"":30326},{""event"":""blur"",""trial"":1,""time"":31392},{""event"":""focus"",""trial"":1,""time"":40710},{""event"":""blur"",""trial"":1,""time"":40802},{""event"":""focus"",""trial"":1,""time"":126467},{""event"":""fullscreenenter"",""trial"":1,""time"":127975},{""event"":""fullscreenexit"",""trial"":6,""time"":150632},{""event"":""blur"",""trial"":6,""time"":171701},{""event"":""focus"",""trial"":6,""time"":172893},{""event"":""blur"",""trial"":6,""time"":173910},{""event"":""focus"",""trial"":6,""time"":175159},{""event"":""blur"",""trial"":8,""time"":193759},{""event"":""focus"",""trial"":8,""time"":196870},{""event"":""blur"",""trial"":16,""time"":269059},{""event"":""focus"",""trial"":16,""time"":270587},{""event"":""blur"",""trial"":22,""time"":342138},{""event"":""focus"",""trial"":22,""time"":345422},{""event"":""blur"",""trial"":25,""time"":381707},{""event"":""focus"",""trial"":25,""time"":386232}]",NA,NA,NA,NA,NA,2,#741CD8,#D8271C,0,10,0,38,1,583.7999999523163,39,0,1583,10,1,experiment,NA,NA,0,0.1,0.9,1,0,11,1,NA
fcp-trial,45,515405,0.0-20.0-0.0,voc_e2,11948,"[{""event"":""blur"",""trial"":0,""time"":0},{""event"":""focus"",""trial"":1,""time"":30326},{""event"":""blur"",""trial"":1,""time"":31392},{""event"":""focus"",""trial"":1,""time"":40710},{""event"":""blur"",""trial"":1,""time"":40802},{""event"":""focus"",""trial"":1,""time"":126467},{""event"":""fullscreenenter"",""trial"":1,""time"":127975},{""event"":""fullscreenexit"",""trial"":6,""time"":150632},{""event"":""blur"",""trial"":6,""time"":171701},{""event"":""focus"",""trial"":6,""time"":172893},{""event"":""blur"",""trial"":6,""time"":173910},{""event"":""focus"",""trial"":6,""time"":175159},{""event"":""blur"",""trial"":8,""time"":193759},{""event"":""focus"",""trial"":8,""time"":196870},{""event"":""blur"",""trial"":16,""time"":269059},{""event"":""focus"",""trial"":16,""time"":270587},{""event"":""blur"",""trial"":22,""time"":342138},{""event"":""focus"",""trial"":22,""time"":345422},{""event"":""blur"",""trial"":25,""time"":381707},{""event"":""focus"",""trial"":25,""time"":386232}]",NA,NA,NA,NA,NA,2,#D89F1C,#3386FF,10,10,1,38,1,1237.7000000476837,39,0,606.5,10,0,experiment,NA,NA,2,0.5,0.5,4,5,12,1,NA
fcp-trial,46,518172,0.0-21.0-0.0,voc_e2,11948,"[{""event"":""blur"",""trial"":0,""time"":0},{""event"":""focus"",""trial"":1,""time"":30326},{""event"":""blur"",""trial"":1,""time"":31392},{""event"":""focus"",""trial"":1,""time"":40710},{""event"":""blur"",""trial"":1,""time"":40802},{""event"":""focus"",""trial"":1,""time"":126467},{""event"":""fullscreenenter"",""trial"":1,""time"":127975},{""event"":""fullscreenexit"",""trial"":6,""time"":150632},{""event"":""blur"",""trial"":6,""time"":171701},{""event"":""focus"",""trial"":6,""time"":172893},{""event"":""blur"",""trial"":6,""time"":173910},{""event"":""focus"",""trial"":6,""time"":175159},{""event"":""blur"",""trial"":8,""time"":193759},{""event"":""focus"",""trial"":8,""time"":196870},{""event"":""blur"",""trial"":16,""time"":269059},{""event"":""focus"",""trial"":16,""time"":270587},{""event"":""blur"",""trial"":22,""time"":342138},{""event"":""focus"",""trial"":22,""time"":345422},{""event"":""blur"",""trial"":25,""time"":381707},{""event"":""focus"",""trial"":25,""time"":386232}]",NA,NA,NA,NA,NA,5,#FA92F8,#1CD855,0,10,0,38,1,653.2000000476837,39,0,599,10,1,experiment,NA,NA,1,0.3,0.7,3,2,13,1,NA
fcp-trial,47,521132,0.0-22.0-0.0,voc_e2,11948,"[{""event"":""blur"",""trial"":0,""time"":0},{""event"":""focus"",""trial"":1,""time"":30326},{""event"":""blur"",""trial"":1,""time"":31392},{""event"":""focus"",""trial"":1,""time"":40710},{""event"":""blur"",""trial"":1,""time"":40802},{""event"":""focus"",""trial"":1,""time"":126467},{""event"":""fullscreenenter"",""trial"":1,""time"":127975},{""event"":""fullscreenexit"",""trial"":6,""time"":150632},{""event"":""blur"",""trial"":6,""time"":171701},{""event"":""focus"",""trial"":6,""time"":172893},{""event"":""blur"",""trial"":6,""time"":173910},{""event"":""focus"",""trial"":6,""time"":175159},{""event"":""blur"",""trial"":8,""time"":193759},{""event"":""focus"",""trial"":8,""time"":196870},{""event"":""blur"",""trial"":16,""time"":269059},{""event"":""focus"",""trial"":16,""time"":270587},{""event"":""blur"",""trial"":22,""time"":342138},{""event"":""focus"",""trial"":22,""time"":345422},{""event"":""blur"",""trial"":25,""time"":381707},{""event"":""focus"",""trial"":25,""time"":386232}]",NA,NA,NA,NA,NA,1,#D89F1C,#3386FF,0,0,1,38,1,784.4000000953674,37,1,662.8999998569489,0,1,experiment,NA,NA,2,0.5,0.5,4,5,14,1,NA
fcp-trial,48,524861,0.0-23.0-0.0,voc_e2,11948,"[{""event"":""blur"",""trial"":0,""time"":0},{""event"":""focus"",""trial"":1,""time"":30326},{""event"":""blur"",""trial"":1,""time"":31392},{""event"":""focus"",""trial"":1,""time"":40710},{""event"":""blur"",""trial"":1,""time"":40802},{""event"":""focus"",""trial"":1,""time"":126467},{""event"":""fullscreenenter"",""trial"":1,""time"":127975},{""event"":""fullscreenexit"",""trial"":6,""time"":150632},{""event"":""blur"",""trial"":6,""time"":171701},{""event"":""focus"",""trial"":6,""time"":172893},{""event"":""blur"",""trial"":6,""time"":173910},{""event"":""focus"",""trial"":6,""time"":175159},{""event"":""blur"",""trial"":8,""time"":193759},{""event"":""focus"",""trial"":8,""time"":196870},{""event"":""blur"",""trial"":16,""time"":269059},{""event"":""focus"",""trial"":16,""time"":270587},{""event"":""blur"",""trial"":22,""time"":342138},{""event"":""focus"",""trial"":22,""time"":345422},{""event"":""blur"",""trial"":25,""time"":381707},{""event"":""focus"",""trial"":25,""time"":386232}]",NA,NA,NA,NA,NA,5,#741CD8,#D8271C,0,10,0,38,1,788.0999999046326,39,0,1430.7999999523165,10,1,experiment,NA,NA,0,0.1,0.9,1,0,15,1,NA
fcp-trial,49,527900,0.0-24.0-0.0,voc_e2,11948,"[{""event"":""blur"",""trial"":0,""time"":0},{""event"":""focus"",""trial"":1,""time"":30326},{""event"":""blur"",""trial"":1,""time"":31392},{""event"":""focus"",""trial"":1,""time"":40710},{""event"":""blur"",""trial"":1,""time"":40802},{""event"":""focus"",""trial"":1,""time"":126467},{""event"":""fullscreenenter"",""trial"":1,""time"":127975},{""event"":""fullscreenexit"",""trial"":6,""time"":150632},{""event"":""blur"",""trial"":6,""time"":171701},{""event"":""focus"",""trial"":6,""time"":172893},{""event"":""blur"",""trial"":6,""time"":173910},{""event"":""focus"",""trial"":6,""time"":175159},{""event"":""blur"",""trial"":8,""time"":193759},{""event"":""focus"",""trial"":8,""time"":196870},{""event"":""blur"",""trial"":16,""time"":269059},{""event"":""focus"",""trial"":16,""time"":270587},{""event"":""blur"",""trial"":22,""time"":342138},{""event"":""focus"",""trial"":22,""time"":345422},{""event"":""blur"",""trial"":25,""time"":381707},{""event"":""focus"",""trial"":25,""time"":386232}]",NA,NA,NA,NA,NA,3,#FA92F8,#1CD855,0,10,0,38,1,730.7000000476837,39,0,798.5999999046326,10,1,experiment,NA,NA,1,0.3,0.7,3,2,16,1,NA
fcp-trial,50,530989,0.0-25.0-0.0,voc_e2,11948,"[{""event"":""blur"",""trial"":0,""time"":0},{""event"":""focus"",""trial"":1,""time"":30326},{""event"":""blur"",""trial"":1,""time"":31392},{""event"":""focus"",""trial"":1,""time"":40710},{""event"":""blur"",""trial"":1,""time"":40802},{""event"":""focus"",""trial"":1,""time"":126467},{""event"":""fullscreenenter"",""trial"":1,""time"":127975},{""event"":""fullscreenexit"",""trial"":6,""time"":150632},{""event"":""blur"",""trial"":6,""time"":171701},{""event"":""focus"",""trial"":6,""time"":172893},{""event"":""blur"",""trial"":6,""time"":173910},{""event"":""focus"",""trial"":6,""time"":175159},{""event"":""blur"",""trial"":8,""time"":193759},{""event"":""focus"",""trial"":8,""time"":196870},{""event"":""blur"",""trial"":16,""time"":269059},{""event"":""focus"",""trial"":16,""time"":270587},{""event"":""blur"",""trial"":22,""time"":342138},{""event"":""focus"",""trial"":22,""time"":345422},{""event"":""blur"",""trial"":25,""time"":381707},{""event"":""focus"",""trial"":25,""time"":386232}]",NA,NA,NA,NA,NA,6,#1CD855,#FA92F8,10,10,1,38,1,609.6999998092651,37,1,967.5,10,1,experiment,NA,NA,1,0.7,0.3,2,3,17,1,NA
fcp-trial,51,533733,0.0-26.0-0.0,voc_e2,11948,"[{""event"":""blur"",""trial"":0,""time"":0},{""event"":""focus"",""trial"":1,""time"":30326},{""event"":""blur"",""trial"":1,""time"":31392},{""event"":""focus"",""trial"":1,""time"":40710},{""event"":""blur"",""trial"":1,""time"":40802},{""event"":""focus"",""trial"":1,""time"":126467},{""event"":""fullscreenenter"",""trial"":1,""time"":127975},{""event"":""fullscreenexit"",""trial"":6,""time"":150632},{""event"":""blur"",""trial"":6,""time"":171701},{""event"":""focus"",""trial"":6,""time"":172893},{""event"":""blur"",""trial"":6,""time"":173910},{""event"":""focus"",""trial"":6,""time"":175159},{""event"":""blur"",""trial"":8,""time"":193759},{""event"":""focus"",""trial"":8,""time"":196870},{""event"":""blur"",""trial"":16,""time"":269059},{""event"":""focus"",""trial"":16,""time"":270587},{""event"":""blur"",""trial"":22,""time"":342138},{""event"":""focus"",""trial"":22,""time"":345422},{""event"":""blur"",""trial"":25,""time"":381707},{""event"":""focus"",""trial"":25,""time"":386232}]",NA,NA,NA,NA,NA,1,#1CD855,#FA92F8,10,10,1,38,1,647.2999999523163,37,1,582.6999998092651,10,1,experiment,NA,NA,1,0.7,0.3,2,3,18,1,NA
fcp-trial,52,537412,0.0-27.0-0.0,voc_e2,11948,"[{""event"":""blur"",""trial"":0,""time"":0},{""event"":""focus"",""trial"":1,""time"":30326},{""event"":""blur"",""trial"":1,""time"":31392},{""event"":""focus"",""trial"":1,""time"":40710},{""event"":""blur"",""trial"":1,""time"":40802},{""event"":""focus"",""trial"":1,""time"":126467},{""event"":""fullscreenenter"",""trial"":1,""time"":127975},{""event"":""fullscreenexit"",""trial"":6,""time"":150632},{""event"":""blur"",""trial"":6,""time"":171701},{""event"":""focus"",""trial"":6,""time"":172893},{""event"":""blur"",""trial"":6,""time"":173910},{""event"":""focus"",""trial"":6,""time"":175159},{""event"":""blur"",""trial"":8,""time"":193759},{""event"":""focus"",""trial"":8,""time"":196870},{""event"":""blur"",""trial"":16,""time"":269059},{""event"":""focus"",""trial"":16,""time"":270587},{""event"":""blur"",""trial"":22,""time"":342138},{""event"":""focus"",""trial"":22,""time"":345422},{""event"":""blur"",""trial"":25,""time"":381707},{""event"":""focus"",""trial"":25,""time"":386232}]",NA,NA,NA,NA,NA,6,#D89F1C,#3386FF,0,0,1,38,1,1524.9000000953674,39,0,646.7999999523163,0,0,experiment,NA,NA,2,0.5,0.5,4,5,19,1,NA
fcp-trial,53,540877,0.0-28.0-0.0,voc_e2,11948,"[{""event"":""blur"",""trial"":0,""time"":0},{""event"":""focus"",""trial"":1,""time"":30326},{""event"":""blur"",""trial"":1,""time"":31392},{""event"":""focus"",""trial"":1,""time"":40710},{""event"":""blur"",""trial"":1,""time"":40802},{""event"":""focus"",""trial"":1,""time"":126467},{""event"":""fullscreenenter"",""trial"":1,""time"":127975},{""event"":""fullscreenexit"",""trial"":6,""time"":150632},{""event"":""blur"",""trial"":6,""time"":171701},{""event"":""focus"",""trial"":6,""time"":172893},{""event"":""blur"",""trial"":6,""time"":173910},{""event"":""focus"",""trial"":6,""time"":175159},{""event"":""blur"",""trial"":8,""time"":193759},{""event"":""focus"",""trial"":8,""time"":196870},{""event"":""blur"",""trial"":16,""time"":269059},{""event"":""focus"",""trial"":16,""time"":270587},{""event"":""blur"",""trial"":22,""time"":342138},{""event"":""focus"",""trial"":22,""time"":345422},{""event"":""blur"",""trial"":25,""time"":381707},{""event"":""focus"",""trial"":25,""time"":386232}]",NA,NA,NA,NA,NA,0,#741CD8,#D8271C,0,10,0,38,1,728.1000001430511,39,0,1229.1000001430511,10,1,experiment,NA,NA,0,0.1,0.9,1,0,20,1,NA
fcp-trial,54,547948,0.0-29.0-0.0,voc_e2,11948,"[{""event"":""blur"",""trial"":0,""time"":0},{""event"":""focus"",""trial"":1,""time"":30326},{""event"":""blur"",""trial"":1,""time"":31392},{""event"":""focus"",""trial"":1,""time"":40710},{""event"":""blur"",""trial"":1,""time"":40802},{""event"":""focus"",""trial"":1,""time"":126467},{""event"":""fullscreenenter"",""trial"":1,""time"":127975},{""event"":""fullscreenexit"",""trial"":6,""time"":150632},{""event"":""blur"",""trial"":6,""time"":171701},{""event"":""focus"",""trial"":6,""time"":172893},{""event"":""blur"",""trial"":6,""time"":173910},{""event"":""focus"",""trial"":6,""time"":175159},{""event"":""blur"",""trial"":8,""time"":193759},{""event"":""focus"",""trial"":8,""time"":196870},{""event"":""blur"",""trial"":16,""time"":269059},{""event"":""focus"",""trial"":16,""time"":270587},{""event"":""blur"",""trial"":22,""time"":342138},{""event"":""focus"",""trial"":22,""time"":345422},{""event"":""blur"",""trial"":25,""time"":381707},{""event"":""focus"",""trial"":25,""time"":386232}]",NA,NA,NA,NA,NA,3,#3386FF,#D89F1C,0,0,0,40,0,2099.0999999046326,37,1,3462.400000095367,0,0,experiment,NA,NA,2,0.5,0.5,5,4,21,1,NA
fcp-trial,55,551277,0.0-30.0-0.0,voc_e2,11948,"[{""event"":""blur"",""trial"":0,""time"":0},{""event"":""focus"",""trial"":1,""time"":30326},{""event"":""blur"",""trial"":1,""time"":31392},{""event"":""focus"",""trial"":1,""time"":40710},{""event"":""blur"",""trial"":1,""time"":40802},{""event"":""focus"",""trial"":1,""time"":126467},{""event"":""fullscreenenter"",""trial"":1,""time"":127975},{""event"":""fullscreenexit"",""trial"":6,""time"":150632},{""event"":""blur"",""trial"":6,""time"":171701},{""event"":""focus"",""trial"":6,""time"":172893},{""event"":""blur"",""trial"":6,""time"":173910},{""event"":""focus"",""trial"":6,""time"":175159},{""event"":""blur"",""trial"":8,""time"":193759},{""event"":""focus"",""trial"":8,""time"":196870},{""event"":""blur"",""trial"":16,""time"":269059},{""event"":""focus"",""trial"":16,""time"":270587},{""event"":""blur"",""trial"":22,""time"":342138},{""event"":""focus"",""trial"":22,""time"":345422},{""event"":""blur"",""trial"":25,""time"":381707},{""event"":""focus"",""trial"":25,""time"":386232}]",NA,NA,NA,NA,NA,4,#3386FF,#D89F1C,0,10,0,38,1,1239.7999999523163,39,0,582.4000000953674,10,1,experiment,NA,NA,2,0.5,0.5,5,4,22,1,NA
fcp-trial,56,554941,0.0-31.0-0.0,voc_e2,11948,"[{""event"":""blur"",""trial"":0,""time"":0},{""event"":""focus"",""trial"":1,""time"":30326},{""event"":""blur"",""trial"":1,""time"":31392},{""event"":""focus"",""trial"":1,""time"":40710},{""event"":""blur"",""trial"":1,""time"":40802},{""event"":""focus"",""trial"":1,""time"":126467},{""event"":""fullscreenenter"",""trial"":1,""time"":127975},{""event"":""fullscreenexit"",""trial"":6,""time"":150632},{""event"":""blur"",""trial"":6,""time"":171701},{""event"":""focus"",""trial"":6,""time"":172893},{""event"":""blur"",""trial"":6,""time"":173910},{""event"":""focus"",""trial"":6,""time"":175159},{""event"":""blur"",""trial"":8,""time"":193759},{""event"":""focus"",""trial"":8,""time"":196870},{""event"":""blur"",""trial"":16,""time"":269059},{""event"":""focus"",""trial"":16,""time"":270587},{""event"":""blur"",""trial"":22,""time"":342138},{""event"":""focus"",""trial"":22,""time"":345422},{""event"":""blur"",""trial"":25,""time"":381707},{""event"":""focus"",""trial"":25,""time"":386232}]",NA,NA,NA,NA,NA,0,#1CD855,#FA92F8,0,0,1,38,1,850.5999999046326,37,1,1302.3999998569489,0,1,experiment,NA,NA,1,0.7,0.3,2,3,23,1,NA
fcp-trial,57,558004,0.0-32.0-0.0,voc_e2,11948,"[{""event"":""blur"",""trial"":0,""time"":0},{""event"":""focus"",""trial"":1,""time"":30326},{""event"":""blur"",""trial"":1,""time"":31392},{""event"":""focus"",""trial"":1,""time"":40710},{""event"":""blur"",""trial"":1,""time"":40802},{""event"":""focus"",""trial"":1,""time"":126467},{""event"":""fullscreenenter"",""trial"":1,""time"":127975},{""event"":""fullscreenexit"",""trial"":6,""time"":150632},{""event"":""blur"",""trial"":6,""time"":171701},{""event"":""focus"",""trial"":6,""time"":172893},{""event"":""blur"",""trial"":6,""time"":173910},{""event"":""focus"",""trial"":6,""time"":175159},{""event"":""blur"",""trial"":8,""time"":193759},{""event"":""focus"",""trial"":8,""time"":196870},{""event"":""blur"",""trial"":16,""time"":269059},{""event"":""focus"",""trial"":16,""time"":270587},{""event"":""blur"",""trial"":22,""time"":342138},{""event"":""focus"",""trial"":22,""time"":345422},{""event"":""blur"",""trial"":25,""time"":381707},{""event"":""focus"",""trial"":25,""time"":386232}]",NA,NA,NA,NA,NA,2,#1CD855,#FA92F8,10,0,1,38,1,920.7000000476837,37,1,631.2000000476837,10,1,experiment,NA,NA,1,0.7,0.3,2,3,24,1,NA
fcp-trial,58,562101,0.0-33.0-0.0,voc_e2,11948,"[{""event"":""blur"",""trial"":0,""time"":0},{""event"":""focus"",""trial"":1,""time"":30326},{""event"":""blur"",""trial"":1,""time"":31392},{""event"":""focus"",""trial"":1,""time"":40710},{""event"":""blur"",""trial"":1,""time"":40802},{""event"":""focus"",""trial"":1,""time"":126467},{""event"":""fullscreenenter"",""trial"":1,""time"":127975},{""event"":""fullscreenexit"",""trial"":6,""time"":150632},{""event"":""blur"",""trial"":6,""time"":171701},{""event"":""focus"",""trial"":6,""time"":172893},{""event"":""blur"",""trial"":6,""time"":173910},{""event"":""focus"",""trial"":6,""time"":175159},{""event"":""blur"",""trial"":8,""time"":193759},{""event"":""focus"",""trial"":8,""time"":196870},{""event"":""blur"",""trial"":16,""time"":269059},{""event"":""focus"",""trial"":16,""time"":270587},{""event"":""blur"",""trial"":22,""time"":342138},{""event"":""focus"",""trial"":22,""time"":345422},{""event"":""blur"",""trial"":25,""time"":381707},{""event"":""focus"",""trial"":25,""time"":386232}]",NA,NA,NA,NA,NA,5,#741CD8,#D8271C,10,10,0,38,1,1152.6000001430511,39,0,1431.2000000476835,10,1,experiment,NA,NA,0,0.1,0.9,1,0,25,1,NA
fcp-trial,59,566452,0.0-34.0-0.0,voc_e2,11948,"[{""event"":""blur"",""trial"":0,""time"":0},{""event"":""focus"",""trial"":1,""time"":30326},{""event"":""blur"",""trial"":1,""time"":31392},{""event"":""focus"",""trial"":1,""time"":40710},{""event"":""blur"",""trial"":1,""time"":40802},{""event"":""focus"",""trial"":1,""time"":126467},{""event"":""fullscreenenter"",""trial"":1,""time"":127975},{""event"":""fullscreenexit"",""trial"":6,""time"":150632},{""event"":""blur"",""trial"":6,""time"":171701},{""event"":""focus"",""trial"":6,""time"":172893},{""event"":""blur"",""trial"":6,""time"":173910},{""event"":""focus"",""trial"":6,""time"":175159},{""event"":""blur"",""trial"":8,""time"":193759},{""event"":""focus"",""trial"":8,""time"":196870},{""event"":""blur"",""trial"":16,""time"":269059},{""event"":""focus"",""trial"":16,""time"":270587},{""event"":""blur"",""trial"":22,""time"":342138},{""event"":""focus"",""trial"":22,""time"":345422},{""event"":""blur"",""trial"":25,""time"":381707},{""event"":""focus"",""trial"":25,""time"":386232}]",NA,NA,NA,NA,NA,1,#D89F1C,#3386FF,0,10,1,38,1,888.5999999046326,37,1,1951.5,0,1,experiment,NA,NA,2,0.5,0.5,4,5,26,1,NA
fcp-trial,60,570141,0.0-35.0-0.0,voc_e2,11948,"[{""event"":""blur"",""trial"":0,""time"":0},{""event"":""focus"",""trial"":1,""time"":30326},{""event"":""blur"",""trial"":1,""time"":31392},{""event"":""focus"",""trial"":1,""time"":40710},{""event"":""blur"",""trial"":1,""time"":40802},{""event"":""focus"",""trial"":1,""time"":126467},{""event"":""fullscreenenter"",""trial"":1,""time"":127975},{""event"":""fullscreenexit"",""trial"":6,""time"":150632},{""event"":""blur"",""trial"":6,""time"":171701},{""event"":""focus"",""trial"":6,""time"":172893},{""event"":""blur"",""trial"":6,""time"":173910},{""event"":""focus"",""trial"":6,""time"":175159},{""event"":""blur"",""trial"":8,""time"":193759},{""event"":""focus"",""trial"":8,""time"":196870},{""event"":""blur"",""trial"":16,""time"":269059},{""event"":""focus"",""trial"":16,""time"":270587},{""event"":""blur"",""trial"":22,""time"":342138},{""event"":""focus"",""trial"":22,""time"":345422},{""event"":""blur"",""trial"":25,""time"":381707},{""event"":""focus"",""trial"":25,""time"":386232}]",NA,NA,NA,NA,NA,5,#D89F1C,#3386FF,10,10,1,38,1,984.9000000953674,39,0,1182.7999999523165,10,0,experiment,NA,NA,2,0.5,0.5,4,5,27,1,NA
fcp-trial,61,573165,0.0-36.0-0.0,voc_e2,11948,"[{""event"":""blur"",""trial"":0,""time"":0},{""event"":""focus"",""trial"":1,""time"":30326},{""event"":""blur"",""trial"":1,""time"":31392},{""event"":""focus"",""trial"":1,""time"":40710},{""event"":""blur"",""trial"":1,""time"":40802},{""event"":""focus"",""trial"":1,""time"":126467},{""event"":""fullscreenenter"",""trial"":1,""time"":127975},{""event"":""fullscreenexit"",""trial"":6,""time"":150632},{""event"":""blur"",""trial"":6,""time"":171701},{""event"":""focus"",""trial"":6,""time"":172893},{""event"":""blur"",""trial"":6,""time"":173910},{""event"":""focus"",""trial"":6,""time"":175159},{""event"":""blur"",""trial"":8,""time"":193759},{""event"":""focus"",""trial"":8,""time"":196870},{""event"":""blur"",""trial"":16,""time"":269059},{""event"":""focus"",""trial"":16,""time"":270587},{""event"":""blur"",""trial"":22,""time"":342138},{""event"":""focus"",""trial"":22,""time"":345422},{""event"":""blur"",""trial"":25,""time"":381707},{""event"":""focus"",""trial"":25,""time"":386232}]",NA,NA,NA,NA,NA,3,#D8271C,#741CD8,10,0,1,38,1,705.7999999523163,37,1,806.7999999523163,10,1,experiment,NA,NA,0,0.9,0.1,0,1,28,1,NA
fcp-trial,62,577165,0.0-37.0-0.0,voc_e2,11948,"[{""event"":""blur"",""trial"":0,""time"":0},{""event"":""focus"",""trial"":1,""time"":30326},{""event"":""blur"",""trial"":1,""time"":31392},{""event"":""focus"",""trial"":1,""time"":40710},{""event"":""blur"",""trial"":1,""time"":40802},{""event"":""focus"",""trial"":1,""time"":126467},{""event"":""fullscreenenter"",""trial"":1,""time"":127975},{""event"":""fullscreenexit"",""trial"":6,""time"":150632},{""event"":""blur"",""trial"":6,""time"":171701},{""event"":""focus"",""trial"":6,""time"":172893},{""event"":""blur"",""trial"":6,""time"":173910},{""event"":""focus"",""trial"":6,""time"":175159},{""event"":""blur"",""trial"":8,""time"":193759},{""event"":""focus"",""trial"":8,""time"":196870},{""event"":""blur"",""trial"":16,""time"":269059},{""event"":""focus"",""trial"":16,""time"":270587},{""event"":""blur"",""trial"":22,""time"":342138},{""event"":""focus"",""trial"":22,""time"":345422},{""event"":""blur"",""trial"":25,""time"":381707},{""event"":""focus"",""trial"":25,""time"":386232}]",NA,NA,NA,NA,NA,4,#1CD855,#FA92F8,0,10,1,38,1,1204,37,1,1278.6000001430511,0,1,experiment,NA,NA,1,0.7,0.3,2,3,29,1,NA
fcp-trial,63,579972,0.0-38.0-0.0,voc_e2,11948,"[{""event"":""blur"",""trial"":0,""time"":0},{""event"":""focus"",""trial"":1,""time"":30326},{""event"":""blur"",""trial"":1,""time"":31392},{""event"":""focus"",""trial"":1,""time"":40710},{""event"":""blur"",""trial"":1,""time"":40802},{""event"":""focus"",""trial"":1,""time"":126467},{""event"":""fullscreenenter"",""trial"":1,""time"":127975},{""event"":""fullscreenexit"",""trial"":6,""time"":150632},{""event"":""blur"",""trial"":6,""time"":171701},{""event"":""focus"",""trial"":6,""time"":172893},{""event"":""blur"",""trial"":6,""time"":173910},{""event"":""focus"",""trial"":6,""time"":175159},{""event"":""blur"",""trial"":8,""time"":193759},{""event"":""focus"",""trial"":8,""time"":196870},{""event"":""blur"",""trial"":16,""time"":269059},{""event"":""focus"",""trial"":16,""time"":270587},{""event"":""blur"",""trial"":22,""time"":342138},{""event"":""focus"",""trial"":22,""time"":345422},{""event"":""blur"",""trial"":25,""time"":381707},{""event"":""focus"",""trial"":25,""time"":386232}]",NA,NA,NA,NA,NA,5,#1CD855,#FA92F8,10,0,1,38,1,898.6000001430511,37,1,399.5,10,1,experiment,NA,NA,1,0.7,0.3,2,3,30,1,NA
fcp-trial,64,584652,0.0-39.0-0.0,voc_e2,11948,"[{""event"":""blur"",""trial"":0,""time"":0},{""event"":""focus"",""trial"":1,""time"":30326},{""event"":""blur"",""trial"":1,""time"":31392},{""event"":""focus"",""trial"":1,""time"":40710},{""event"":""blur"",""trial"":1,""time"":40802},{""event"":""focus"",""trial"":1,""time"":126467},{""event"":""fullscreenenter"",""trial"":1,""time"":127975},{""event"":""fullscreenexit"",""trial"":6,""time"":150632},{""event"":""blur"",""trial"":6,""time"":171701},{""event"":""focus"",""trial"":6,""time"":172893},{""event"":""blur"",""trial"":6,""time"":173910},{""event"":""focus"",""trial"":6,""time"":175159},{""event"":""blur"",""trial"":8,""time"":193759},{""event"":""focus"",""trial"":8,""time"":196870},{""event"":""blur"",""trial"":16,""time"":269059},{""event"":""focus"",""trial"":16,""time"":270587},{""event"":""blur"",""trial"":22,""time"":342138},{""event"":""focus"",""trial"":22,""time"":345422},{""event"":""blur"",""trial"":25,""time"":381707},{""event"":""focus"",""trial"":25,""time"":386232}]",NA,NA,NA,NA,NA,2,#741CD8,#D8271C,0,0,0,38,1,863.2999999523163,37,1,2302.7999999523163,0,0,experiment,NA,NA,0,0.1,0.9,1,0,31,1,NA
fcp-trial,65,587647,0.0-40.0-0.0,voc_e2,11948,"[{""event"":""blur"",""trial"":0,""time"":0},{""event"":""focus"",""trial"":1,""time"":30326},{""event"":""blur"",""trial"":1,""time"":31392},{""event"":""focus"",""trial"":1,""time"":40710},{""event"":""blur"",""trial"":1,""time"":40802},{""event"":""focus"",""trial"":1,""time"":126467},{""event"":""fullscreenenter"",""trial"":1,""time"":127975},{""event"":""fullscreenexit"",""trial"":6,""time"":150632},{""event"":""blur"",""trial"":6,""time"":171701},{""event"":""focus"",""trial"":6,""time"":172893},{""event"":""blur"",""trial"":6,""time"":173910},{""event"":""focus"",""trial"":6,""time"":175159},{""event"":""blur"",""trial"":8,""time"":193759},{""event"":""focus"",""trial"":8,""time"":196870},{""event"":""blur"",""trial"":16,""time"":269059},{""event"":""focus"",""trial"":16,""time"":270587},{""event"":""blur"",""trial"":22,""time"":342138},{""event"":""focus"",""trial"":22,""time"":345422},{""event"":""blur"",""trial"":25,""time"":381707},{""event"":""focus"",""trial"":25,""time"":386232}]",NA,NA,NA,NA,NA,6,#3386FF,#D89F1C,10,0,0,38,1,624.1999998092651,39,0,857.5,0,1,experiment,NA,NA,2,0.5,0.5,5,4,32,1,NA
fcp-trial,66,592852,0.0-41.0-0.0,voc_e2,11948,"[{""event"":""blur"",""trial"":0,""time"":0},{""event"":""focus"",""trial"":1,""time"":30326},{""event"":""blur"",""trial"":1,""time"":31392},{""event"":""focus"",""trial"":1,""time"":40710},{""event"":""blur"",""trial"":1,""time"":40802},{""event"":""focus"",""trial"":1,""time"":126467},{""event"":""fullscreenenter"",""trial"":1,""time"":127975},{""event"":""fullscreenexit"",""trial"":6,""time"":150632},{""event"":""blur"",""trial"":6,""time"":171701},{""event"":""focus"",""trial"":6,""time"":172893},{""event"":""blur"",""trial"":6,""time"":173910},{""event"":""focus"",""trial"":6,""time"":175159},{""event"":""blur"",""trial"":8,""time"":193759},{""event"":""focus"",""trial"":8,""time"":196870},{""event"":""blur"",""trial"":16,""time"":269059},{""event"":""focus"",""trial"":16,""time"":270587},{""event"":""blur"",""trial"":22,""time"":342138},{""event"":""focus"",""trial"":22,""time"":345422},{""event"":""blur"",""trial"":25,""time"":381707},{""event"":""focus"",""trial"":25,""time"":386232}]",NA,NA,NA,NA,NA,1,#D8271C,#741CD8,10,0,1,38,1,432.5,39,0,3263.7999999523163,0,0,experiment,NA,NA,0,0.9,0.1,0,1,33,1,NA
fcp-trial,67,600988,0.0-42.0-0.0,voc_e2,11948,"[{""event"":""blur"",""trial"":0,""time"":0},{""event"":""focus"",""trial"":1,""time"":30326},{""event"":""blur"",""trial"":1,""time"":31392},{""event"":""focus"",""trial"":1,""time"":40710},{""event"":""blur"",""trial"":1,""time"":40802},{""event"":""focus"",""trial"":1,""time"":126467},{""event"":""fullscreenenter"",""trial"":1,""time"":127975},{""event"":""fullscreenexit"",""trial"":6,""time"":150632},{""event"":""blur"",""trial"":6,""time"":171701},{""event"":""focus"",""trial"":6,""time"":172893},{""event"":""blur"",""trial"":6,""time"":173910},{""event"":""focus"",""trial"":6,""time"":175159},{""event"":""blur"",""trial"":8,""time"":193759},{""event"":""focus"",""trial"":8,""time"":196870},{""event"":""blur"",""trial"":16,""time"":269059},{""event"":""focus"",""trial"":16,""time"":270587},{""event"":""blur"",""trial"":22,""time"":342138},{""event"":""focus"",""trial"":22,""time"":345422},{""event"":""blur"",""trial"":25,""time"":381707},{""event"":""focus"",""trial"":25,""time"":386232}]",NA,NA,NA,NA,NA,0,#D89F1C,#3386FF,0,0,1,38,1,4569.400000095367,37,1,2055.099999904633,0,1,experiment,NA,NA,2,0.5,0.5,4,5,34,1,NA
fcp-trial,68,606221,0.0-43.0-0.0,voc_e2,11948,"[{""event"":""blur"",""trial"":0,""time"":0},{""event"":""focus"",""trial"":1,""time"":30326},{""event"":""blur"",""trial"":1,""time"":31392},{""event"":""focus"",""trial"":1,""time"":40710},{""event"":""blur"",""trial"":1,""time"":40802},{""event"":""focus"",""trial"":1,""time"":126467},{""event"":""fullscreenenter"",""trial"":1,""time"":127975},{""event"":""fullscreenexit"",""trial"":6,""time"":150632},{""event"":""blur"",""trial"":6,""time"":171701},{""event"":""focus"",""trial"":6,""time"":172893},{""event"":""blur"",""trial"":6,""time"":173910},{""event"":""focus"",""trial"":6,""time"":175159},{""event"":""blur"",""trial"":8,""time"":193759},{""event"":""focus"",""trial"":8,""time"":196870},{""event"":""blur"",""trial"":16,""time"":269059},{""event"":""focus"",""trial"":16,""time"":270587},{""event"":""blur"",""trial"":22,""time"":342138},{""event"":""focus"",""trial"":22,""time"":345422},{""event"":""blur"",""trial"":25,""time"":381707},{""event"":""focus"",""trial"":25,""time"":386232}]",NA,NA,NA,NA,NA,1,#FA92F8,#1CD855,0,10,0,38,1,2079,39,0,1638.8999998569489,10,1,experiment,NA,NA,1,0.3,0.7,3,2,35,1,NA
fcp-trial,69,609237,0.0-44.0-0.0,voc_e2,11948,"[{""event"":""blur"",""trial"":0,""time"":0},{""event"":""focus"",""trial"":1,""time"":30326},{""event"":""blur"",""trial"":1,""time"":31392},{""event"":""focus"",""trial"":1,""time"":40710},{""event"":""blur"",""trial"":1,""time"":40802},{""event"":""focus"",""trial"":1,""time"":126467},{""event"":""fullscreenenter"",""trial"":1,""time"":127975},{""event"":""fullscreenexit"",""trial"":6,""time"":150632},{""event"":""blur"",""trial"":6,""time"":171701},{""event"":""focus"",""trial"":6,""time"":172893},{""event"":""blur"",""trial"":6,""time"":173910},{""event"":""focus"",""trial"":6,""time"":175159},{""event"":""blur"",""trial"":8,""time"":193759},{""event"":""focus"",""trial"":8,""time"":196870},{""event"":""blur"",""trial"":16,""time"":269059},{""event"":""focus"",""trial"":16,""time"":270587},{""event"":""blur"",""trial"":22,""time"":342138},{""event"":""focus"",""trial"":22,""time"":345422},{""event"":""blur"",""trial"":25,""time"":381707},{""event"":""focus"",""trial"":25,""time"":386232}]",NA,NA,NA,NA,NA,3,#1CD855,#FA92F8,10,10,1,38,1,911.2999999523163,37,1,589.8000001907349,10,1,experiment,NA,NA,1,0.7,0.3,2,3,36,1,NA
fcp-trial,70,612196,0.0-45.0-0.0,voc_e2,11948,"[{""event"":""blur"",""trial"":0,""time"":0},{""event"":""focus"",""trial"":1,""time"":30326},{""event"":""blur"",""trial"":1,""time"":31392},{""event"":""focus"",""trial"":1,""time"":40710},{""event"":""blur"",""trial"":1,""time"":40802},{""event"":""focus"",""trial"":1,""time"":126467},{""event"":""fullscreenenter"",""trial"":1,""time"":127975},{""event"":""fullscreenexit"",""trial"":6,""time"":150632},{""event"":""blur"",""trial"":6,""time"":171701},{""event"":""focus"",""trial"":6,""time"":172893},{""event"":""blur"",""trial"":6,""time"":173910},{""event"":""focus"",""trial"":6,""time"":175159},{""event"":""blur"",""trial"":8,""time"":193759},{""event"":""focus"",""trial"":8,""time"":196870},{""event"":""blur"",""trial"":16,""time"":269059},{""event"":""focus"",""trial"":16,""time"":270587},{""event"":""blur"",""trial"":22,""time"":342138},{""event"":""focus"",""trial"":22,""time"":345422},{""event"":""blur"",""trial"":25,""time"":381707},{""event"":""focus"",""trial"":25,""time"":386232}]",NA,NA,NA,NA,NA,2,#3386FF,#D89F1C,0,0,0,38,1,672.6999998092651,39,0,774.4000000953674,0,1,experiment,NA,NA,2,0.5,0.5,5,4,37,1,NA
fcp-trial,71,615110,0.0-46.0-0.0,voc_e2,11948,"[{""event"":""blur"",""trial"":0,""time"":0},{""event"":""focus"",""trial"":1,""time"":30326},{""event"":""blur"",""trial"":1,""time"":31392},{""event"":""focus"",""trial"":1,""time"":40710},{""event"":""blur"",""trial"":1,""time"":40802},{""event"":""focus"",""trial"":1,""time"":126467},{""event"":""fullscreenenter"",""trial"":1,""time"":127975},{""event"":""fullscreenexit"",""trial"":6,""time"":150632},{""event"":""blur"",""trial"":6,""time"":171701},{""event"":""focus"",""trial"":6,""time"":172893},{""event"":""blur"",""trial"":6,""time"":173910},{""event"":""focus"",""trial"":6,""time"":175159},{""event"":""blur"",""trial"":8,""time"":193759},{""event"":""focus"",""trial"":8,""time"":196870},{""event"":""blur"",""trial"":16,""time"":269059},{""event"":""focus"",""trial"":16,""time"":270587},{""event"":""blur"",""trial"":22,""time"":342138},{""event"":""focus"",""trial"":22,""time"":345422},{""event"":""blur"",""trial"":25,""time"":381707},{""event"":""focus"",""trial"":25,""time"":386232}]",NA,NA,NA,NA,NA,6,#D8271C,#741CD8,10,0,1,38,1,698.8999998569489,37,1,703.5,10,1,experiment,NA,NA,0,0.9,0.1,0,1,38,1,NA
fcp-trial,72,617836,0.0-47.0-0.0,voc_e2,11948,"[{""event"":""blur"",""trial"":0,""time"":0},{""event"":""focus"",""trial"":1,""time"":30326},{""event"":""blur"",""trial"":1,""time"":31392},{""event"":""focus"",""trial"":1,""time"":40710},{""event"":""blur"",""trial"":1,""time"":40802},{""event"":""focus"",""trial"":1,""time"":126467},{""event"":""fullscreenenter"",""trial"":1,""time"":127975},{""event"":""fullscreenexit"",""trial"":6,""time"":150632},{""event"":""blur"",""trial"":6,""time"":171701},{""event"":""focus"",""trial"":6,""time"":172893},{""event"":""blur"",""trial"":6,""time"":173910},{""event"":""focus"",""trial"":6,""time"":175159},{""event"":""blur"",""trial"":8,""time"":193759},{""event"":""focus"",""trial"":8,""time"":196870},{""event"":""blur"",""trial"":16,""time"":269059},{""event"":""focus"",""trial"":16,""time"":270587},{""event"":""blur"",""trial"":22,""time"":342138},{""event"":""focus"",""trial"":22,""time"":345422},{""event"":""blur"",""trial"":25,""time"":381707},{""event"":""focus"",""trial"":25,""time"":386232}]",NA,NA,NA,NA,NA,0,#D8271C,#741CD8,10,0,1,38,1,660.2999999523163,37,1,548.9000000953674,10,1,experiment,NA,NA,0,0.9,0.1,0,1,39,1,NA
fcp-trial,73,620532,0.0-48.0-0.0,voc_e2,11948,"[{""event"":""blur"",""trial"":0,""time"":0},{""event"":""focus"",""trial"":1,""time"":30326},{""event"":""blur"",""trial"":1,""time"":31392},{""event"":""focus"",""trial"":1,""time"":40710},{""event"":""blur"",""trial"":1,""time"":40802},{""event"":""focus"",""trial"":1,""time"":126467},{""event"":""fullscreenenter"",""trial"":1,""time"":127975},{""event"":""fullscreenexit"",""trial"":6,""time"":150632},{""event"":""blur"",""trial"":6,""time"":171701},{""event"":""focus"",""trial"":6,""time"":172893},{""event"":""blur"",""trial"":6,""time"":173910},{""event"":""focus"",""trial"":6,""time"":175159},{""event"":""blur"",""trial"":8,""time"":193759},{""event"":""focus"",""trial"":8,""time"":196870},{""event"":""blur"",""trial"":16,""time"":269059},{""event"":""focus"",""trial"":16,""time"":270587},{""event"":""blur"",""trial"":22,""time"":342138},{""event"":""focus"",""trial"":22,""time"":345422},{""event"":""blur"",""trial"":25,""time"":381707},{""event"":""focus"",""trial"":25,""time"":386232}]",NA,NA,NA,NA,NA,4,#741CD8,#D8271C,0,10,0,38,1,547.2999999523163,39,0,637.3999998569489,10,1,experiment,NA,NA,0,0.1,0.9,1,0,40,1,NA
fcp-trial,74,623445,0.0-49.0-0.0,voc_e2,11948,"[{""event"":""blur"",""trial"":0,""time"":0},{""event"":""focus"",""trial"":1,""time"":30326},{""event"":""blur"",""trial"":1,""time"":31392},{""event"":""focus"",""trial"":1,""time"":40710},{""event"":""blur"",""trial"":1,""time"":40802},{""event"":""focus"",""trial"":1,""time"":126467},{""event"":""fullscreenenter"",""trial"":1,""time"":127975},{""event"":""fullscreenexit"",""trial"":6,""time"":150632},{""event"":""blur"",""trial"":6,""time"":171701},{""event"":""focus"",""trial"":6,""time"":172893},{""event"":""blur"",""trial"":6,""time"":173910},{""event"":""focus"",""trial"":6,""time"":175159},{""event"":""blur"",""trial"":8,""time"":193759},{""event"":""focus"",""trial"":8,""time"":196870},{""event"":""blur"",""trial"":16,""time"":269059},{""event"":""focus"",""trial"":16,""time"":270587},{""event"":""blur"",""trial"":22,""time"":342138},{""event"":""focus"",""trial"":22,""time"":345422},{""event"":""blur"",""trial"":25,""time"":381707},{""event"":""focus"",""trial"":25,""time"":386232}]",NA,NA,NA,NA,NA,6,#FA92F8,#1CD855,0,10,0,38,1,573.7999999523163,39,0,832.6000001430511,10,1,experiment,NA,NA,1,0.3,0.7,3,2,41,1,NA
fcp-trial,75,627219,0.0-50.0-0.0,voc_e2,11948,"[{""event"":""blur"",""trial"":0,""time"":0},{""event"":""focus"",""trial"":1,""time"":30326},{""event"":""blur"",""trial"":1,""time"":31392},{""event"":""focus"",""trial"":1,""time"":40710},{""event"":""blur"",""trial"":1,""time"":40802},{""event"":""focus"",""trial"":1,""time"":126467},{""event"":""fullscreenenter"",""trial"":1,""time"":127975},{""event"":""fullscreenexit"",""trial"":6,""time"":150632},{""event"":""blur"",""trial"":6,""time"":171701},{""event"":""focus"",""trial"":6,""time"":172893},{""event"":""blur"",""trial"":6,""time"":173910},{""event"":""focus"",""trial"":6,""time"":175159},{""event"":""blur"",""trial"":8,""time"":193759},{""event"":""focus"",""trial"":8,""time"":196870},{""event"":""blur"",""trial"":16,""time"":269059},{""event"":""focus"",""trial"":16,""time"":270587},{""event"":""blur"",""trial"":22,""time"":342138},{""event"":""focus"",""trial"":22,""time"":345422},{""event"":""blur"",""trial"":25,""time"":381707},{""event"":""focus"",""trial"":25,""time"":386232}]",NA,NA,NA,NA,NA,3,#3386FF,#D89F1C,10,10,0,38,1,840.2999999523163,37,1,1423.7000000476835,10,0,experiment,NA,NA,2,0.5,0.5,5,4,42,1,NA
fcp-trial,76,630839,0.0-51.0-0.0,voc_e2,11948,"[{""event"":""blur"",""trial"":0,""time"":0},{""event"":""focus"",""trial"":1,""time"":30326},{""event"":""blur"",""trial"":1,""time"":31392},{""event"":""focus"",""trial"":1,""time"":40710},{""event"":""blur"",""trial"":1,""time"":40802},{""event"":""focus"",""trial"":1,""time"":126467},{""event"":""fullscreenenter"",""trial"":1,""time"":127975},{""event"":""fullscreenexit"",""trial"":6,""time"":150632},{""event"":""blur"",""trial"":6,""time"":171701},{""event"":""focus"",""trial"":6,""time"":172893},{""event"":""blur"",""trial"":6,""time"":173910},{""event"":""focus"",""trial"":6,""time"":175159},{""event"":""blur"",""trial"":8,""time"":193759},{""event"":""focus"",""trial"":8,""time"":196870},{""event"":""blur"",""trial"":16,""time"":269059},{""event"":""focus"",""trial"":16,""time"":270587},{""event"":""blur"",""trial"":22,""time"":342138},{""event"":""focus"",""trial"":22,""time"":345422},{""event"":""blur"",""trial"":25,""time"":381707},{""event"":""focus"",""trial"":25,""time"":386232}]",NA,NA,NA,NA,NA,3,#FA92F8,#1CD855,0,10,0,38,1,617.7999999523163,39,0,1486.6000001430511,10,1,experiment,NA,NA,1,0.3,0.7,3,2,43,1,NA
fcp-trial,77,633796,0.0-52.0-0.0,voc_e2,11948,"[{""event"":""blur"",""trial"":0,""time"":0},{""event"":""focus"",""trial"":1,""time"":30326},{""event"":""blur"",""trial"":1,""time"":31392},{""event"":""focus"",""trial"":1,""time"":40710},{""event"":""blur"",""trial"":1,""time"":40802},{""event"":""focus"",""trial"":1,""time"":126467},{""event"":""fullscreenenter"",""trial"":1,""time"":127975},{""event"":""fullscreenexit"",""trial"":6,""time"":150632},{""event"":""blur"",""trial"":6,""time"":171701},{""event"":""focus"",""trial"":6,""time"":172893},{""event"":""blur"",""trial"":6,""time"":173910},{""event"":""focus"",""trial"":6,""time"":175159},{""event"":""blur"",""trial"":8,""time"":193759},{""event"":""focus"",""trial"":8,""time"":196870},{""event"":""blur"",""trial"":16,""time"":269059},{""event"":""focus"",""trial"":16,""time"":270587},{""event"":""blur"",""trial"":22,""time"":342138},{""event"":""focus"",""trial"":22,""time"":345422},{""event"":""blur"",""trial"":25,""time"":381707},{""event"":""focus"",""trial"":25,""time"":386232}]",NA,NA,NA,NA,NA,5,#3386FF,#D89F1C,0,0,0,38,1,652,37,1,791.7999999523163,0,0,experiment,NA,NA,2,0.5,0.5,5,4,44,1,NA
fcp-trial,78,636412,0.0-53.0-0.0,voc_e2,11948,"[{""event"":""blur"",""trial"":0,""time"":0},{""event"":""focus"",""trial"":1,""time"":30326},{""event"":""blur"",""trial"":1,""time"":31392},{""event"":""focus"",""trial"":1,""time"":40710},{""event"":""blur"",""trial"":1,""time"":40802},{""event"":""focus"",""trial"":1,""time"":126467},{""event"":""fullscreenenter"",""trial"":1,""time"":127975},{""event"":""fullscreenexit"",""trial"":6,""time"":150632},{""event"":""blur"",""trial"":6,""time"":171701},{""event"":""focus"",""trial"":6,""time"":172893},{""event"":""blur"",""trial"":6,""time"":173910},{""event"":""focus"",""trial"":6,""time"":175159},{""event"":""blur"",""trial"":8,""time"":193759},{""event"":""focus"",""trial"":8,""time"":196870},{""event"":""blur"",""trial"":16,""time"":269059},{""event"":""focus"",""trial"":16,""time"":270587},{""event"":""blur"",""trial"":22,""time"":342138},{""event"":""focus"",""trial"":22,""time"":345422},{""event"":""blur"",""trial"":25,""time"":381707},{""event"":""focus"",""trial"":25,""time"":386232}]",NA,NA,NA,NA,NA,3,#3386FF,#D89F1C,10,0,0,38,1,619.7000000476837,37,1,485.7999999523163,10,0,experiment,NA,NA,2,0.5,0.5,5,4,45,1,NA
fcp-trial,79,640228,0.0-54.0-0.0,voc_e2,11948,"[{""event"":""blur"",""trial"":0,""time"":0},{""event"":""focus"",""trial"":1,""time"":30326},{""event"":""blur"",""trial"":1,""time"":31392},{""event"":""focus"",""trial"":1,""time"":40710},{""event"":""blur"",""trial"":1,""time"":40802},{""event"":""focus"",""trial"":1,""time"":126467},{""event"":""fullscreenenter"",""trial"":1,""time"":127975},{""event"":""fullscreenexit"",""trial"":6,""time"":150632},{""event"":""blur"",""trial"":6,""time"":171701},{""event"":""focus"",""trial"":6,""time"":172893},{""event"":""blur"",""trial"":6,""time"":173910},{""event"":""focus"",""trial"":6,""time"":175159},{""event"":""blur"",""trial"":8,""time"":193759},{""event"":""focus"",""trial"":8,""time"":196870},{""event"":""blur"",""trial"":16,""time"":269059},{""event"":""focus"",""trial"":16,""time"":270587},{""event"":""blur"",""trial"":22,""time"":342138},{""event"":""focus"",""trial"":22,""time"":345422},{""event"":""blur"",""trial"":25,""time"":381707},{""event"":""focus"",""trial"":25,""time"":386232}]",NA,NA,NA,NA,NA,5,#1CD855,#FA92F8,10,0,1,38,1,782.0999999046326,37,1,1527.0999999046326,10,1,experiment,NA,NA,1,0.7,0.3,2,3,46,2,NA
fcp-trial,80,643170,0.0-55.0-0.0,voc_e2,11948,"[{""event"":""blur"",""trial"":0,""time"":0},{""event"":""focus"",""trial"":1,""time"":30326},{""event"":""blur"",""trial"":1,""time"":31392},{""event"":""focus"",""trial"":1,""time"":40710},{""event"":""blur"",""trial"":1,""time"":40802},{""event"":""focus"",""trial"":1,""time"":126467},{""event"":""fullscreenenter"",""trial"":1,""time"":127975},{""event"":""fullscreenexit"",""trial"":6,""time"":150632},{""event"":""blur"",""trial"":6,""time"":171701},{""event"":""focus"",""trial"":6,""time"":172893},{""event"":""blur"",""trial"":6,""time"":173910},{""event"":""focus"",""trial"":6,""time"":175159},{""event"":""blur"",""trial"":8,""time"":193759},{""event"":""focus"",""trial"":8,""time"":196870},{""event"":""blur"",""trial"":16,""time"":269059},{""event"":""focus"",""trial"":16,""time"":270587},{""event"":""blur"",""trial"":22,""time"":342138},{""event"":""focus"",""trial"":22,""time"":345422},{""event"":""blur"",""trial"":25,""time"":381707},{""event"":""focus"",""trial"":25,""time"":386232}]",NA,NA,NA,NA,NA,1,#D8271C,#741CD8,10,0,1,38,1,651.2999999523163,39,0,781.5,0,0,experiment,NA,NA,0,0.9,0.1,0,1,47,2,NA
fcp-trial,81,645852,0.0-56.0-0.0,voc_e2,11948,"[{""event"":""blur"",""trial"":0,""time"":0},{""event"":""focus"",""trial"":1,""time"":30326},{""event"":""blur"",""trial"":1,""time"":31392},{""event"":""focus"",""trial"":1,""time"":40710},{""event"":""blur"",""trial"":1,""time"":40802},{""event"":""focus"",""trial"":1,""time"":126467},{""event"":""fullscreenenter"",""trial"":1,""time"":127975},{""event"":""fullscreenexit"",""trial"":6,""time"":150632},{""event"":""blur"",""trial"":6,""time"":171701},{""event"":""focus"",""trial"":6,""time"":172893},{""event"":""blur"",""trial"":6,""time"":173910},{""event"":""focus"",""trial"":6,""time"":175159},{""event"":""blur"",""trial"":8,""time"":193759},{""event"":""focus"",""trial"":8,""time"":196870},{""event"":""blur"",""trial"":16,""time"":269059},{""event"":""focus"",""trial"":16,""time"":270587},{""event"":""blur"",""trial"":22,""time"":342138},{""event"":""focus"",""trial"":22,""time"":345422},{""event"":""blur"",""trial"":25,""time"":381707},{""event"":""focus"",""trial"":25,""time"":386232}]",NA,NA,NA,NA,NA,3,#741CD8,#D8271C,0,10,0,38,1,713.0999999046326,39,0,454.40000009536743,10,1,experiment,NA,NA,0,0.1,0.9,1,0,48,2,NA
fcp-trial,82,650020,0.0-57.0-0.0,voc_e2,11948,"[{""event"":""blur"",""trial"":0,""time"":0},{""event"":""focus"",""trial"":1,""time"":30326},{""event"":""blur"",""trial"":1,""time"":31392},{""event"":""focus"",""trial"":1,""time"":40710},{""event"":""blur"",""trial"":1,""time"":40802},{""event"":""focus"",""trial"":1,""time"":126467},{""event"":""fullscreenenter"",""trial"":1,""time"":127975},{""event"":""fullscreenexit"",""trial"":6,""time"":150632},{""event"":""blur"",""trial"":6,""time"":171701},{""event"":""focus"",""trial"":6,""time"":172893},{""event"":""blur"",""trial"":6,""time"":173910},{""event"":""focus"",""trial"":6,""time"":175159},{""event"":""blur"",""trial"":8,""time"":193759},{""event"":""focus"",""trial"":8,""time"":196870},{""event"":""blur"",""trial"":16,""time"":269059},{""event"":""focus"",""trial"":16,""time"":270587},{""event"":""blur"",""trial"":22,""time"":342138},{""event"":""focus"",""trial"":22,""time"":345422},{""event"":""blur"",""trial"":25,""time"":381707},{""event"":""focus"",""trial"":25,""time"":386232}]",NA,NA,NA,NA,NA,6,#D89F1C,#3386FF,10,10,1,38,1,730.5,39,0,1925.5999999046328,10,0,experiment,NA,NA,2,0.5,0.5,4,5,49,2,NA
fcp-trial,83,653413,0.0-58.0-0.0,voc_e2,11948,"[{""event"":""blur"",""trial"":0,""time"":0},{""event"":""focus"",""trial"":1,""time"":30326},{""event"":""blur"",""trial"":1,""time"":31392},{""event"":""focus"",""trial"":1,""time"":40710},{""event"":""blur"",""trial"":1,""time"":40802},{""event"":""focus"",""trial"":1,""time"":126467},{""event"":""fullscreenenter"",""trial"":1,""time"":127975},{""event"":""fullscreenexit"",""trial"":6,""time"":150632},{""event"":""blur"",""trial"":6,""time"":171701},{""event"":""focus"",""trial"":6,""time"":172893},{""event"":""blur"",""trial"":6,""time"":173910},{""event"":""focus"",""trial"":6,""time"":175159},{""event"":""blur"",""trial"":8,""time"":193759},{""event"":""focus"",""trial"":8,""time"":196870},{""event"":""blur"",""trial"":16,""time"":269059},{""event"":""focus"",""trial"":16,""time"":270587},{""event"":""blur"",""trial"":22,""time"":342138},{""event"":""focus"",""trial"":22,""time"":345422},{""event"":""blur"",""trial"":25,""time"":381707},{""event"":""focus"",""trial"":25,""time"":386232}]",NA,NA,NA,NA,NA,1,#1CD855,#FA92F8,10,0,1,38,1,663.3000001907349,37,1,1213.6999998092651,10,1,experiment,NA,NA,1,0.7,0.3,2,3,50,2,NA
fcp-trial,84,656404,0.0-59.0-0.0,voc_e2,11948,"[{""event"":""blur"",""trial"":0,""time"":0},{""event"":""focus"",""trial"":1,""time"":30326},{""event"":""blur"",""trial"":1,""time"":31392},{""event"":""focus"",""trial"":1,""time"":40710},{""event"":""blur"",""trial"":1,""time"":40802},{""event"":""focus"",""trial"":1,""time"":126467},{""event"":""fullscreenenter"",""trial"":1,""time"":127975},{""event"":""fullscreenexit"",""trial"":6,""time"":150632},{""event"":""blur"",""trial"":6,""time"":171701},{""event"":""focus"",""trial"":6,""time"":172893},{""event"":""blur"",""trial"":6,""time"":173910},{""event"":""focus"",""trial"":6,""time"":175159},{""event"":""blur"",""trial"":8,""time"":193759},{""event"":""focus"",""trial"":8,""time"":196870},{""event"":""blur"",""trial"":16,""time"":269059},{""event"":""focus"",""trial"":16,""time"":270587},{""event"":""blur"",""trial"":22,""time"":342138},{""event"":""focus"",""trial"":22,""time"":345422},{""event"":""blur"",""trial"":25,""time"":381707},{""event"":""focus"",""trial"":25,""time"":386232}]",NA,NA,NA,NA,NA,5,#741CD8,#D8271C,0,10,0,38,1,756.4000000953674,39,0,725.2999999523163,10,1,experiment,NA,NA,0,0.1,0.9,1,0,51,2,NA
fcp-trial,85,659092,0.0-60.0-0.0,voc_e2,11948,"[{""event"":""blur"",""trial"":0,""time"":0},{""event"":""focus"",""trial"":1,""time"":30326},{""event"":""blur"",""trial"":1,""time"":31392},{""event"":""focus"",""trial"":1,""time"":40710},{""event"":""blur"",""trial"":1,""time"":40802},{""event"":""focus"",""trial"":1,""time"":126467},{""event"":""fullscreenenter"",""trial"":1,""time"":127975},{""event"":""fullscreenexit"",""trial"":6,""time"":150632},{""event"":""blur"",""trial"":6,""time"":171701},{""event"":""focus"",""trial"":6,""time"":172893},{""event"":""blur"",""trial"":6,""time"":173910},{""event"":""focus"",""trial"":6,""time"":175159},{""event"":""blur"",""trial"":8,""time"":193759},{""event"":""focus"",""trial"":8,""time"":196870},{""event"":""blur"",""trial"":16,""time"":269059},{""event"":""focus"",""trial"":16,""time"":270587},{""event"":""blur"",""trial"":22,""time"":342138},{""event"":""focus"",""trial"":22,""time"":345422},{""event"":""blur"",""trial"":25,""time"":381707},{""event"":""focus"",""trial"":25,""time"":386232}]",NA,NA,NA,NA,NA,2,#741CD8,#D8271C,0,10,0,38,1,647.2000000476837,39,0,528.5,10,1,experiment,NA,NA,0,0.1,0.9,1,0,52,2,NA
fcp-trial,86,662293,0.0-61.0-0.0,voc_e2,11948,"[{""event"":""blur"",""trial"":0,""time"":0},{""event"":""focus"",""trial"":1,""time"":30326},{""event"":""blur"",""trial"":1,""time"":31392},{""event"":""focus"",""trial"":1,""time"":40710},{""event"":""blur"",""trial"":1,""time"":40802},{""event"":""focus"",""trial"":1,""time"":126467},{""event"":""fullscreenenter"",""trial"":1,""time"":127975},{""event"":""fullscreenexit"",""trial"":6,""time"":150632},{""event"":""blur"",""trial"":6,""time"":171701},{""event"":""focus"",""trial"":6,""time"":172893},{""event"":""blur"",""trial"":6,""time"":173910},{""event"":""focus"",""trial"":6,""time"":175159},{""event"":""blur"",""trial"":8,""time"":193759},{""event"":""focus"",""trial"":8,""time"":196870},{""event"":""blur"",""trial"":16,""time"":269059},{""event"":""focus"",""trial"":16,""time"":270587},{""event"":""blur"",""trial"":22,""time"":342138},{""event"":""focus"",""trial"":22,""time"":345422},{""event"":""blur"",""trial"":25,""time"":381707},{""event"":""focus"",""trial"":25,""time"":386232}]",NA,NA,NA,NA,NA,0,#D89F1C,#3386FF,10,0,1,38,1,619.2999999523163,39,0,1071.0999999046326,0,0,experiment,NA,NA,2,0.5,0.5,4,5,53,2,NA
fcp-trial,87,665292,0.0-62.0-0.0,voc_e2,11948,"[{""event"":""blur"",""trial"":0,""time"":0},{""event"":""focus"",""trial"":1,""time"":30326},{""event"":""blur"",""trial"":1,""time"":31392},{""event"":""focus"",""trial"":1,""time"":40710},{""event"":""blur"",""trial"":1,""time"":40802},{""event"":""focus"",""trial"":1,""time"":126467},{""event"":""fullscreenenter"",""trial"":1,""time"":127975},{""event"":""fullscreenexit"",""trial"":6,""time"":150632},{""event"":""blur"",""trial"":6,""time"":171701},{""event"":""focus"",""trial"":6,""time"":172893},{""event"":""blur"",""trial"":6,""time"":173910},{""event"":""focus"",""trial"":6,""time"":175159},{""event"":""blur"",""trial"":8,""time"":193759},{""event"":""focus"",""trial"":8,""time"":196870},{""event"":""blur"",""trial"":16,""time"":269059},{""event"":""focus"",""trial"":16,""time"":270587},{""event"":""blur"",""trial"":22,""time"":342138},{""event"":""focus"",""trial"":22,""time"":345422},{""event"":""blur"",""trial"":25,""time"":381707},{""event"":""focus"",""trial"":25,""time"":386232}]",NA,NA,NA,NA,NA,4,#3386FF,#D89F1C,0,0,0,38,1,933.4000000953674,37,1,554.9000000953674,0,0,experiment,NA,NA,2,0.5,0.5,5,4,54,2,NA
fcp-trial,88,668061,0.0-63.0-0.0,voc_e2,11948,"[{""event"":""blur"",""trial"":0,""time"":0},{""event"":""focus"",""trial"":1,""time"":30326},{""event"":""blur"",""trial"":1,""time"":31392},{""event"":""focus"",""trial"":1,""time"":40710},{""event"":""blur"",""trial"":1,""time"":40802},{""event"":""focus"",""trial"":1,""time"":126467},{""event"":""fullscreenenter"",""trial"":1,""time"":127975},{""event"":""fullscreenexit"",""trial"":6,""time"":150632},{""event"":""blur"",""trial"":6,""time"":171701},{""event"":""focus"",""trial"":6,""time"":172893},{""event"":""blur"",""trial"":6,""time"":173910},{""event"":""focus"",""trial"":6,""time"":175159},{""event"":""blur"",""trial"":8,""time"":193759},{""event"":""focus"",""trial"":8,""time"":196870},{""event"":""blur"",""trial"":16,""time"":269059},{""event"":""focus"",""trial"":16,""time"":270587},{""event"":""blur"",""trial"":22,""time"":342138},{""event"":""focus"",""trial"":22,""time"":345422},{""event"":""blur"",""trial"":25,""time"":381707},{""event"":""focus"",""trial"":25,""time"":386232}]",NA,NA,NA,NA,NA,4,#1CD855,#FA92F8,10,10,1,38,1,677.2999999523163,37,1,582.3999998569489,10,1,experiment,NA,NA,1,0.7,0.3,2,3,55,2,NA
fcp-trial,89,670908,0.0-64.0-0.0,voc_e2,11948,"[{""event"":""blur"",""trial"":0,""time"":0},{""event"":""focus"",""trial"":1,""time"":30326},{""event"":""blur"",""trial"":1,""time"":31392},{""event"":""focus"",""trial"":1,""time"":40710},{""event"":""blur"",""trial"":1,""time"":40802},{""event"":""focus"",""trial"":1,""time"":126467},{""event"":""fullscreenenter"",""trial"":1,""time"":127975},{""event"":""fullscreenexit"",""trial"":6,""time"":150632},{""event"":""blur"",""trial"":6,""time"":171701},{""event"":""focus"",""trial"":6,""time"":172893},{""event"":""blur"",""trial"":6,""time"":173910},{""event"":""focus"",""trial"":6,""time"":175159},{""event"":""blur"",""trial"":8,""time"":193759},{""event"":""focus"",""trial"":8,""time"":196870},{""event"":""blur"",""trial"":16,""time"":269059},{""event"":""focus"",""trial"":16,""time"":270587},{""event"":""blur"",""trial"":22,""time"":342138},{""event"":""focus"",""trial"":22,""time"":345422},{""event"":""blur"",""trial"":25,""time"":381707},{""event"":""focus"",""trial"":25,""time"":386232}]",NA,NA,NA,NA,NA,1,#D89F1C,#3386FF,10,10,1,38,1,658.5,39,0,679.7000000476837,10,0,experiment,NA,NA,2,0.5,0.5,4,5,56,2,NA
fcp-trial,90,675312,0.0-65.0-0.0,voc_e2,11948,"[{""event"":""blur"",""trial"":0,""time"":0},{""event"":""focus"",""trial"":1,""time"":30326},{""event"":""blur"",""trial"":1,""time"":31392},{""event"":""focus"",""trial"":1,""time"":40710},{""event"":""blur"",""trial"":1,""time"":40802},{""event"":""focus"",""trial"":1,""time"":126467},{""event"":""fullscreenenter"",""trial"":1,""time"":127975},{""event"":""fullscreenexit"",""trial"":6,""time"":150632},{""event"":""blur"",""trial"":6,""time"":171701},{""event"":""focus"",""trial"":6,""time"":172893},{""event"":""blur"",""trial"":6,""time"":173910},{""event"":""focus"",""trial"":6,""time"":175159},{""event"":""blur"",""trial"":8,""time"":193759},{""event"":""focus"",""trial"":8,""time"":196870},{""event"":""blur"",""trial"":16,""time"":269059},{""event"":""focus"",""trial"":16,""time"":270587},{""event"":""blur"",""trial"":22,""time"":342138},{""event"":""focus"",""trial"":22,""time"":345422},{""event"":""blur"",""trial"":25,""time"":381707},{""event"":""focus"",""trial"":25,""time"":386232}]",NA,NA,NA,NA,NA,0,#D8271C,#741CD8,10,0,1,38,1,708.5999999046326,37,1,2184.400000095367,10,1,experiment,NA,NA,0,0.9,0.1,0,1,57,2,NA
