trial_type,trial_index,time_elapsed,internal_node_id,task_version,subject_id,interactions,success,rt,stimulus,key_press,button_pressed,offer,arcade_color_L,arcade_color_R,arcade_outcome_L,arcade_outcome_R,correct,stage_1_key,stage_1_choice,stage_1_rt,stage_2_key,stage_2_choice,stage_2_rt,stage_3_outcome,accuracy,phase,responses,num_errors,context,reward_prob_L,reward_prob_R,arcade_id_L,arcade_id_R,trial,block,response
pavlovia,0,9,0.0-0.0,voc_e2,12166,[],NA,NA,NA,NA,NA,NA,NA,NA,NA,NA,NA,NA,NA,NA,NA,NA,NA,NA,NA,NA,NA,NA,NA,NA,NA,NA,NA,NA,NA,NA
fullscreen,1,34582,0.0-1.0,voc_e2,12166,"[{""event"":""blur"",""trial"":1,""time"":163},{""event"":""focus"",""trial"":1,""time"":32156},{""event"":""fullscreenenter"",""trial"":1,""time"":33593}]",TRUE,NA,NA,NA,NA,NA,NA,NA,NA,NA,NA,NA,NA,NA,NA,NA,NA,NA,NA,NA,NA,NA,NA,NA,NA,NA,NA,NA,NA,NA
audio-keyboard-response,2,37014,0.0-2.0,voc_e2,12166,"[{""event"":""blur"",""trial"":1,""time"":163},{""event"":""focus"",""trial"":1,""time"":32156},{""event"":""fullscreenenter"",""trial"":1,""time"":33593}]",NA,2080,static/audio/beep_loop.wav,174,NA,NA,NA,NA,NA,NA,NA,NA,NA,NA,NA,NA,NA,NA,NA,NA,NA,NA,NA,NA,NA,NA,NA,NA,NA,NA
audio-test,3,38497,0.0-3.0,voc_e2,12166,"[{""event"":""blur"",""trial"":1,""time"":163},{""event"":""focus"",""trial"":1,""time"":32156},{""event"":""fullscreenenter"",""trial"":1,""time"":33593}]",NA,NA,static/audio/turtle.wav,NA,3,NA,NA,NA,NA,NA,NA,NA,NA,NA,NA,NA,NA,NA,NA,NA,NA,NA,NA,NA,NA,NA,NA,NA,NA,NA
audio-test,4,40681,0.0-4.0,voc_e2,12166,"[{""event"":""blur"",""trial"":1,""time"":163},{""event"":""focus"",""trial"":1,""time"":32156},{""event"":""fullscreenenter"",""trial"":1,""time"":33593}]",NA,NA,static/audio/shark.wav,NA,2,NA,NA,NA,NA,NA,NA,NA,NA,NA,NA,NA,NA,NA,NA,NA,NA,NA,NA,NA,NA,NA,NA,NA,NA,NA
audio-instructions,5,47990,0.0-5.0-0.0,voc_e2,12166,"[{""event"":""blur"",""trial"":1,""time"":163},{""event"":""focus"",""trial"":1,""time"":32156},{""event"":""fullscreenenter"",""trial"":1,""time"":33593}]",NA,1531.399999976158,static/audio/instructions1.wav,NA,0,NA,NA,NA,NA,NA,NA,NA,NA,NA,NA,NA,NA,NA,NA,NA,NA,NA,NA,NA,NA,NA,NA,NA,NA,NA
audio-instructions,6,57838,0.0-5.0-1.0,voc_e2,12166,"[{""event"":""blur"",""trial"":1,""time"":163},{""event"":""focus"",""trial"":1,""time"":32156},{""event"":""fullscreenenter"",""trial"":1,""time"":33593}]",NA,3101,static/audio/instructions2.wav,NA,0,NA,NA,NA,NA,NA,NA,NA,NA,NA,NA,NA,NA,NA,NA,NA,NA,NA,NA,NA,NA,NA,NA,NA,NA,NA
audio-instructions,7,65016,0.0-5.0-2.0,voc_e2,12166,"[{""event"":""blur"",""trial"":1,""time"":163},{""event"":""focus"",""trial"":1,""time"":32156},{""event"":""fullscreenenter"",""trial"":1,""time"":33593}]",NA,1368.600000023842,static/audio/instructions3.wav,NA,0,NA,NA,NA,NA,NA,NA,NA,NA,NA,NA,NA,NA,NA,NA,NA,NA,NA,NA,NA,NA,NA,NA,NA,NA,NA
audio-instructions,8,79001,0.0-5.0-3.0,voc_e2,12166,"[{""event"":""blur"",""trial"":1,""time"":163},{""event"":""focus"",""trial"":1,""time"":32156},{""event"":""fullscreenenter"",""trial"":1,""time"":33593}]",NA,754.1999999284744,static/audio/instructions4.wav,NA,0,NA,NA,NA,NA,NA,NA,NA,NA,NA,NA,NA,NA,NA,NA,NA,NA,NA,NA,NA,NA,NA,NA,NA,NA,NA
audio-instructions,9,90684,0.0-5.0-4.0,voc_e2,12166,"[{""event"":""blur"",""trial"":1,""time"":163},{""event"":""focus"",""trial"":1,""time"":32156},{""event"":""fullscreenenter"",""trial"":1,""time"":33593}]",NA,2297,static/audio/instructions5.wav,NA,0,NA,NA,NA,NA,NA,NA,NA,NA,NA,NA,NA,NA,NA,NA,NA,NA,NA,NA,NA,NA,NA,NA,NA,NA,NA
fcp-practice,10,93630,0.0-5.0-5.0-0.0,voc_e2,12166,"[{""event"":""blur"",""trial"":1,""time"":163},{""event"":""focus"",""trial"":1,""time"":32156},{""event"":""fullscreenenter"",""trial"":1,""time"":33593}]",NA,NA,NA,NA,NA,NA,#EDC948,#46d3c8,10,0,1,null,null,null,37,1,1426.6999999284744,10,1,practice,NA,NA,NA,NA,NA,NA,NA,NA,NA,NA
fcp-practice,11,95450,0.0-5.0-5.0-1.0,voc_e2,12166,"[{""event"":""blur"",""trial"":1,""time"":163},{""event"":""focus"",""trial"":1,""time"":32156},{""event"":""fullscreenenter"",""trial"":1,""time"":33593}]",NA,NA,NA,NA,NA,NA,#EDC948,#46d3c8,10,0,1,null,null,null,37,1,313.2999999523163,10,1,practice,NA,NA,NA,NA,NA,NA,NA,NA,NA,NA
fcp-practice,12,97250,0.0-5.0-5.0-2.0,voc_e2,12166,"[{""event"":""blur"",""trial"":1,""time"":163},{""event"":""focus"",""trial"":1,""time"":32156},{""event"":""fullscreenenter"",""trial"":1,""time"":33593}]",NA,NA,NA,NA,NA,NA,#EDC948,#46d3c8,0,10,1,null,null,null,37,1,292.5,0,1,practice,NA,NA,NA,NA,NA,NA,NA,NA,NA,NA
fcp-practice,13,99015,0.0-5.0-5.0-3.0,voc_e2,12166,"[{""event"":""blur"",""trial"":1,""time"":163},{""event"":""focus"",""trial"":1,""time"":32156},{""event"":""fullscreenenter"",""trial"":1,""time"":33593}]",NA,NA,NA,NA,NA,NA,#EDC948,#46d3c8,10,0,1,null,null,null,37,1,252.90000009536743,10,1,practice,NA,NA,NA,NA,NA,NA,NA,NA,NA,NA
fcp-practice,14,100892,0.0-5.0-5.0-4.0,voc_e2,12166,"[{""event"":""blur"",""trial"":1,""time"":163},{""event"":""focus"",""trial"":1,""time"":32156},{""event"":""fullscreenenter"",""trial"":1,""time"":33593}]",NA,NA,NA,NA,NA,NA,#EDC948,#46d3c8,10,0,1,null,null,null,37,1,372.39999997615814,10,1,practice,NA,NA,NA,NA,NA,NA,NA,NA,NA,NA
audio-instructions,15,121681,0.0-5.0-6.0,voc_e2,12166,"[{""event"":""blur"",""trial"":1,""time"":163},{""event"":""focus"",""trial"":1,""time"":32156},{""event"":""fullscreenenter"",""trial"":1,""time"":33593}]",NA,2783.600000023842,static/audio/instructions6.wav,NA,0,NA,NA,NA,NA,NA,NA,NA,NA,NA,NA,NA,NA,NA,NA,NA,NA,NA,NA,NA,NA,NA,NA,NA,NA,NA
audio-instructions,16,142575,0.0-5.0-7.0,voc_e2,12166,"[{""event"":""blur"",""trial"":1,""time"":163},{""event"":""focus"",""trial"":1,""time"":32156},{""event"":""fullscreenenter"",""trial"":1,""time"":33593}]",NA,1696.7999999523165,static/audio/instructions7.wav,NA,0,NA,NA,NA,NA,NA,NA,NA,NA,NA,NA,NA,NA,NA,NA,NA,NA,NA,NA,NA,NA,NA,NA,NA,NA,NA
audio-instructions,17,161426,0.0-5.0-8.0,voc_e2,12166,"[{""event"":""blur"",""trial"":1,""time"":163},{""event"":""focus"",""trial"":1,""time"":32156},{""event"":""fullscreenenter"",""trial"":1,""time"":33593}]",NA,9379.100000023842,static/audio/instructions8.wav,NA,0,NA,NA,NA,NA,NA,NA,NA,NA,NA,NA,NA,NA,NA,NA,NA,NA,NA,NA,NA,NA,NA,NA,NA,NA,NA
fcp-comprehension,18,169944,0.0-5.0-9.0,voc_e2,12166,"[{""event"":""blur"",""trial"":1,""time"":163},{""event"":""focus"",""trial"":1,""time"":32156},{""event"":""fullscreenenter"",""trial"":1,""time"":33593}]",NA,8516.699999928474,NA,NA,NA,NA,NA,NA,NA,NA,NA,NA,NA,NA,NA,NA,NA,NA,NA,NA,"true,true",0,NA,NA,NA,NA,NA,NA,NA,NA
audio-instructions,19,178392,0.0-6.0-0.0,voc_e2,12166,"[{""event"":""blur"",""trial"":1,""time"":163},{""event"":""focus"",""trial"":1,""time"":32156},{""event"":""fullscreenenter"",""trial"":1,""time"":33593}]",NA,2894.2999999523163,static/audio/instructions9.wav,NA,0,NA,NA,NA,NA,NA,NA,NA,NA,NA,NA,NA,NA,NA,NA,NA,NA,NA,NA,NA,NA,NA,NA,NA,NA,NA
audio-instructions,20,191500,0.0-6.0-1.0,voc_e2,12166,"[{""event"":""blur"",""trial"":1,""time"":163},{""event"":""focus"",""trial"":1,""time"":32156},{""event"":""fullscreenenter"",""trial"":1,""time"":33593}]",NA,992.899999976158,static/audio/instructions10.wav,NA,0,NA,NA,NA,NA,NA,NA,NA,NA,NA,NA,NA,NA,NA,NA,NA,NA,NA,NA,NA,NA,NA,NA,NA,NA,NA
fcp-trial,21,203006,0.0-6.0-2.0,voc_e2,12166,"[{""event"":""blur"",""trial"":1,""time"":163},{""event"":""focus"",""trial"":1,""time"":32156},{""event"":""fullscreenenter"",""trial"":1,""time"":33593}]",NA,NA,NA,NA,NA,0,#EDC948,#46d3c8,10,10,1,38,1,7064.899999976158,39,0,2920.9000000953674,10,0,practice,NA,NA,NA,NA,NA,NA,NA,NA,NA,NA
audio-instructions,22,220837,0.0-6.0-3.0,voc_e2,12166,"[{""event"":""blur"",""trial"":1,""time"":163},{""event"":""focus"",""trial"":1,""time"":32156},{""event"":""fullscreenenter"",""trial"":1,""time"":33593}]",NA,6819.700000047684,static/audio/instructions11.wav,NA,0,NA,NA,NA,NA,NA,NA,NA,NA,NA,NA,NA,NA,NA,NA,NA,NA,NA,NA,NA,NA,NA,NA,NA,NA,NA
fcp-trial,23,230833,0.0-6.0-4.0,voc_e2,12166,"[{""event"":""blur"",""trial"":1,""time"":163},{""event"":""focus"",""trial"":1,""time"":32156},{""event"":""fullscreenenter"",""trial"":1,""time"":33593}]",NA,NA,NA,NA,NA,6,#EDC948,#46d3c8,10,10,1,40,0,6988.100000023842,39,0,1488.6000000238419,10,0,practice,NA,NA,NA,NA,NA,NA,NA,NA,NA,NA
audio-instructions,24,255598,0.0-6.0-5.0,voc_e2,12166,"[{""event"":""blur"",""trial"":1,""time"":163},{""event"":""focus"",""trial"":1,""time"":32156},{""event"":""fullscreenenter"",""trial"":1,""time"":33593}]",NA,6080.699999928474,static/audio/instructions12.wav,NA,0,NA,NA,NA,NA,NA,NA,NA,NA,NA,NA,NA,NA,NA,NA,NA,NA,NA,NA,NA,NA,NA,NA,NA,NA,NA
audio-instructions,25,267188,0.0-6.0-6.0,voc_e2,12166,"[{""event"":""blur"",""trial"":1,""time"":163},{""event"":""focus"",""trial"":1,""time"":32156},{""event"":""fullscreenenter"",""trial"":1,""time"":33593}]",NA,3990.5,static/audio/instructions13.wav,NA,0,NA,NA,NA,NA,NA,NA,NA,NA,NA,NA,NA,NA,NA,NA,NA,NA,NA,NA,NA,NA,NA,NA,NA,NA,NA
audio-instructions,26,284189,0.0-6.0-7.0,voc_e2,12166,"[{""event"":""blur"",""trial"":1,""time"":163},{""event"":""focus"",""trial"":1,""time"":32156},{""event"":""fullscreenenter"",""trial"":1,""time"":33593}]",NA,8551.399999976158,static/audio/instructions14.wav,NA,0,NA,NA,NA,NA,NA,NA,NA,NA,NA,NA,NA,NA,NA,NA,NA,NA,NA,NA,NA,NA,NA,NA,NA,NA,NA
audio-instructions,27,296318,0.0-7.0-0.0,voc_e2,12166,"[{""event"":""blur"",""trial"":1,""time"":163},{""event"":""focus"",""trial"":1,""time"":32156},{""event"":""fullscreenenter"",""trial"":1,""time"":33593}]",NA,5210.600000023842,static/audio/instructions15.wav,NA,0,NA,NA,NA,NA,NA,NA,NA,NA,NA,NA,NA,NA,NA,NA,NA,NA,NA,NA,NA,NA,NA,NA,NA,NA,NA
audio-instructions,28,304762,0.0-7.0-1.0,voc_e2,12166,"[{""event"":""blur"",""trial"":1,""time"":163},{""event"":""focus"",""trial"":1,""time"":32156},{""event"":""fullscreenenter"",""trial"":1,""time"":33593}]",NA,1614.7000000476835,static/audio/instructions16.wav,NA,0,NA,NA,NA,NA,NA,NA,NA,NA,NA,NA,NA,NA,NA,NA,NA,NA,NA,NA,NA,NA,NA,NA,NA,NA,NA
audio-instructions,29,313281,0.0-7.0-2.0,voc_e2,12166,"[{""event"":""blur"",""trial"":1,""time"":163},{""event"":""focus"",""trial"":1,""time"":32156},{""event"":""fullscreenenter"",""trial"":1,""time"":33593}]",NA,844.1999999284744,static/audio/instructions17.wav,NA,0,NA,NA,NA,NA,NA,NA,NA,NA,NA,NA,NA,NA,NA,NA,NA,NA,NA,NA,NA,NA,NA,NA,NA,NA,NA
audio-instructions,30,323346,0.0-7.0-3.0,voc_e2,12166,"[{""event"":""blur"",""trial"":1,""time"":163},{""event"":""focus"",""trial"":1,""time"":32156},{""event"":""fullscreenenter"",""trial"":1,""time"":33593}]",NA,2299.599999904633,static/audio/instructions18.wav,NA,0,NA,NA,NA,NA,NA,NA,NA,NA,NA,NA,NA,NA,NA,NA,NA,NA,NA,NA,NA,NA,NA,NA,NA,NA,NA
audio-instructions,31,331726,0.0-7.0-4.0,voc_e2,12166,"[{""event"":""blur"",""trial"":1,""time"":163},{""event"":""focus"",""trial"":1,""time"":32156},{""event"":""fullscreenenter"",""trial"":1,""time"":33593}]",NA,1628.8000000715256,static/audio/instructions19.wav,NA,0,NA,NA,NA,NA,NA,NA,NA,NA,NA,NA,NA,NA,NA,NA,NA,NA,NA,NA,NA,NA,NA,NA,NA,NA,NA
fcp-comprehension,32,344223,0.0-7.0-5.0,voc_e2,12166,"[{""event"":""blur"",""trial"":1,""time"":163},{""event"":""focus"",""trial"":1,""time"":32156},{""event"":""fullscreenenter"",""trial"":1,""time"":33593}]",NA,12495.600000023842,NA,NA,NA,NA,NA,NA,NA,NA,NA,NA,NA,NA,NA,NA,NA,NA,NA,NA,"false,false,false,true",0,NA,NA,NA,NA,NA,NA,NA,NA
audio-instructions,33,356154,0.0-8.0,voc_e2,12166,"[{""event"":""blur"",""trial"":1,""time"":163},{""event"":""focus"",""trial"":1,""time"":32156},{""event"":""fullscreenenter"",""trial"":1,""time"":33593}]",NA,2717.2999999523163,static/audio/ready.wav,NA,0,NA,NA,NA,NA,NA,NA,NA,NA,NA,NA,NA,NA,NA,NA,NA,NA,NA,NA,NA,NA,NA,NA,NA,NA,NA
fcp-trial,34,361504,0.0-9.0-0.0,voc_e2,12166,"[{""event"":""blur"",""trial"":1,""time"":163},{""event"":""focus"",""trial"":1,""time"":32156},{""event"":""fullscreenenter"",""trial"":1,""time"":33593}]",NA,NA,NA,NA,NA,4,#FA92F8,#1CD855,0,0,1,40,0,2609.2999999523163,37,1,1230.3000000715256,0,1,experiment,NA,NA,2,0.5,0.5,4,5,1,1,NA
fcp-trial,35,369621,0.0-10.0-0.0,voc_e2,12166,"[{""event"":""blur"",""trial"":1,""time"":163},{""event"":""focus"",""trial"":1,""time"":32156},{""event"":""fullscreenenter"",""trial"":1,""time"":33593}]",NA,NA,NA,NA,NA,0,#FA92F8,#1CD855,0,0,1,38,1,5776.600000023842,39,0,829.8999999761581,0,0,experiment,NA,NA,2,0.5,0.5,4,5,2,1,NA
fcp-trial,36,373584,0.0-11.0-0.0,voc_e2,12166,"[{""event"":""blur"",""trial"":1,""time"":163},{""event"":""focus"",""trial"":1,""time"":32156},{""event"":""fullscreenenter"",""trial"":1,""time"":33593}]",NA,NA,NA,NA,NA,3,#D8271C,#741CD8,10,0,1,38,1,1716.1999999284744,39,0,737.3000000715256,0,0,experiment,NA,NA,0,0.9,0.1,0,1,3,1,NA
fcp-trial,37,379421,0.0-12.0-0.0,voc_e2,12166,"[{""event"":""blur"",""trial"":1,""time"":163},{""event"":""focus"",""trial"":1,""time"":32156},{""event"":""fullscreenenter"",""trial"":1,""time"":33593}]",NA,NA,NA,NA,NA,0,#3386FF,#D89F1C,0,0,0,38,1,3871.2000000476837,37,1,446.6999999284744,0,0,experiment,NA,NA,1,0.3,0.7,3,2,4,1,NA
fcp-trial,38,384808,0.0-13.0-0.0,voc_e2,12166,"[{""event"":""blur"",""trial"":1,""time"":163},{""event"":""focus"",""trial"":1,""time"":32156},{""event"":""fullscreenenter"",""trial"":1,""time"":33593}]",NA,NA,NA,NA,NA,2,#3386FF,#D89F1C,0,10,0,38,1,3072.0999999046326,37,1,803.3999999761581,0,0,experiment,NA,NA,1,0.3,0.7,3,2,5,1,NA
fcp-trial,39,388263,0.0-14.0-0.0,voc_e2,12166,"[{""event"":""blur"",""trial"":1,""time"":163},{""event"":""focus"",""trial"":1,""time"":32156},{""event"":""fullscreenenter"",""trial"":1,""time"":33593}]",NA,NA,NA,NA,NA,3,#FA92F8,#1CD855,0,10,1,38,1,1365.5,39,0,583.7999999523163,10,0,experiment,NA,NA,2,0.5,0.5,4,5,6,1,NA
fcp-trial,40,391214,0.0-15.0-0.0,voc_e2,12166,"[{""event"":""blur"",""trial"":1,""time"":163},{""event"":""focus"",""trial"":1,""time"":32156},{""event"":""fullscreenenter"",""trial"":1,""time"":33593}]",NA,NA,NA,NA,NA,0,#D8271C,#741CD8,10,0,1,38,1,949.3999999761581,37,1,497.89999997615814,10,1,experiment,NA,NA,0,0.9,0.1,0,1,7,1,NA
fcp-trial,41,393910,0.0-16.0-0.0,voc_e2,12166,"[{""event"":""blur"",""trial"":1,""time"":163},{""event"":""focus"",""trial"":1,""time"":32156},{""event"":""fullscreenenter"",""trial"":1,""time"":33593}]",NA,NA,NA,NA,NA,2,#D8271C,#741CD8,10,0,1,38,1,567,37,1,623,10,1,experiment,NA,NA,0,0.9,0.1,0,1,8,1,NA
fcp-trial,42,396565,0.0-17.0-0.0,voc_e2,12166,"[{""event"":""blur"",""trial"":1,""time"":163},{""event"":""focus"",""trial"":1,""time"":32156},{""event"":""fullscreenenter"",""trial"":1,""time"":33593}]",NA,NA,NA,NA,NA,3,#3386FF,#D89F1C,10,10,0,38,1,599.6000000238419,37,1,549.6999999284744,10,0,experiment,NA,NA,1,0.3,0.7,3,2,9,1,NA
fcp-trial,43,399271,0.0-18.0-0.0,voc_e2,12166,"[{""event"":""blur"",""trial"":1,""time"":163},{""event"":""focus"",""trial"":1,""time"":32156},{""event"":""fullscreenenter"",""trial"":1,""time"":33593}]",NA,NA,NA,NA,NA,1,#D8271C,#741CD8,10,0,1,38,1,550.7000000476837,39,0,649.2999999523163,0,0,experiment,NA,NA,0,0.9,0.1,0,1,10,1,NA
fcp-trial,44,401738,0.0-19.0-0.0,voc_e2,12166,"[{""event"":""blur"",""trial"":1,""time"":163},{""event"":""focus"",""trial"":1,""time"":32156},{""event"":""fullscreenenter"",""trial"":1,""time"":33593}]",NA,NA,NA,NA,NA,6,#1CD855,#FA92F8,0,10,0,38,1,507.7000000476837,37,1,453.39999997615814,0,0,experiment,NA,NA,2,0.5,0.5,5,4,11,1,NA
fcp-trial,45,404136,0.0-20.0-0.0,voc_e2,12166,"[{""event"":""blur"",""trial"":1,""time"":163},{""event"":""focus"",""trial"":1,""time"":32156},{""event"":""fullscreenenter"",""trial"":1,""time"":33593}]",NA,NA,NA,NA,NA,5,#D89F1C,#3386FF,10,0,1,38,1,427.2999999523163,39,0,465.7000000476837,0,0,experiment,NA,NA,1,0.7,0.3,2,3,12,1,NA
fcp-trial,46,406581,0.0-21.0-0.0,voc_e2,12166,"[{""event"":""blur"",""trial"":1,""time"":163},{""event"":""focus"",""trial"":1,""time"":32156},{""event"":""fullscreenenter"",""trial"":1,""time"":33593}]",NA,NA,NA,NA,NA,6,#3386FF,#D89F1C,0,0,0,38,1,430,37,1,509.8000000715256,0,0,experiment,NA,NA,1,0.3,0.7,3,2,13,1,NA
fcp-trial,47,408936,0.0-22.0-0.0,voc_e2,12166,"[{""event"":""blur"",""trial"":1,""time"":163},{""event"":""focus"",""trial"":1,""time"":32156},{""event"":""fullscreenenter"",""trial"":1,""time"":33593}]",NA,NA,NA,NA,NA,6,#D8271C,#741CD8,10,0,1,38,1,390.59999990463257,39,0,457.39999997615814,0,0,experiment,NA,NA,0,0.9,0.1,0,1,14,1,NA
fcp-trial,48,411392,0.0-23.0-0.0,voc_e2,12166,"[{""event"":""blur"",""trial"":1,""time"":163},{""event"":""focus"",""trial"":1,""time"":32156},{""event"":""fullscreenenter"",""trial"":1,""time"":33593}]",NA,NA,NA,NA,NA,5,#1CD855,#FA92F8,10,0,0,38,1,464.09999990463257,37,1,486.40000009536743,10,0,experiment,NA,NA,2,0.5,0.5,5,4,15,1,NA
fcp-trial,49,413902,0.0-24.0-0.0,voc_e2,12166,"[{""event"":""blur"",""trial"":1,""time"":163},{""event"":""focus"",""trial"":1,""time"":32156},{""event"":""fullscreenenter"",""trial"":1,""time"":33593}]",NA,NA,NA,NA,NA,4,#D89F1C,#3386FF,10,0,1,38,1,399.60000002384186,39,0,606.6000000238419,0,0,experiment,NA,NA,1,0.7,0.3,2,3,16,1,NA
fcp-trial,50,416510,0.0-25.0-0.0,voc_e2,12166,"[{""event"":""blur"",""trial"":1,""time"":163},{""event"":""focus"",""trial"":1,""time"":32156},{""event"":""fullscreenenter"",""trial"":1,""time"":33593}]",NA,NA,NA,NA,NA,1,#1CD855,#FA92F8,10,10,0,38,1,482.39999997615814,37,1,620.7000000476837,10,0,experiment,NA,NA,2,0.5,0.5,5,4,17,1,NA
fcp-trial,51,419080,0.0-26.0-0.0,voc_e2,12166,"[{""event"":""blur"",""trial"":1,""time"":163},{""event"":""focus"",""trial"":1,""time"":32156},{""event"":""fullscreenenter"",""trial"":1,""time"":33593}]",NA,NA,NA,NA,NA,5,#741CD8,#D8271C,0,10,0,38,1,436.6999999284744,37,1,627.3999999761581,0,0,experiment,NA,NA,0,0.1,0.9,1,0,18,1,NA
fcp-trial,52,421739,0.0-27.0-0.0,voc_e2,12166,"[{""event"":""blur"",""trial"":1,""time"":163},{""event"":""focus"",""trial"":1,""time"":32156},{""event"":""fullscreenenter"",""trial"":1,""time"":33593}]",NA,NA,NA,NA,NA,4,#741CD8,#D8271C,0,10,0,38,1,407.8000000715256,39,0,745.8999999761581,10,1,experiment,NA,NA,0,0.1,0.9,1,0,19,1,NA
fcp-trial,53,425318,0.0-28.0-0.0,voc_e2,12166,"[{""event"":""blur"",""trial"":1,""time"":163},{""event"":""focus"",""trial"":1,""time"":32156},{""event"":""fullscreenenter"",""trial"":1,""time"":33593}]",NA,NA,NA,NA,NA,1,#D89F1C,#3386FF,10,10,1,38,1,425.60000002384186,37,1,1647,10,1,experiment,NA,NA,1,0.7,0.3,2,3,20,1,NA
fcp-trial,54,427869,0.0-29.0-0.0,voc_e2,12166,"[{""event"":""blur"",""trial"":1,""time"":163},{""event"":""focus"",""trial"":1,""time"":32156},{""event"":""fullscreenenter"",""trial"":1,""time"":33593}]",NA,NA,NA,NA,NA,2,#FA92F8,#1CD855,10,0,1,38,1,561.5,39,0,485.1999999284744,0,0,experiment,NA,NA,2,0.5,0.5,4,5,21,1,NA
fcp-trial,55,430221,0.0-30.0-0.0,voc_e2,12166,"[{""event"":""blur"",""trial"":1,""time"":163},{""event"":""focus"",""trial"":1,""time"":32156},{""event"":""fullscreenenter"",""trial"":1,""time"":33593}]",NA,NA,NA,NA,NA,3,#FA92F8,#1CD855,10,10,1,38,1,424.2000000476837,37,1,423.10000002384186,10,1,experiment,NA,NA,2,0.5,0.5,4,5,22,1,NA
fcp-trial,56,432810,0.0-31.0-0.0,voc_e2,12166,"[{""event"":""blur"",""trial"":1,""time"":163},{""event"":""focus"",""trial"":1,""time"":32156},{""event"":""fullscreenenter"",""trial"":1,""time"":33593}]",NA,NA,NA,NA,NA,2,#741CD8,#D8271C,0,10,0,38,1,648.1000000238419,37,1,436.60000002384186,0,0,experiment,NA,NA,0,0.1,0.9,1,0,23,1,NA
fcp-trial,57,435539,0.0-32.0-0.0,voc_e2,12166,"[{""event"":""blur"",""trial"":1,""time"":163},{""event"":""focus"",""trial"":1,""time"":32156},{""event"":""fullscreenenter"",""trial"":1,""time"":33593}]",NA,NA,NA,NA,NA,1,#3386FF,#D89F1C,0,10,0,38,1,413.90000009536743,37,1,811.3999999761581,0,0,experiment,NA,NA,1,0.3,0.7,3,2,24,1,NA
fcp-trial,58,438305,0.0-33.0-0.0,voc_e2,12166,"[{""event"":""blur"",""trial"":1,""time"":163},{""event"":""focus"",""trial"":1,""time"":32156},{""event"":""fullscreenenter"",""trial"":1,""time"":33593}]",NA,NA,NA,NA,NA,6,#D8271C,#741CD8,10,0,1,38,1,450.39999997615814,37,1,811.3999999761581,10,1,experiment,NA,NA,0,0.9,0.1,0,1,25,1,NA
fcp-trial,59,440863,0.0-34.0-0.0,voc_e2,12166,"[{""event"":""blur"",""trial"":1,""time"":163},{""event"":""focus"",""trial"":1,""time"":32156},{""event"":""fullscreenenter"",""trial"":1,""time"":33593}]",NA,NA,NA,NA,NA,2,#FA92F8,#1CD855,0,10,1,38,1,370.90000009536743,39,0,681.7000000476837,10,0,experiment,NA,NA,2,0.5,0.5,4,5,26,1,NA
fcp-trial,60,444219,0.0-35.0-0.0,voc_e2,12166,"[{""event"":""blur"",""trial"":1,""time"":163},{""event"":""focus"",""trial"":1,""time"":32156},{""event"":""fullscreenenter"",""trial"":1,""time"":33593}]",NA,NA,NA,NA,NA,6,#D89F1C,#3386FF,0,0,1,38,1,545.6999999284744,37,1,1304.7999999523163,0,1,experiment,NA,NA,1,0.7,0.3,2,3,27,1,NA
fcp-trial,61,446895,0.0-36.0-0.0,voc_e2,12166,"[{""event"":""blur"",""trial"":1,""time"":163},{""event"":""focus"",""trial"":1,""time"":32156},{""event"":""fullscreenenter"",""trial"":1,""time"":33593}]",NA,NA,NA,NA,NA,4,#3386FF,#D89F1C,0,0,0,38,1,395,39,0,775.7000000476837,0,1,experiment,NA,NA,1,0.3,0.7,3,2,28,1,NA
fcp-trial,62,449754,0.0-37.0-0.0,voc_e2,12166,"[{""event"":""blur"",""trial"":1,""time"":163},{""event"":""focus"",""trial"":1,""time"":32156},{""event"":""fullscreenenter"",""trial"":1,""time"":33593}]",NA,NA,NA,NA,NA,5,#741CD8,#D8271C,0,10,0,38,1,413.60000002384186,39,0,939.6999999284744,10,1,experiment,NA,NA,0,0.1,0.9,1,0,29,1,NA
fcp-trial,63,452300,0.0-38.0-0.0,voc_e2,12166,"[{""event"":""blur"",""trial"":1,""time"":163},{""event"":""focus"",""trial"":1,""time"":32156},{""event"":""fullscreenenter"",""trial"":1,""time"":33593}]",NA,NA,NA,NA,NA,0,#FA92F8,#1CD855,10,10,1,38,1,498.3000000715256,39,0,543.2000000476837,10,0,experiment,NA,NA,2,0.5,0.5,4,5,30,1,NA
fcp-trial,64,455754,0.0-39.0-0.0,voc_e2,12166,"[{""event"":""blur"",""trial"":1,""time"":163},{""event"":""focus"",""trial"":1,""time"":32156},{""event"":""fullscreenenter"",""trial"":1,""time"":33593}]",NA,NA,NA,NA,NA,1,#741CD8,#D8271C,10,10,0,38,1,565.6000000238419,39,0,1383.5999999046326,10,1,experiment,NA,NA,0,0.1,0.9,1,0,31,1,NA
fcp-trial,65,458841,0.0-40.0-0.0,voc_e2,12166,"[{""event"":""blur"",""trial"":1,""time"":163},{""event"":""focus"",""trial"":1,""time"":32156},{""event"":""fullscreenenter"",""trial"":1,""time"":33593}]",NA,NA,NA,NA,NA,2,#3386FF,#D89F1C,0,10,0,38,1,468.39999997615814,39,0,1114.3999999761581,10,1,experiment,NA,NA,1,0.3,0.7,3,2,32,1,NA
fcp-trial,66,461357,0.0-41.0-0.0,voc_e2,12166,"[{""event"":""blur"",""trial"":1,""time"":163},{""event"":""focus"",""trial"":1,""time"":32156},{""event"":""fullscreenenter"",""trial"":1,""time"":33593}]",NA,NA,NA,NA,NA,1,#1CD855,#FA92F8,10,10,0,38,1,433.8000000715256,37,1,576.6000000238419,10,0,experiment,NA,NA,2,0.5,0.5,5,4,33,1,NA
fcp-trial,67,464109,0.0-42.0-0.0,voc_e2,12166,"[{""event"":""blur"",""trial"":1,""time"":163},{""event"":""focus"",""trial"":1,""time"":32156},{""event"":""fullscreenenter"",""trial"":1,""time"":33593}]",NA,NA,NA,NA,NA,5,#3386FF,#D89F1C,0,10,0,38,1,396.2000000476837,37,1,851.9000000953674,0,0,experiment,NA,NA,1,0.3,0.7,3,2,34,1,NA
fcp-trial,68,467597,0.0-43.0-0.0,voc_e2,12166,"[{""event"":""blur"",""trial"":1,""time"":163},{""event"":""focus"",""trial"":1,""time"":32156},{""event"":""fullscreenenter"",""trial"":1,""time"":33593}]",NA,NA,NA,NA,NA,5,#1CD855,#FA92F8,0,10,0,38,1,535.5,37,1,1447,0,0,experiment,NA,NA,2,0.5,0.5,5,4,35,1,NA
fcp-trial,69,470244,0.0-44.0-0.0,voc_e2,12166,"[{""event"":""blur"",""trial"":1,""time"":163},{""event"":""focus"",""trial"":1,""time"":32156},{""event"":""fullscreenenter"",""trial"":1,""time"":33593}]",NA,NA,NA,NA,NA,0,#D8271C,#741CD8,10,10,1,38,1,451.7000000476837,37,1,692.1999999284744,10,1,experiment,NA,NA,0,0.9,0.1,0,1,36,1,NA
fcp-trial,70,474401,0.0-45.0-0.0,voc_e2,12166,"[{""event"":""blur"",""trial"":1,""time"":163},{""event"":""focus"",""trial"":1,""time"":32156},{""event"":""fullscreenenter"",""trial"":1,""time"":33593}]",NA,NA,NA,NA,NA,3,#3386FF,#D89F1C,10,0,0,38,1,1972.2000000476837,39,0,680.8999999761581,0,1,experiment,NA,NA,1,0.3,0.7,3,2,37,1,NA
fcp-trial,71,477046,0.0-46.0-0.0,voc_e2,12166,"[{""event"":""blur"",""trial"":1,""time"":163},{""event"":""focus"",""trial"":1,""time"":32156},{""event"":""fullscreenenter"",""trial"":1,""time"":33593}]",NA,NA,NA,NA,NA,6,#1CD855,#FA92F8,0,10,0,38,1,519.8000000715256,39,0,619.3999999761581,10,1,experiment,NA,NA,2,0.5,0.5,5,4,38,1,NA
fcp-trial,72,479689,0.0-47.0-0.0,voc_e2,12166,"[{""event"":""blur"",""trial"":1,""time"":163},{""event"":""focus"",""trial"":1,""time"":32156},{""event"":""fullscreenenter"",""trial"":1,""time"":33593}]",NA,NA,NA,NA,NA,4,#741CD8,#D8271C,10,10,0,38,1,430.3000000715256,39,0,709,10,1,experiment,NA,NA,0,0.1,0.9,1,0,39,1,NA
fcp-trial,73,482970,0.0-48.0-0.0,voc_e2,12166,"[{""event"":""blur"",""trial"":1,""time"":163},{""event"":""focus"",""trial"":1,""time"":32156},{""event"":""fullscreenenter"",""trial"":1,""time"":33593}]",NA,NA,NA,NA,NA,4,#FA92F8,#1CD855,10,10,1,38,1,410.39999997615814,37,1,1367,10,1,experiment,NA,NA,2,0.5,0.5,4,5,40,1,NA
fcp-trial,74,485571,0.0-49.0-0.0,voc_e2,12166,"[{""event"":""blur"",""trial"":1,""time"":163},{""event"":""focus"",""trial"":1,""time"":32156},{""event"":""fullscreenenter"",""trial"":1,""time"":33593}]",NA,NA,NA,NA,NA,3,#D8271C,#741CD8,10,0,1,38,1,446.60000002384186,39,0,646.2000000476837,0,0,experiment,NA,NA,0,0.9,0.1,0,1,41,1,NA
fcp-trial,75,488865,0.0-50.0-0.0,voc_e2,12166,"[{""event"":""blur"",""trial"":1,""time"":163},{""event"":""focus"",""trial"":1,""time"":32156},{""event"":""fullscreenenter"",""trial"":1,""time"":33593}]",NA,NA,NA,NA,NA,0,#3386FF,#D89F1C,10,10,0,38,1,503.5,39,0,1286.1000000238419,10,1,experiment,NA,NA,1,0.3,0.7,3,2,42,1,NA
fcp-trial,76,491848,0.0-51.0-0.0,voc_e2,12166,"[{""event"":""blur"",""trial"":1,""time"":163},{""event"":""focus"",""trial"":1,""time"":32156},{""event"":""fullscreenenter"",""trial"":1,""time"":33593}]",NA,NA,NA,NA,NA,1,#1CD855,#FA92F8,0,0,0,38,1,431.2999999523163,37,1,1047.6000000238419,0,0,experiment,NA,NA,2,0.5,0.5,5,4,43,1,NA
fcp-trial,77,494712,0.0-52.0-0.0,voc_e2,12166,"[{""event"":""blur"",""trial"":1,""time"":163},{""event"":""focus"",""trial"":1,""time"":32156},{""event"":""fullscreenenter"",""trial"":1,""time"":33593}]",NA,NA,NA,NA,NA,3,#FA92F8,#1CD855,10,10,1,38,1,384.8000000715256,37,1,975.6000000238419,10,1,experiment,NA,NA,2,0.5,0.5,4,5,44,1,NA
fcp-trial,78,497245,0.0-53.0-0.0,voc_e2,12166,"[{""event"":""blur"",""trial"":1,""time"":163},{""event"":""focus"",""trial"":1,""time"":32156},{""event"":""fullscreenenter"",""trial"":1,""time"":33593}]",NA,NA,NA,NA,NA,0,#741CD8,#D8271C,0,10,0,38,1,518.5999999046326,39,0,509.39999997615814,10,1,experiment,NA,NA,0,0.1,0.9,1,0,45,1,NA
fcp-trial,79,500016,0.0-54.0-0.0,voc_e2,12166,"[{""event"":""blur"",""trial"":1,""time"":163},{""event"":""focus"",""trial"":1,""time"":32156},{""event"":""fullscreenenter"",""trial"":1,""time"":33593}]",NA,NA,NA,NA,NA,2,#D89F1C,#3386FF,10,10,1,38,1,498.10000002384186,37,1,768.3999999761581,10,1,experiment,NA,NA,1,0.7,0.3,2,3,46,2,NA
fcp-trial,80,503140,0.0-55.0-0.0,voc_e2,12166,"[{""event"":""blur"",""trial"":1,""time"":163},{""event"":""focus"",""trial"":1,""time"":32156},{""event"":""fullscreenenter"",""trial"":1,""time"":33593}]",NA,NA,NA,NA,NA,4,#1CD855,#FA92F8,10,0,0,38,1,475.60000002384186,39,0,1144.8000000715256,0,1,experiment,NA,NA,2,0.5,0.5,5,4,47,2,NA
fcp-trial,81,505834,0.0-56.0-0.0,voc_e2,12166,"[{""event"":""blur"",""trial"":1,""time"":163},{""event"":""focus"",""trial"":1,""time"":32156},{""event"":""fullscreenenter"",""trial"":1,""time"":33593}]",NA,NA,NA,NA,NA,3,#D8271C,#741CD8,10,0,1,38,1,404.60000002384186,37,1,784,10,1,experiment,NA,NA,0,0.9,0.1,0,1,48,2,NA
fcp-trial,82,509380,0.0-57.0-0.0,voc_e2,12166,"[{""event"":""blur"",""trial"":1,""time"":163},{""event"":""focus"",""trial"":1,""time"":32156},{""event"":""fullscreenenter"",""trial"":1,""time"":33593}]",NA,NA,NA,NA,NA,5,#D89F1C,#3386FF,0,10,1,38,1,830,37,1,1211,0,1,experiment,NA,NA,1,0.7,0.3,2,3,49,2,NA
fcp-trial,83,511760,0.0-58.0-0.0,voc_e2,12166,"[{""event"":""blur"",""trial"":1,""time"":163},{""event"":""focus"",""trial"":1,""time"":32156},{""event"":""fullscreenenter"",""trial"":1,""time"":33593}]",NA,NA,NA,NA,NA,0,#3386FF,#D89F1C,0,10,0,38,1,465.89999997615814,39,0,408.10000002384186,10,1,experiment,NA,NA,1,0.3,0.7,3,2,50,2,NA
fcp-trial,84,514370,0.0-59.0-0.0,voc_e2,12166,"[{""event"":""blur"",""trial"":1,""time"":163},{""event"":""focus"",""trial"":1,""time"":32156},{""event"":""fullscreenenter"",""trial"":1,""time"":33593}]",NA,NA,NA,NA,NA,5,#FA92F8,#1CD855,0,0,1,38,1,639,37,1,466.89999997615814,0,1,experiment,NA,NA,2,0.5,0.5,4,5,51,2,NA
fcp-trial,85,516925,0.0-60.0-0.0,voc_e2,12166,"[{""event"":""blur"",""trial"":1,""time"":163},{""event"":""focus"",""trial"":1,""time"":32156},{""event"":""fullscreenenter"",""trial"":1,""time"":33593}]",NA,NA,NA,NA,NA,1,#D8271C,#741CD8,10,10,1,38,1,440.39999997615814,37,1,608.7000000476837,10,1,experiment,NA,NA,0,0.9,0.1,0,1,52,2,NA
fcp-trial,86,520080,0.0-61.0-0.0,voc_e2,12166,"[{""event"":""blur"",""trial"":1,""time"":163},{""event"":""focus"",""trial"":1,""time"":32156},{""event"":""fullscreenenter"",""trial"":1,""time"":33593}]",NA,NA,NA,NA,NA,4,#D89F1C,#3386FF,10,10,1,38,1,702,37,1,947,10,1,experiment,NA,NA,1,0.7,0.3,2,3,53,2,NA
fcp-trial,87,522607,0.0-62.0-0.0,voc_e2,12166,"[{""event"":""blur"",""trial"":1,""time"":163},{""event"":""focus"",""trial"":1,""time"":32156},{""event"":""fullscreenenter"",""trial"":1,""time"":33593}]",NA,NA,NA,NA,NA,0,#1CD855,#FA92F8,0,10,0,38,1,448.2999999523163,39,0,574,10,1,experiment,NA,NA,2,0.5,0.5,5,4,54,2,NA
fcp-trial,88,525021,0.0-63.0-0.0,voc_e2,12166,"[{""event"":""blur"",""trial"":1,""time"":163},{""event"":""focus"",""trial"":1,""time"":32156},{""event"":""fullscreenenter"",""trial"":1,""time"":33593}]",NA,NA,NA,NA,NA,6,#D8271C,#741CD8,0,0,1,38,1,422.89999997615814,39,0,486,0,0,experiment,NA,NA,0,0.9,0.1,0,1,55,2,NA
fcp-trial,89,527388,0.0-64.0-0.0,voc_e2,12166,"[{""event"":""blur"",""trial"":1,""time"":163},{""event"":""focus"",""trial"":1,""time"":32156},{""event"":""fullscreenenter"",""trial"":1,""time"":33593}]",NA,NA,NA,NA,NA,6,#FA92F8,#1CD855,10,10,1,38,1,262.40000009536743,39,0,597.5,10,0,experiment,NA,NA,2,0.5,0.5,4,5,56,2,NA
fcp-trial,90,530232,0.0-65.0-0.0,voc_e2,12166,"[{""event"":""blur"",""trial"":1,""time"":163},{""event"":""focus"",""trial"":1,""time"":32156},{""event"":""fullscreenenter"",""trial"":1,""time"":33593}]",NA,NA,NA,NA,NA,1,#3386FF,#D89F1C,0,10,0,38,1,491.60000002384186,39,0,848.5,10,1,experiment,NA,NA,1,0.3,0.7,3,2,57,2,NA
fcp-trial,91,532578,0.0-66.0-0.0,voc_e2,12166,"[{""event"":""blur"",""trial"":1,""time"":163},{""event"":""focus"",""trial"":1,""time"":32156},{""event"":""fullscreenenter"",""trial"":1,""time"":33593}]",NA,NA,NA,NA,NA,3,#3386FF,#D89F1C,0,10,0,38,1,387.7000000476837,39,0,452.7999999523163,10,1,experiment,NA,NA,1,0.3,0.7,3,2,58,2,NA
fcp-trial,92,534946,0.0-67.0-0.0,voc_e2,12166,"[{""event"":""blur"",""trial"":1,""time"":163},{""event"":""focus"",""trial"":1,""time"":32156},{""event"":""fullscreenenter"",""trial"":1,""time"":33593}]",NA,NA,NA,NA,NA,4,#D8271C,#741CD8,10,0,1,38,1,437.90000009536743,37,1,424.7999999523163,10,1,experiment,NA,NA,0,0.9,0.1,0,1,59,2,NA
fcp-trial,93,537989,0.0-68.0-0.0,voc_e2,12166,"[{""event"":""blur"",""trial"":1,""time"":163},{""event"":""focus"",""trial"":1,""time"":32156},{""event"":""fullscreenenter"",""trial"":1,""time"":33593}]",NA,NA,NA,NA,NA,2,#1CD855,#FA92F8,10,0,0,38,1,499.7000000476837,39,0,1039,0,1,experiment,NA,NA,2,0.5,0.5,5,4,60,2,NA
fcp-trial,94,540748,0.0-69.0-0.0,voc_e2,12166,"[{""event"":""blur"",""trial"":1,""time"":163},{""event"":""focus"",""trial"":1,""time"":32156},{""event"":""fullscreenenter"",""trial"":1,""time"":33593}]",NA,NA,NA,NA,NA,5,#D8271C,#741CD8,10,0,1,38,1,383.89999997615814,37,1,870.8999999761581,10,1,experiment,NA,NA,0,0.9,0.1,0,1,61,2,NA
fcp-trial,95,543782,0.0-70.0-0.0,voc_e2,12166,"[{""event"":""blur"",""trial"":1,""time"":163},{""event"":""focus"",""trial"":1,""time"":32156},{""event"":""fullscreenenter"",""trial"":1,""time"":33593}]",NA,NA,NA,NA,NA,6,#D89F1C,#3386FF,10,0,1,38,1,497.7999999523163,39,0,1031.6000000238419,0,0,experiment,NA,NA,1,0.7,0.3,2,3,62,2,NA
fcp-trial,96,549450,0.0-71.0-0.0,voc_e2,12166,"[{""event"":""blur"",""trial"":1,""time"":163},{""event"":""focus"",""trial"":1,""time"":32156},{""event"":""fullscreenenter"",""trial"":1,""time"":33593}]",NA,NA,NA,NA,NA,2,#741CD8,#D8271C,0,0,0,38,1,3395.9000000953674,39,0,767.3999999761581,0,1,experiment,NA,NA,0,0.1,0.9,1,0,63,2,NA
fcp-trial,97,551873,0.0-72.0-0.0,voc_e2,12166,"[{""event"":""blur"",""trial"":1,""time"":163},{""event"":""focus"",""trial"":1,""time"":32156},{""event"":""fullscreenenter"",""trial"":1,""time"":33593}]",NA,NA,NA,NA,NA,3,#D8271C,#741CD8,10,0,1,38,1,522.7000000476837,37,1,395.89999997615814,10,1,experiment,NA,NA,0,0.9,0.1,0,1,64,2,NA
fcp-trial,98,555802,0.0-73.0-0.0,voc_e2,12166,"[{""event"":""blur"",""trial"":1,""time"":163},{""event"":""focus"",""trial"":1,""time"":32156},{""event"":""fullscreenenter"",""trial"":1,""time"":33593}]",NA,NA,NA,NA,NA,3,#D89F1C,#3386FF,10,10,1,38,1,1759.3999999761581,37,1,664.7999999523163,10,1,experiment,NA,NA,1,0.7,0.3,2,3,65,2,NA
fcp-trial,99,558524,0.0-74.0-0.0,voc_e2,12166,"[{""event"":""blur"",""trial"":1,""time"":163},{""event"":""focus"",""trial"":1,""time"":32156},{""event"":""fullscreenenter"",""trial"":1,""time"":33593}]",NA,NA,NA,NA,NA,0,#1CD855,#FA92F8,0,0,0,38,1,585.5,39,0,629.8999999761581,0,1,experiment,NA,NA,2,0.5,0.5,5,4,66,2,NA
fcp-trial,100,561750,0.0-75.0-0.0,voc_e2,12166,"[{""event"":""blur"",""trial"":1,""time"":163},{""event"":""focus"",""trial"":1,""time"":32156},{""event"":""fullscreenenter"",""trial"":1,""time"":33593}]",NA,NA,NA,NA,NA,1,#D89F1C,#3386FF,10,0,1,38,1,489.3000000715256,37,1,1230.7999999523163,10,1,experiment,NA,NA,1,0.7,0.3,2,3,67,2,NA
fcp-trial,101,564075,0.0-76.0-0.0,voc_e2,12166,"[{""event"":""blur"",""trial"":1,""time"":163},{""event"":""focus"",""trial"":1,""time"":32156},{""event"":""fullscreenenter"",""trial"":1,""time"":33593}]",NA,NA,NA,NA,NA,1,#741CD8,#D8271C,0,10,0,38,1,423.2000000476837,39,0,397.40000009536743,10,1,experiment,NA,NA,0,0.1,0.9,1,0,68,2,NA
fcp-trial,102,566479,0.0-77.0-0.0,voc_e2,12166,"[{""event"":""blur"",""trial"":1,""time"":163},{""event"":""focus"",""trial"":1,""time"":32156},{""event"":""fullscreenenter"",""trial"":1,""time"":33593}]",NA,NA,NA,NA,NA,6,#741CD8,#D8271C,10,10,0,38,1,473.6999999284744,39,0,424,10,1,experiment,NA,NA,0,0.1,0.9,1,0,69,2,NA
fcp-trial,103,568959,0.0-78.0-0.0,voc_e2,12166,"[{""event"":""blur"",""trial"":1,""time"":163},{""event"":""focus"",""trial"":1,""time"":32156},{""event"":""fullscreenenter"",""trial"":1,""time"":33593}]",NA,NA,NA,NA,NA,3,#FA92F8,#1CD855,0,0,1,38,1,605.2000000476837,37,1,369.5,0,1,experiment,NA,NA,2,0.5,0.5,4,5,70,2,NA
fcp-trial,104,572439,0.0-79.0-0.0,voc_e2,12166,"[{""event"":""blur"",""trial"":1,""time"":163},{""event"":""focus"",""trial"":1,""time"":32156},{""event"":""fullscreenenter"",""trial"":1,""time"":33593}]",NA,NA,NA,NA,NA,2,#D89F1C,#3386FF,10,0,1,38,1,617.7999999523163,39,0,1358.2000000476837,0,0,experiment,NA,NA,1,0.7,0.3,2,3,71,2,NA
fcp-trial,105,574705,0.0-80.0-0.0,voc_e2,12166,"[{""event"":""blur"",""trial"":1,""time"":163},{""event"":""focus"",""trial"":1,""time"":32156},{""event"":""fullscreenenter"",""trial"":1,""time"":33593}]",NA,NA,NA,NA,NA,4,#741CD8,#D8271C,0,10,0,38,1,303.10000002384186,37,1,459,0,0,experiment,NA,NA,0,0.1,0.9,1,0,72,2,NA
fcp-trial,106,577666,0.0-81.0-0.0,voc_e2,12166,"[{""event"":""blur"",""trial"":1,""time"":163},{""event"":""focus"",""trial"":1,""time"":32156},{""event"":""fullscreenenter"",""trial"":1,""time"":33593}]",NA,NA,NA,NA,NA,6,#D89F1C,#3386FF,0,10,1,38,1,461.8000000715256,37,1,994.3000000715256,0,1,experiment,NA,NA,1,0.7,0.3,2,3,73,2,NA
fcp-trial,107,581785,0.0-82.0-0.0,voc_e2,12166,"[{""event"":""blur"",""trial"":1,""time"":163},{""event"":""focus"",""trial"":1,""time"":32156},{""event"":""fullscreenenter"",""trial"":1,""time"":33593}]",NA,NA,NA,NA,NA,2,#FA92F8,#1CD855,10,0,1,38,1,476.7999999523163,37,1,2137.600000023842,10,1,experiment,NA,NA,2,0.5,0.5,4,5,74,2,NA
fcp-trial,108,584167,0.0-83.0-0.0,voc_e2,12166,"[{""event"":""blur"",""trial"":1,""time"":163},{""event"":""focus"",""trial"":1,""time"":32156},{""event"":""fullscreenenter"",""trial"":1,""time"":33593}]",NA,NA,NA,NA,NA,4,#FA92F8,#1CD855,0,10,1,38,1,447.89999997615814,37,1,429.6999999284744,0,1,experiment,NA,NA,2,0.5,0.5,4,5,75,2,NA
fcp-trial,109,587504,0.0-84.0-0.0,voc_e2,12166,"[{""event"":""blur"",""trial"":1,""time"":163},{""event"":""focus"",""trial"":1,""time"":32156},{""event"":""fullscreenenter"",""trial"":1,""time"":33593}]",NA,NA,NA,NA,NA,5,#D8271C,#741CD8,10,0,1,38,1,618.7000000476837,37,1,1212.5,10,1,experiment,NA,NA,0,0.9,0.1,0,1,76,2,NA
fcp-trial,110,590899,0.0-85.0-0.0,voc_e2,12166,"[{""event"":""blur"",""trial"":1,""time"":163},{""event"":""focus"",""trial"":1,""time"":32156},{""event"":""fullscreenenter"",""trial"":1,""time"":33593}]",NA,NA,NA,NA,NA,5,#D89F1C,#3386FF,10,0,1,38,1,640.5,37,1,1249.1000000238419,10,1,experiment,NA,NA,1,0.7,0.3,2,3,77,2,NA
fcp-trial,111,593443,0.0-86.0-0.0,voc_e2,12166,"[{""event"":""blur"",""trial"":1,""time"":163},{""event"":""focus"",""trial"":1,""time"":32156},{""event"":""fullscreenenter"",""trial"":1,""time"":33593}]",NA,NA,NA,NA,NA,4,#3386FF,#D89F1C,0,10,0,38,1,597.6000000238419,39,0,441.6999999284744,10,1,experiment,NA,NA,1,0.3,0.7,3,2,78,2,NA
fcp-trial,112,596862,0.0-87.0-0.0,voc_e2,12166,"[{""event"":""blur"",""trial"":1,""time"":163},{""event"":""focus"",""trial"":1,""time"":32156},{""event"":""fullscreenenter"",""trial"":1,""time"":33593}]",NA,NA,NA,NA,NA,1,#1CD855,#FA92F8,10,10,0,38,1,655.7999999523163,39,0,1259.2000000476837,10,1,experiment,NA,NA,2,0.5,0.5,5,4,79,2,NA
fcp-trial,113,599640,0.0-88.0-0.0,voc_e2,12166,"[{""event"":""blur"",""trial"":1,""time"":163},{""event"":""focus"",""trial"":1,""time"":32156},{""event"":""fullscreenenter"",""trial"":1,""time"":33593}]",NA,NA,NA,NA,NA,2,#741CD8,#D8271C,0,10,0,38,1,384.10000002384186,39,0,888.7999999523163,10,1,experiment,NA,NA,0,0.1,0.9,1,0,80,2,NA
fcp-trial,114,602484,0.0-89.0-0.0,voc_e2,12166,"[{""event"":""blur"",""trial"":1,""time"":163},{""event"":""focus"",""trial"":1,""time"":32156},{""event"":""fullscreenenter"",""trial"":1,""time"":33593}]",NA,NA,NA,NA,NA,0,#3386FF,#D89F1C,0,10,0,38,1,490.39999997615814,39,0,847.1999999284744,10,1,experiment,NA,NA,1,0.3,0.7,3,2,81,2,NA
fcp-trial,115,605184,0.0-90.0-0.0,voc_e2,12166,"[{""event"":""blur"",""trial"":1,""time"":163},{""event"":""focus"",""trial"":1,""time"":32156},{""event"":""fullscreenenter"",""trial"":1,""time"":33593}]",NA,NA,NA,NA,NA,5,#FA92F8,#1CD855,0,0,1,38,1,546.1000000238419,37,1,649.6000000238419,0,1,experiment,NA,NA,2,0.5,0.5,4,5,82,2,NA
fcp-trial,116,608278,0.0-91.0-0.0,voc_e2,12166,"[{""event"":""blur"",""trial"":1,""time"":163},{""event"":""focus"",""trial"":1,""time"":32156},{""event"":""fullscreenenter"",""trial"":1,""time"":33593}]",NA,NA,NA,NA,NA,0,#741CD8,#D8271C,0,10,0,38,1,432.39999997615814,39,0,1155.6999999284744,10,1,experiment,NA,NA,0,0.1,0.9,1,0,83,2,NA
fcp-trial,117,610877,0.0-92.0-0.0,voc_e2,12166,"[{""event"":""blur"",""trial"":1,""time"":163},{""event"":""focus"",""trial"":1,""time"":32156},{""event"":""fullscreenenter"",""trial"":1,""time"":33593}]",NA,NA,NA,NA,NA,6,#1CD855,#FA92F8,10,10,0,38,1,582.0999999046326,37,1,513,10,0,experiment,NA,NA,2,0.5,0.5,5,4,84,2,NA
fcp-trial,118,613377,0.0-93.0-0.0,voc_e2,12166,"[{""event"":""blur"",""trial"":1,""time"":163},{""event"":""focus"",""trial"":1,""time"":32156},{""event"":""fullscreenenter"",""trial"":1,""time"":33593}]",NA,NA,NA,NA,NA,3,#D8271C,#741CD8,10,0,1,38,1,570.1000000238419,39,0,424.7000000476837,0,0,experiment,NA,NA,0,0.9,0.1,0,1,85,2,NA
fcp-trial,119,616147,0.0-94.0-0.0,voc_e2,12166,"[{""event"":""blur"",""trial"":1,""time"":163},{""event"":""focus"",""trial"":1,""time"":32156},{""event"":""fullscreenenter"",""trial"":1,""time"":33593}]",NA,NA,NA,NA,NA,1,#1CD855,#FA92F8,10,10,0,38,1,407.1999999284744,39,0,855.5,10,1,experiment,NA,NA,2,0.5,0.5,5,4,86,2,NA
fcp-trial,120,619506,0.0-95.0-0.0,voc_e2,12166,"[{""event"":""blur"",""trial"":1,""time"":163},{""event"":""focus"",""trial"":1,""time"":32156},{""event"":""fullscreenenter"",""trial"":1,""time"":33593}]",NA,NA,NA,NA,NA,4,#D89F1C,#3386FF,10,10,1,38,1,471.60000002384186,37,1,1381.5,10,1,experiment,NA,NA,1,0.7,0.3,2,3,87,2,NA
fcp-trial,121,621812,0.0-96.0-0.0,voc_e2,12166,"[{""event"":""blur"",""trial"":1,""time"":163},{""event"":""focus"",""trial"":1,""time"":32156},{""event"":""fullscreenenter"",""trial"":1,""time"":33593}]",NA,NA,NA,NA,NA,1,#3386FF,#D89F1C,0,10,0,38,1,399.7999999523163,39,0,400.2000000476837,10,1,experiment,NA,NA,1,0.3,0.7,3,2,88,2,NA
fcp-trial,122,624309,0.0-97.0-0.0,voc_e2,12166,"[{""event"":""blur"",""trial"":1,""time"":163},{""event"":""focus"",""trial"":1,""time"":32156},{""event"":""fullscreenenter"",""trial"":1,""time"":33593}]",NA,NA,NA,NA,NA,2,#FA92F8,#1CD855,0,10,1,38,1,603.7999999523163,37,1,388.39999997615814,0,1,experiment,NA,NA,2,0.5,0.5,4,5,89,2,NA
fcp-trial,123,627516,0.0-98.0-0.0,voc_e2,12166,"[{""event"":""blur"",""trial"":1,""time"":163},{""event"":""focus"",""trial"":1,""time"":32156},{""event"":""fullscreenenter"",""trial"":1,""time"":33593}]",NA,NA,NA,NA,NA,2,#D8271C,#741CD8,10,0,1,38,1,413.90000009536743,37,1,1287.8999999761581,10,1,experiment,NA,NA,0,0.9,0.1,0,1,90,2,NA
fcp-trial,124,630349,0.0-99.0-0.0,voc_e2,12166,"[{""event"":""blur"",""trial"":1,""time"":163},{""event"":""focus"",""trial"":1,""time"":32156},{""event"":""fullscreenenter"",""trial"":1,""time"":33593}]",NA,NA,NA,NA,NA,5,#D89F1C,#3386FF,10,0,1,38,1,476.10000002384186,37,1,852.1999999284744,10,1,experiment,NA,NA,1,0.7,0.3,2,3,91,3,NA
fcp-trial,125,632809,0.0-100.0-0.0,voc_e2,12166,"[{""event"":""blur"",""trial"":1,""time"":163},{""event"":""focus"",""trial"":1,""time"":32156},{""event"":""fullscreenenter"",""trial"":1,""time"":33593}]",NA,NA,NA,NA,NA,0,#FA92F8,#1CD855,0,0,1,38,1,585,39,0,370.5,0,0,experiment,NA,NA,2,0.5,0.5,4,5,92,3,NA
fcp-trial,126,636790,0.0-101.0-0.0,voc_e2,12166,"[{""event"":""blur"",""trial"":1,""time"":163},{""event"":""focus"",""trial"":1,""time"":32156},{""event"":""fullscreenenter"",""trial"":1,""time"":33593}]",NA,NA,NA,NA,NA,2,#D89F1C,#3386FF,10,0,1,38,1,395.60000002384186,37,1,2081,10,1,experiment,NA,NA,1,0.7,0.3,2,3,93,3,NA
fcp-trial,127,639459,0.0-102.0-0.0,voc_e2,12166,"[{""event"":""blur"",""trial"":1,""time"":163},{""event"":""focus"",""trial"":1,""time"":32156},{""event"":""fullscreenenter"",""trial"":1,""time"":33593}]",NA,NA,NA,NA,NA,5,#D8271C,#741CD8,10,0,1,38,1,660.8999999761581,39,0,502.40000009536743,0,0,experiment,NA,NA,0,0.9,0.1,0,1,94,3,NA
fcp-trial,128,641806,0.0-103.0-0.0,voc_e2,12166,"[{""event"":""blur"",""trial"":1,""time"":163},{""event"":""focus"",""trial"":1,""time"":32156},{""event"":""fullscreenenter"",""trial"":1,""time"":33593}]",NA,NA,NA,NA,NA,5,#1CD855,#FA92F8,0,0,0,38,1,522.8999999761581,37,1,319.5,0,0,experiment,NA,NA,2,0.5,0.5,5,4,95,3,NA
fcp-trial,129,645005,0.0-104.0-0.0,voc_e2,12166,"[{""event"":""blur"",""trial"":1,""time"":163},{""event"":""focus"",""trial"":1,""time"":32156},{""event"":""fullscreenenter"",""trial"":1,""time"":33593}]",NA,NA,NA,NA,NA,6,#D8271C,#741CD8,10,0,1,38,1,287.7000000476837,37,1,1406.6999999284744,10,1,experiment,NA,NA,0,0.9,0.1,0,1,96,3,NA
fcp-trial,130,649175,0.0-105.0-0.0,voc_e2,12166,"[{""event"":""blur"",""trial"":1,""time"":163},{""event"":""focus"",""trial"":1,""time"":32156},{""event"":""fullscreenenter"",""trial"":1,""time"":33593}]",NA,NA,NA,NA,NA,3,#D89F1C,#3386FF,10,0,1,38,1,834.1000000238419,37,1,1830.8999999761581,10,1,experiment,NA,NA,1,0.7,0.3,2,3,97,3,NA
fcp-trial,131,652076,0.0-106.0-0.0,voc_e2,12166,"[{""event"":""blur"",""trial"":1,""time"":163},{""event"":""focus"",""trial"":1,""time"":32156},{""event"":""fullscreenenter"",""trial"":1,""time"":33593}]",NA,NA,NA,NA,NA,0,#741CD8,#D8271C,10,10,0,38,1,460,39,0,936,10,1,experiment,NA,NA,0,0.1,0.9,1,0,98,3,NA
fcp-trial,132,654886,0.0-107.0-0.0,voc_e2,12166,"[{""event"":""blur"",""trial"":1,""time"":163},{""event"":""focus"",""trial"":1,""time"":32156},{""event"":""fullscreenenter"",""trial"":1,""time"":33593}]",NA,NA,NA,NA,NA,0,#D89F1C,#3386FF,10,10,1,38,1,682.2000000476837,37,1,623.8999999761581,10,1,experiment,NA,NA,1,0.7,0.3,2,3,99,3,NA
fcp-trial,133,658095,0.0-108.0-0.0,voc_e2,12166,"[{""event"":""blur"",""trial"":1,""time"":163},{""event"":""focus"",""trial"":1,""time"":32156},{""event"":""fullscreenenter"",""trial"":1,""time"":33593}]",NA,NA,NA,NA,NA,4,#1CD855,#FA92F8,10,0,0,38,1,459.89999997615814,39,0,1244.2999999523163,0,1,experiment,NA,NA,2,0.5,0.5,5,4,100,3,NA
fcp-trial,134,661247,0.0-109.0-0.0,voc_e2,12166,"[{""event"":""blur"",""trial"":1,""time"":163},{""event"":""focus"",""trial"":1,""time"":32156},{""event"":""fullscreenenter"",""trial"":1,""time"":33593}]",NA,NA,NA,NA,NA,6,#1CD855,#FA92F8,0,10,0,38,1,1097,37,1,550,0,0,experiment,NA,NA,2,0.5,0.5,5,4,101,3,NA
fcp-trial,135,664666,0.0-110.0-0.0,voc_e2,12166,"[{""event"":""blur"",""trial"":1,""time"":163},{""event"":""focus"",""trial"":1,""time"":32156},{""event"":""fullscreenenter"",""trial"":1,""time"":33593}]",NA,NA,NA,NA,NA,3,#FA92F8,#1CD855,10,0,1,38,1,1100.5,39,0,814.5999999046326,0,0,experiment,NA,NA,2,0.5,0.5,4,5,102,3,NA
fcp-trial,136,667336,0.0-111.0-0.0,voc_e2,12166,"[{""event"":""blur"",""trial"":1,""time"":163},{""event"":""focus"",""trial"":1,""time"":32156},{""event"":""fullscreenenter"",""trial"":1,""time"":33593}]",NA,NA,NA,NA,NA,1,#741CD8,#D8271C,0,10,0,38,1,451.10000002384186,39,0,714.1999999284744,10,1,experiment,NA,NA,0,0.1,0.9,1,0,103,3,NA
fcp-trial,137,671348,0.0-112.0-0.0,voc_e2,12166,"[{""event"":""blur"",""trial"":1,""time"":163},{""event"":""focus"",""trial"":1,""time"":32156},{""event"":""fullscreenenter"",""trial"":1,""time"":33593}]",NA,NA,NA,NA,NA,6,#D89F1C,#3386FF,0,10,1,38,1,641.7000000476837,37,1,1865.6999999284744,0,1,experiment,NA,NA,1,0.7,0.3,2,3,104,3,NA
fcp-trial,138,674061,0.0-113.0-0.0,voc_e2,12166,"[{""event"":""blur"",""trial"":1,""time"":163},{""event"":""focus"",""trial"":1,""time"":32156},{""event"":""fullscreenenter"",""trial"":1,""time"":33593}]",NA,NA,NA,NA,NA,4,#D8271C,#741CD8,10,0,1,38,1,351.2999999523163,37,1,856.8999999761581,10,1,experiment,NA,NA,0,0.9,0.1,0,1,105,3,NA
audio-instructions,139,679438,0.0-114.0,voc_e2,12166,"[{""event"":""blur"",""trial"":1,""time"":163},{""event"":""focus"",""trial"":1,""time"":32156},{""event"":""fullscreenenter"",""trial"":1,""time"":33593}]",NA,594.3000000715256,static/audio/pause.wav,NA,0,NA,NA,NA,NA,NA,NA,NA,NA,NA,NA,NA,NA,NA,NA,NA,NA,NA,NA,NA,NA,NA,NA,NA,NA,NA
fcp-trial,140,684995,0.0-115.0-0.0,voc_e2,12166,"[{""event"":""blur"",""trial"":1,""time"":163},{""event"":""focus"",""trial"":1,""time"":32156},{""event"":""fullscreenenter"",""trial"":1,""time"":33593}]",NA,NA,NA,NA,NA,2,#FA92F8,#1CD855,0,0,1,38,1,2318.899999976158,37,1,1722.1000000238419,0,1,experiment,NA,NA,2,0.5,0.5,4,5,106,3,NA
fcp-trial,141,688913,0.0-116.0-0.0,voc_e2,12166,"[{""event"":""blur"",""trial"":1,""time"":163},{""event"":""focus"",""trial"":1,""time"":32156},{""event"":""fullscreenenter"",""trial"":1,""time"":33593}]",NA,NA,NA,NA,NA,2,#D89F1C,#3386FF,10,0,1,38,1,1516.6999999284744,39,0,890.8999999761581,0,0,experiment,NA,NA,1,0.7,0.3,2,3,107,3,NA
fcp-trial,142,691204,0.0-117.0-0.0,voc_e2,12166,"[{""event"":""blur"",""trial"":1,""time"":163},{""event"":""focus"",""trial"":1,""time"":32156},{""event"":""fullscreenenter"",""trial"":1,""time"":33593}]",NA,NA,NA,NA,NA,0,#D89F1C,#3386FF,10,0,1,38,1,406.89999997615814,37,1,365.2000000476837,10,1,experiment,NA,NA,1,0.7,0.3,2,3,108,3,NA
fcp-trial,143,693574,0.0-118.0-0.0,voc_e2,12166,"[{""event"":""blur"",""trial"":1,""time"":163},{""event"":""focus"",""trial"":1,""time"":32156},{""event"":""fullscreenenter"",""trial"":1,""time"":33593}]",NA,NA,NA,NA,NA,1,#D89F1C,#3386FF,10,0,1,38,1,426.7999999523163,37,1,429.2999999523163,10,1,experiment,NA,NA,1,0.7,0.3,2,3,109,3,NA
fcp-trial,144,696379,0.0-119.0-0.0,voc_e2,12166,"[{""event"":""blur"",""trial"":1,""time"":163},{""event"":""focus"",""trial"":1,""time"":32156},{""event"":""fullscreenenter"",""trial"":1,""time"":33593}]",NA,NA,NA,NA,NA,3,#741CD8,#D8271C,0,10,0,38,1,840.7000000476837,39,0,454.7999999523163,10,1,experiment,NA,NA,0,0.1,0.9,1,0,110,3,NA
fcp-trial,145,699601,0.0-120.0-0.0,voc_e2,12166,"[{""event"":""blur"",""trial"":1,""time"":163},{""event"":""focus"",""trial"":1,""time"":32156},{""event"":""fullscreenenter"",""trial"":1,""time"":33593}]",NA,NA,NA,NA,NA,3,#FA92F8,#1CD855,10,0,1,38,1,527.5999999046326,39,0,1177.6000000238419,0,0,experiment,NA,NA,2,0.5,0.5,4,5,111,3,NA
fcp-trial,146,702939,0.0-121.0-0.0,voc_e2,12166,"[{""event"":""blur"",""trial"":1,""time"":163},{""event"":""focus"",""trial"":1,""time"":32156},{""event"":""fullscreenenter"",""trial"":1,""time"":33593}]",NA,NA,NA,NA,NA,4,#1CD855,#FA92F8,10,10,0,38,1,674.3999999761581,37,1,1148.4000000953674,10,0,experiment,NA,NA,2,0.5,0.5,5,4,112,3,NA
fcp-trial,147,705443,0.0-122.0-0.0,voc_e2,12166,"[{""event"":""blur"",""trial"":1,""time"":163},{""event"":""focus"",""trial"":1,""time"":32156},{""event"":""fullscreenenter"",""trial"":1,""time"":33593}]",NA,NA,NA,NA,NA,4,#D89F1C,#3386FF,10,0,1,38,1,537.5,39,0,452,0,0,experiment,NA,NA,1,0.7,0.3,2,3,113,3,NA
fcp-trial,148,708261,0.0-123.0-0.0,voc_e2,12166,"[{""event"":""blur"",""trial"":1,""time"":163},{""event"":""focus"",""trial"":1,""time"":32156},{""event"":""fullscreenenter"",""trial"":1,""time"":33593}]",NA,NA,NA,NA,NA,4,#741CD8,#D8271C,0,10,0,38,1,449.89999997615814,39,0,849,10,1,experiment,NA,NA,0,0.1,0.9,1,0,114,3,NA
fcp-trial,149,711399,0.0-124.0-0.0,voc_e2,12166,"[{""event"":""blur"",""trial"":1,""time"":163},{""event"":""focus"",""trial"":1,""time"":32156},{""event"":""fullscreenenter"",""trial"":1,""time"":33593}]",NA,NA,NA,NA,NA,6,#FA92F8,#1CD855,0,0,1,38,1,501.10000002384186,39,0,1129.5,0,0,experiment,NA,NA,2,0.5,0.5,4,5,115,3,NA
fcp-trial,150,714143,0.0-125.0-0.0,voc_e2,12166,"[{""event"":""blur"",""trial"":1,""time"":163},{""event"":""focus"",""trial"":1,""time"":32156},{""event"":""fullscreenenter"",""trial"":1,""time"":33593}]",NA,NA,NA,NA,NA,2,#D8271C,#741CD8,10,0,1,38,1,492.2999999523163,37,1,747.3999999761581,10,1,experiment,NA,NA,0,0.9,0.1,0,1,116,3,NA
fcp-trial,151,716759,0.0-126.0-0.0,voc_e2,12166,"[{""event"":""blur"",""trial"":1,""time"":163},{""event"":""focus"",""trial"":1,""time"":32156},{""event"":""fullscreenenter"",""trial"":1,""time"":33593}]",NA,NA,NA,NA,NA,1,#741CD8,#D8271C,10,10,0,38,1,639.5,39,0,471.60000002384186,10,1,experiment,NA,NA,0,0.1,0.9,1,0,117,3,NA
fcp-trial,152,732696,0.0-127.0-0.0,voc_e2,12166,"[{""event"":""blur"",""trial"":1,""time"":163},{""event"":""focus"",""trial"":1,""time"":32156},{""event"":""fullscreenenter"",""trial"":1,""time"":33593}]",NA,NA,NA,NA,NA,3,#D89F1C,#3386FF,10,10,1,38,1,669.7999999523163,null,null,null,NA,0,experiment,NA,NA,1,0.7,0.3,2,3,118,3,NA
fcp-trial,153,738106,0.0-128.0-0.0,voc_e2,12166,"[{""event"":""blur"",""trial"":1,""time"":163},{""event"":""focus"",""trial"":1,""time"":32156},{""event"":""fullscreenenter"",""trial"":1,""time"":33593}]",NA,NA,NA,NA,NA,5,#FA92F8,#1CD855,10,10,1,38,1,3334.7000000476837,37,1,569.5,10,1,experiment,NA,NA,2,0.5,0.5,4,5,119,3,NA
fcp-trial,154,742739,0.0-129.0-0.0,voc_e2,12166,"[{""event"":""blur"",""trial"":1,""time"":163},{""event"":""focus"",""trial"":1,""time"":32156},{""event"":""fullscreenenter"",""trial"":1,""time"":33593}]",NA,NA,NA,NA,NA,5,#3386FF,#D89F1C,0,0,0,38,1,2710.8000000715256,39,0,417.89999997615814,0,1,experiment,NA,NA,1,0.3,0.7,3,2,120,3,NA
fcp-trial,155,747427,0.0-130.0-0.0,voc_e2,12166,"[{""event"":""blur"",""trial"":1,""time"":163},{""event"":""focus"",""trial"":1,""time"":32156},{""event"":""fullscreenenter"",""trial"":1,""time"":33593}]",NA,NA,NA,NA,NA,5,#741CD8,#D8271C,0,10,0,38,1,2001.2999999523163,37,1,1182.5,0,0,experiment,NA,NA,0,0.1,0.9,1,0,121,3,NA
fcp-trial,156,749783,0.0-131.0-0.0,voc_e2,12166,"[{""event"":""blur"",""trial"":1,""time"":163},{""event"":""focus"",""trial"":1,""time"":32156},{""event"":""fullscreenenter"",""trial"":1,""time"":33593}]",NA,NA,NA,NA,NA,0,#1CD855,#FA92F8,0,0,0,38,1,418.2999999523163,37,1,432.2000000476837,0,0,experiment,NA,NA,2,0.5,0.5,5,4,122,3,NA
fcp-trial,157,752478,0.0-132.0-0.0,voc_e2,12166,"[{""event"":""blur"",""trial"":1,""time"":163},{""event"":""focus"",""trial"":1,""time"":32156},{""event"":""fullscreenenter"",""trial"":1,""time"":33593}]",NA,NA,NA,NA,NA,6,#D8271C,#741CD8,10,0,1,38,1,459.2000000476837,37,1,731.1999999284744,10,1,experiment,NA,NA,0,0.9,0.1,0,1,123,3,NA
fcp-trial,158,755515,0.0-133.0-0.0,voc_e2,12166,"[{""event"":""blur"",""trial"":1,""time"":163},{""event"":""focus"",""trial"":1,""time"":32156},{""event"":""fullscreenenter"",""trial"":1,""time"":33593}]",NA,NA,NA,NA,NA,0,#D8271C,#741CD8,10,0,1,38,1,1054.3000000715256,37,1,476.8000000715256,10,1,experiment,NA,NA,0,0.9,0.1,0,1,124,3,NA
fcp-trial,159,759984,0.0-134.0-0.0,voc_e2,12166,"[{""event"":""blur"",""trial"":1,""time"":163},{""event"":""focus"",""trial"":1,""time"":32156},{""event"":""fullscreenenter"",""trial"":1,""time"":33593}]",NA,NA,NA,NA,NA,6,#3386FF,#D89F1C,0,10,0,38,1,875.7000000476837,39,0,2088.7000000476837,10,1,experiment,NA,NA,1,0.3,0.7,3,2,125,3,NA
fcp-trial,160,762831,0.0-135.0-0.0,voc_e2,12166,"[{""event"":""blur"",""trial"":1,""time"":163},{""event"":""focus"",""trial"":1,""time"":32156},{""event"":""fullscreenenter"",""trial"":1,""time"":33593}]",NA,NA,NA,NA,NA,1,#1CD855,#FA92F8,0,0,0,38,1,559.2999999523163,37,1,783.7999999523163,0,0,experiment,NA,NA,2,0.5,0.5,5,4,126,3,NA
fcp-trial,161,765422,0.0-136.0-0.0,voc_e2,12166,"[{""event"":""blur"",""trial"":1,""time"":163},{""event"":""focus"",""trial"":1,""time"":32156},{""event"":""fullscreenenter"",""trial"":1,""time"":33593}]",NA,NA,NA,NA,NA,4,#FA92F8,#1CD855,10,10,1,38,1,636.6999999284744,37,1,449.7000000476837,10,1,experiment,NA,NA,2,0.5,0.5,4,5,127,3,NA
fcp-trial,162,768191,0.0-137.0-0.0,voc_e2,12166,"[{""event"":""blur"",""trial"":1,""time"":163},{""event"":""focus"",""trial"":1,""time"":32156},{""event"":""fullscreenenter"",""trial"":1,""time"":33593}]",NA,NA,NA,NA,NA,6,#FA92F8,#1CD855,10,0,1,38,1,787.6000000238419,37,1,475.5,10,1,experiment,NA,NA,2,0.5,0.5,4,5,128,3,NA
fcp-trial,163,771054,0.0-138.0-0.0,voc_e2,12166,"[{""event"":""blur"",""trial"":1,""time"":163},{""event"":""focus"",""trial"":1,""time"":32156},{""event"":""fullscreenenter"",""trial"":1,""time"":33593}]",NA,NA,NA,NA,NA,2,#3386FF,#D89F1C,0,10,0,38,1,625.8000000715256,39,0,730.7999999523163,10,1,experiment,NA,NA,1,0.3,0.7,3,2,129,3,NA
fcp-trial,164,776839,0.0-139.0-0.0,voc_e2,12166,"[{""event"":""blur"",""trial"":1,""time"":163},{""event"":""focus"",""trial"":1,""time"":32156},{""event"":""fullscreenenter"",""trial"":1,""time"":33593}]",NA,NA,NA,NA,NA,4,#741CD8,#D8271C,10,10,0,38,1,919.2999999523163,39,0,3360.7000000476837,10,1,experiment,NA,NA,0,0.1,0.9,1,0,130,3,NA
fcp-trial,165,781575,0.0-140.0-0.0,voc_e2,12166,"[{""event"":""blur"",""trial"":1,""time"":163},{""event"":""focus"",""trial"":1,""time"":32156},{""event"":""fullscreenenter"",""trial"":1,""time"":33593}]",NA,NA,NA,NA,NA,3,#FA92F8,#1CD855,10,10,1,38,1,2741.5,37,1,488.1999999284744,10,1,experiment,NA,NA,2,0.5,0.5,4,5,131,3,NA
fcp-trial,166,784922,0.0-141.0-0.0,voc_e2,12166,"[{""event"":""blur"",""trial"":1,""time"":163},{""event"":""focus"",""trial"":1,""time"":32156},{""event"":""fullscreenenter"",""trial"":1,""time"":33593}]",NA,NA,NA,NA,NA,1,#D8271C,#741CD8,10,0,1,38,1,1142,37,1,700.5,10,1,experiment,NA,NA,0,0.9,0.1,0,1,132,3,NA
fcp-trial,167,788026,0.0-142.0-0.0,voc_e2,12166,"[{""event"":""blur"",""trial"":1,""time"":163},{""event"":""focus"",""trial"":1,""time"":32156},{""event"":""fullscreenenter"",""trial"":1,""time"":33593}]",NA,NA,NA,NA,NA,0,#D89F1C,#3386FF,10,10,1,38,1,611.7999999523163,37,1,987.2999999523163,10,1,experiment,NA,NA,1,0.7,0.3,2,3,133,3,NA
fcp-trial,168,790662,0.0-143.0-0.0,voc_e2,12166,"[{""event"":""blur"",""trial"":1,""time"":163},{""event"":""focus"",""trial"":1,""time"":32156},{""event"":""fullscreenenter"",""trial"":1,""time"":33593}]",NA,NA,NA,NA,NA,5,#3386FF,#D89F1C,0,10,0,38,1,533.8999999761581,39,0,597.2999999523163,10,1,experiment,NA,NA,1,0.3,0.7,3,2,134,3,NA
fcp-trial,169,793016,0.0-144.0-0.0,voc_e2,12166,"[{""event"":""blur"",""trial"":1,""time"":163},{""event"":""focus"",""trial"":1,""time"":32156},{""event"":""fullscreenenter"",""trial"":1,""time"":33593}]",NA,NA,NA,NA,NA,5,#D8271C,#741CD8,10,0,1,38,1,445.8000000715256,37,1,402.40000009536743,10,1,experiment,NA,NA,0,0.9,0.1,0,1,135,3,NA
fcp-trial,170,795845,0.0-145.0-0.0,voc_e2,12166,"[{""event"":""blur"",""trial"":1,""time"":163},{""event"":""focus"",""trial"":1,""time"":32156},{""event"":""fullscreenenter"",""trial"":1,""time"":33593}]",NA,NA,NA,NA,NA,0,#1CD855,#FA92F8,0,10,0,38,1,519.7999999523163,39,0,803.1000000238419,10,1,experiment,NA,NA,2,0.5,0.5,5,4,136,4,NA
fcp-trial,171,799142,0.0-146.0-0.0,voc_e2,12166,"[{""event"":""blur"",""trial"":1,""time"":163},{""event"":""focus"",""trial"":1,""time"":32156},{""event"":""fullscreenenter"",""trial"":1,""time"":33593}]",NA,NA,NA,NA,NA,3,#3386FF,#D89F1C,0,10,0,38,1,466.60000002384186,39,0,1326.3000000715256,10,1,experiment,NA,NA,1,0.3,0.7,3,2,137,4,NA
fcp-trial,172,801897,0.0-147.0-0.0,voc_e2,12166,"[{""event"":""blur"",""trial"":1,""time"":163},{""event"":""focus"",""trial"":1,""time"":32156},{""event"":""fullscreenenter"",""trial"":1,""time"":33593}]",NA,NA,NA,NA,NA,0,#741CD8,#D8271C,0,10,0,38,1,379.90000009536743,39,0,870.1000000238419,10,1,experiment,NA,NA,0,0.1,0.9,1,0,138,4,NA
fcp-trial,173,804495,0.0-148.0-0.0,voc_e2,12166,"[{""event"":""blur"",""trial"":1,""time"":163},{""event"":""focus"",""trial"":1,""time"":32156},{""event"":""fullscreenenter"",""trial"":1,""time"":33593}]",NA,NA,NA,NA,NA,1,#1CD855,#FA92F8,10,0,0,38,1,493.3000000715256,39,0,598.1000000238419,0,1,experiment,NA,NA,2,0.5,0.5,5,4,139,4,NA
fcp-trial,174,807485,0.0-149.0-0.0,voc_e2,12166,"[{""event"":""blur"",""trial"":1,""time"":163},{""event"":""focus"",""trial"":1,""time"":32156},{""event"":""fullscreenenter"",""trial"":1,""time"":33593}]",NA,NA,NA,NA,NA,6,#741CD8,#D8271C,0,10,0,38,1,441.09999990463257,39,0,1044.3999999761581,10,1,experiment,NA,NA,0,0.1,0.9,1,0,140,4,NA
fcp-trial,175,810015,0.0-150.0-0.0,voc_e2,12166,"[{""event"":""blur"",""trial"":1,""time"":163},{""event"":""focus"",""trial"":1,""time"":32156},{""event"":""fullscreenenter"",""trial"":1,""time"":33593}]",NA,NA,NA,NA,NA,1,#3386FF,#D89F1C,0,10,0,38,1,501.39999997615814,37,1,522.7999999523163,0,0,experiment,NA,NA,1,0.3,0.7,3,2,141,4,NA
fcp-trial,176,812467,0.0-151.0-0.0,voc_e2,12166,"[{""event"":""blur"",""trial"":1,""time"":163},{""event"":""focus"",""trial"":1,""time"":32156},{""event"":""fullscreenenter"",""trial"":1,""time"":33593}]",NA,NA,NA,NA,NA,6,#3386FF,#D89F1C,10,10,0,38,1,495.2000000476837,39,0,451.5,10,1,experiment,NA,NA,1,0.3,0.7,3,2,142,4,NA
fcp-trial,177,815007,0.0-152.0-0.0,voc_e2,12166,"[{""event"":""blur"",""trial"":1,""time"":163},{""event"":""focus"",""trial"":1,""time"":32156},{""event"":""fullscreenenter"",""trial"":1,""time"":33593}]",NA,NA,NA,NA,NA,5,#1CD855,#FA92F8,10,10,0,38,1,525.6000000238419,39,0,509.89999997615814,10,1,experiment,NA,NA,2,0.5,0.5,5,4,143,4,NA
fcp-trial,178,817547,0.0-153.0-0.0,voc_e2,12166,"[{""event"":""blur"",""trial"":1,""time"":163},{""event"":""focus"",""trial"":1,""time"":32156},{""event"":""fullscreenenter"",""trial"":1,""time"":33593}]",NA,NA,NA,NA,NA,2,#1CD855,#FA92F8,0,10,0,38,1,558.3999999761581,39,0,477.2000000476837,10,1,experiment,NA,NA,2,0.5,0.5,5,4,144,4,NA
fcp-trial,179,820939,0.0-154.0-0.0,voc_e2,12166,"[{""event"":""blur"",""trial"":1,""time"":163},{""event"":""focus"",""trial"":1,""time"":32156},{""event"":""fullscreenenter"",""trial"":1,""time"":33593}]",NA,NA,NA,NA,NA,2,#741CD8,#D8271C,10,10,0,38,1,734.3999999761581,39,0,1152.3999999761581,10,1,experiment,NA,NA,0,0.1,0.9,1,0,145,4,NA
fcp-trial,180,823383,0.0-155.0-0.0,voc_e2,12166,"[{""event"":""blur"",""trial"":1,""time"":163},{""event"":""focus"",""trial"":1,""time"":32156},{""event"":""fullscreenenter"",""trial"":1,""time"":33593}]",NA,NA,NA,NA,NA,3,#741CD8,#D8271C,0,10,0,38,1,486.8000000715256,39,0,451.59999990463257,10,1,experiment,NA,NA,0,0.1,0.9,1,0,146,4,NA
fcp-trial,181,828270,0.0-156.0-0.0,voc_e2,12166,"[{""event"":""blur"",""trial"":1,""time"":163},{""event"":""focus"",""trial"":1,""time"":32156},{""event"":""fullscreenenter"",""trial"":1,""time"":33593}]",NA,NA,NA,NA,NA,4,#D89F1C,#3386FF,10,10,1,38,1,530.2000000476837,37,1,2850.7999999523163,10,1,experiment,NA,NA,1,0.7,0.3,2,3,147,4,NA
fcp-trial,182,831052,0.0-157.0-0.0,voc_e2,12166,"[{""event"":""blur"",""trial"":1,""time"":163},{""event"":""focus"",""trial"":1,""time"":32156},{""event"":""fullscreenenter"",""trial"":1,""time"":33593}]",NA,NA,NA,NA,NA,6,#741CD8,#D8271C,0,10,0,38,1,530.2999999523163,39,0,745.8999999761581,10,1,experiment,NA,NA,0,0.1,0.9,1,0,148,4,NA
fcp-trial,183,833495,0.0-158.0-0.0,voc_e2,12166,"[{""event"":""blur"",""trial"":1,""time"":163},{""event"":""focus"",""trial"":1,""time"":32156},{""event"":""fullscreenenter"",""trial"":1,""time"":33593}]",NA,NA,NA,NA,NA,4,#1CD855,#FA92F8,0,0,0,38,1,383.5,39,0,553.7999999523163,0,1,experiment,NA,NA,2,0.5,0.5,5,4,149,4,NA
fcp-trial,184,837121,0.0-159.0-0.0,voc_e2,12166,"[{""event"":""blur"",""trial"":1,""time"":163},{""event"":""focus"",""trial"":1,""time"":32156},{""event"":""fullscreenenter"",""trial"":1,""time"":33593}]",NA,NA,NA,NA,NA,6,#D89F1C,#3386FF,0,0,1,38,1,1204.1000000238419,39,0,916.3999999761581,0,0,experiment,NA,NA,1,0.7,0.3,2,3,150,4,NA
fcp-trial,185,839688,0.0-160.0-0.0,voc_e2,12166,"[{""event"":""blur"",""trial"":1,""time"":163},{""event"":""focus"",""trial"":1,""time"":32156},{""event"":""fullscreenenter"",""trial"":1,""time"":33593}]",NA,NA,NA,NA,NA,1,#741CD8,#D8271C,0,10,0,38,1,422.6999999284744,39,0,636.5,10,1,experiment,NA,NA,0,0.1,0.9,1,0,151,4,NA
fcp-trial,186,842069,0.0-161.0-0.0,voc_e2,12166,"[{""event"":""blur"",""trial"":1,""time"":163},{""event"":""focus"",""trial"":1,""time"":32156},{""event"":""fullscreenenter"",""trial"":1,""time"":33593}]",NA,NA,NA,NA,NA,0,#D89F1C,#3386FF,10,0,1,38,1,442.2999999523163,37,1,431.7999999523163,10,1,experiment,NA,NA,1,0.7,0.3,2,3,152,4,NA
fcp-trial,187,845513,0.0-162.0-0.0,voc_e2,12166,"[{""event"":""blur"",""trial"":1,""time"":163},{""event"":""focus"",""trial"":1,""time"":32156},{""event"":""fullscreenenter"",""trial"":1,""time"":33593}]",NA,NA,NA,NA,NA,0,#FA92F8,#1CD855,0,0,1,38,1,426,39,0,1512.4000000953674,0,0,experiment,NA,NA,2,0.5,0.5,4,5,153,4,NA
fcp-trial,188,847884,0.0-163.0-0.0,voc_e2,12166,"[{""event"":""blur"",""trial"":1,""time"":163},{""event"":""focus"",""trial"":1,""time"":32156},{""event"":""fullscreenenter"",""trial"":1,""time"":33593}]",NA,NA,NA,NA,NA,2,#FA92F8,#1CD855,0,10,1,38,1,450.10000002384186,37,1,414.5,0,1,experiment,NA,NA,2,0.5,0.5,4,5,154,4,NA
fcp-trial,189,850864,0.0-164.0-0.0,voc_e2,12166,"[{""event"":""blur"",""trial"":1,""time"":163},{""event"":""focus"",""trial"":1,""time"":32156},{""event"":""fullscreenenter"",""trial"":1,""time"":33593}]",NA,NA,NA,NA,NA,3,#741CD8,#D8271C,0,10,0,38,1,492.5,39,0,974.5,10,1,experiment,NA,NA,0,0.1,0.9,1,0,155,4,NA
fcp-trial,190,853367,0.0-165.0-0.0,voc_e2,12166,"[{""event"":""blur"",""trial"":1,""time"":163},{""event"":""focus"",""trial"":1,""time"":32156},{""event"":""fullscreenenter"",""trial"":1,""time"":33593}]",NA,NA,NA,NA,NA,5,#1CD855,#FA92F8,0,10,0,38,1,496,39,0,503.5,10,1,experiment,NA,NA,2,0.5,0.5,5,4,156,4,NA
fcp-trial,191,857821,0.0-166.0-0.0,voc_e2,12166,"[{""event"":""blur"",""trial"":1,""time"":163},{""event"":""focus"",""trial"":1,""time"":32156},{""event"":""fullscreenenter"",""trial"":1,""time"":33593}]",NA,NA,NA,NA,NA,5,#3386FF,#D89F1C,0,0,0,38,1,513.8999999761581,37,1,2436.5,0,0,experiment,NA,NA,1,0.3,0.7,3,2,157,4,NA
fcp-trial,192,860727,0.0-167.0-0.0,voc_e2,12166,"[{""event"":""blur"",""trial"":1,""time"":163},{""event"":""focus"",""trial"":1,""time"":32156},{""event"":""fullscreenenter"",""trial"":1,""time"":33593}]",NA,NA,NA,NA,NA,6,#1CD855,#FA92F8,10,0,0,38,1,509.60000002384186,39,0,891,0,1,experiment,NA,NA,2,0.5,0.5,5,4,158,4,NA
fcp-trial,193,863307,0.0-168.0-0.0,voc_e2,12166,"[{""event"":""blur"",""trial"":1,""time"":163},{""event"":""focus"",""trial"":1,""time"":32156},{""event"":""fullscreenenter"",""trial"":1,""time"":33593}]",NA,NA,NA,NA,NA,0,#D8271C,#741CD8,10,0,1,38,1,654.2000000476837,37,1,420,10,1,experiment,NA,NA,0,0.9,0.1,0,1,159,4,NA
fcp-trial,194,865805,0.0-169.0-0.0,voc_e2,12166,"[{""event"":""blur"",""trial"":1,""time"":163},{""event"":""focus"",""trial"":1,""time"":32156},{""event"":""fullscreenenter"",""trial"":1,""time"":33593}]",NA,NA,NA,NA,NA,1,#D89F1C,#3386FF,0,0,1,38,1,508.7999999523163,37,1,484.7000000476837,0,1,experiment,NA,NA,1,0.7,0.3,2,3,160,4,NA
fcp-trial,195,868889,0.0-170.0-0.0,voc_e2,12166,"[{""event"":""blur"",""trial"":1,""time"":163},{""event"":""focus"",""trial"":1,""time"":32156},{""event"":""fullscreenenter"",""trial"":1,""time"":33593}]",NA,NA,NA,NA,NA,3,#1CD855,#FA92F8,10,0,0,38,1,344.2999999523163,37,1,1234.2999999523163,10,0,experiment,NA,NA,2,0.5,0.5,5,4,161,4,NA
fcp-trial,196,871620,0.0-171.0-0.0,voc_e2,12166,"[{""event"":""blur"",""trial"":1,""time"":163},{""event"":""focus"",""trial"":1,""time"":32156},{""event"":""fullscreenenter"",""trial"":1,""time"":33593}]",NA,NA,NA,NA,NA,2,#3386FF,#D89F1C,0,0,0,38,1,420.2000000476837,39,0,806.2999999523163,0,1,experiment,NA,NA,1,0.3,0.7,3,2,162,4,NA
fcp-trial,197,874304,0.0-172.0-0.0,voc_e2,12166,"[{""event"":""blur"",""trial"":1,""time"":163},{""event"":""focus"",""trial"":1,""time"":32156},{""event"":""fullscreenenter"",""trial"":1,""time"":33593}]",NA,NA,NA,NA,NA,2,#741CD8,#D8271C,0,10,0,38,1,299.39999997615814,39,0,879.1999999284744,10,1,experiment,NA,NA,0,0.1,0.9,1,0,163,4,NA
fcp-trial,198,877300,0.0-173.0-0.0,voc_e2,12166,"[{""event"":""blur"",""trial"":1,""time"":163},{""event"":""focus"",""trial"":1,""time"":32156},{""event"":""fullscreenenter"",""trial"":1,""time"":33593}]",NA,NA,NA,NA,NA,4,#3386FF,#D89F1C,10,10,0,38,1,496.39999997615814,37,1,994.2000000476837,10,0,experiment,NA,NA,1,0.3,0.7,3,2,164,4,NA
fcp-trial,199,880190,0.0-174.0-0.0,voc_e2,12166,"[{""event"":""blur"",""trial"":1,""time"":163},{""event"":""focus"",""trial"":1,""time"":32156},{""event"":""fullscreenenter"",""trial"":1,""time"":33593}]",NA,NA,NA,NA,NA,1,#1CD855,#FA92F8,0,10,0,38,1,519.2999999523163,37,1,863.5999999046326,0,0,experiment,NA,NA,2,0.5,0.5,5,4,165,4,NA
fcp-trial,200,882985,0.0-175.0-0.0,voc_e2,12166,"[{""event"":""blur"",""trial"":1,""time"":163},{""event"":""focus"",""trial"":1,""time"":32156},{""event"":""fullscreenenter"",""trial"":1,""time"":33593}]",NA,NA,NA,NA,NA,5,#D8271C,#741CD8,10,0,1,38,1,425,37,1,863.2000000476837,10,1,experiment,NA,NA,0,0.9,0.1,0,1,166,4,NA
fcp-trial,201,886897,0.0-176.0-0.0,voc_e2,12166,"[{""event"":""blur"",""trial"":1,""time"":163},{""event"":""focus"",""trial"":1,""time"":32156},{""event"":""fullscreenenter"",""trial"":1,""time"":33593}]",NA,NA,NA,NA,NA,3,#D89F1C,#3386FF,10,0,1,38,1,491.7999999523163,39,0,1916.2999999523163,0,0,experiment,NA,NA,1,0.7,0.3,2,3,167,4,NA
fcp-trial,202,889389,0.0-177.0-0.0,voc_e2,12166,"[{""event"":""blur"",""trial"":1,""time"":163},{""event"":""focus"",""trial"":1,""time"":32156},{""event"":""fullscreenenter"",""trial"":1,""time"":33593}]",NA,NA,NA,NA,NA,4,#741CD8,#D8271C,0,10,0,38,1,395.2000000476837,39,0,590.5,10,1,experiment,NA,NA,0,0.1,0.9,1,0,168,4,NA
fcp-trial,203,892011,0.0-178.0-0.0,voc_e2,12166,"[{""event"":""blur"",""trial"":1,""time"":163},{""event"":""focus"",""trial"":1,""time"":32156},{""event"":""fullscreenenter"",""trial"":1,""time"":33593}]",NA,NA,NA,NA,NA,5,#D8271C,#741CD8,0,0,1,38,1,576.8999999761581,37,1,538.2999999523163,0,1,experiment,NA,NA,0,0.9,0.1,0,1,169,4,NA
fcp-trial,204,894696,0.0-179.0-0.0,voc_e2,12166,"[{""event"":""blur"",""trial"":1,""time"":163},{""event"":""focus"",""trial"":1,""time"":32156},{""event"":""fullscreenenter"",""trial"":1,""time"":33593}]",NA,NA,NA,NA,NA,0,#D89F1C,#3386FF,10,10,1,38,1,658.2999999523163,37,1,522.7999999523163,10,1,experiment,NA,NA,1,0.7,0.3,2,3,170,4,NA
fcp-trial,205,897228,0.0-180.0-0.0,voc_e2,12166,"[{""event"":""blur"",""trial"":1,""time"":163},{""event"":""focus"",""trial"":1,""time"":32156},{""event"":""fullscreenenter"",""trial"":1,""time"":33593}]",NA,NA,NA,NA,NA,4,#FA92F8,#1CD855,10,0,1,38,1,399.39999997615814,37,1,627.8000000715256,10,1,experiment,NA,NA,2,0.5,0.5,4,5,171,4,NA
fcp-trial,206,899734,0.0-181.0-0.0,voc_e2,12166,"[{""event"":""blur"",""trial"":1,""time"":163},{""event"":""focus"",""trial"":1,""time"":32156},{""event"":""fullscreenenter"",""trial"":1,""time"":33593}]",NA,NA,NA,NA,NA,6,#D8271C,#741CD8,10,0,1,38,1,428.2999999523163,37,1,573.7999999523163,10,1,experiment,NA,NA,0,0.9,0.1,0,1,172,4,NA
fcp-trial,207,903677,0.0-182.0-0.0,voc_e2,12166,"[{""event"":""blur"",""trial"":1,""time"":163},{""event"":""focus"",""trial"":1,""time"":32156},{""event"":""fullscreenenter"",""trial"":1,""time"":33593}]",NA,NA,NA,NA,NA,0,#FA92F8,#1CD855,0,0,1,38,1,1323.2000000476837,37,1,1114.5,0,1,experiment,NA,NA,2,0.5,0.5,4,5,173,4,NA
fcp-trial,208,907787,0.0-183.0-0.0,voc_e2,12166,"[{""event"":""blur"",""trial"":1,""time"":163},{""event"":""focus"",""trial"":1,""time"":32156},{""event"":""fullscreenenter"",""trial"":1,""time"":33593}]",NA,NA,NA,NA,NA,6,#D89F1C,#3386FF,10,0,1,38,1,927,37,1,1678.1999999284744,10,1,experiment,NA,NA,1,0.7,0.3,2,3,174,4,NA
fcp-trial,209,910546,0.0-184.0-0.0,voc_e2,12166,"[{""event"":""blur"",""trial"":1,""time"":163},{""event"":""focus"",""trial"":1,""time"":32156},{""event"":""fullscreenenter"",""trial"":1,""time"":33593}]",NA,NA,NA,NA,NA,1,#D89F1C,#3386FF,10,0,1,38,1,673.8999999761581,37,1,581.4000000953674,10,1,experiment,NA,NA,1,0.7,0.3,2,3,175,4,NA
fcp-trial,210,913326,0.0-185.0-0.0,voc_e2,12166,"[{""event"":""blur"",""trial"":1,""time"":163},{""event"":""focus"",""trial"":1,""time"":32156},{""event"":""fullscreenenter"",""trial"":1,""time"":33593}]",NA,NA,NA,NA,NA,3,#D8271C,#741CD8,10,0,1,38,1,727.2000000476837,37,1,547.7000000476837,10,1,experiment,NA,NA,0,0.9,0.1,0,1,176,4,NA
fcp-trial,211,916556,0.0-186.0-0.0,voc_e2,12166,"[{""event"":""blur"",""trial"":1,""time"":163},{""event"":""focus"",""trial"":1,""time"":32156},{""event"":""fullscreenenter"",""trial"":1,""time"":33593}]",NA,NA,NA,NA,NA,1,#FA92F8,#1CD855,10,10,1,38,1,369.10000002384186,39,0,1354.8000000715256,10,0,experiment,NA,NA,2,0.5,0.5,4,5,177,4,NA
fcp-trial,212,919186,0.0-187.0-0.0,voc_e2,12166,"[{""event"":""blur"",""trial"":1,""time"":163},{""event"":""focus"",""trial"":1,""time"":32156},{""event"":""fullscreenenter"",""trial"":1,""time"":33593}]",NA,NA,NA,NA,NA,2,#D89F1C,#3386FF,10,10,1,38,1,475.1999999284744,37,1,651.1000000238419,10,1,experiment,NA,NA,1,0.7,0.3,2,3,178,4,NA
fcp-trial,213,921916,0.0-188.0-0.0,voc_e2,12166,"[{""event"":""blur"",""trial"":1,""time"":163},{""event"":""focus"",""trial"":1,""time"":32156},{""event"":""fullscreenenter"",""trial"":1,""time"":33593}]",NA,NA,NA,NA,NA,4,#D8271C,#741CD8,10,10,1,38,1,423,37,1,801.4000000953674,10,1,experiment,NA,NA,0,0.9,0.1,0,1,179,4,NA
fcp-trial,214,924630,0.0-189.0-0.0,voc_e2,12166,"[{""event"":""blur"",""trial"":1,""time"":163},{""event"":""focus"",""trial"":1,""time"":32156},{""event"":""fullscreenenter"",""trial"":1,""time"":33593}]",NA,NA,NA,NA,NA,3,#1CD855,#FA92F8,10,10,0,38,1,474.10000002384186,37,1,735.3999999761581,10,0,experiment,NA,NA,2,0.5,0.5,5,4,180,4,NA
fcp-trial,215,927037,0.0-190.0-0.0,voc_e2,12166,"[{""event"":""blur"",""trial"":1,""time"":163},{""event"":""focus"",""trial"":1,""time"":32156},{""event"":""fullscreenenter"",""trial"":1,""time"":33593}]",NA,NA,NA,NA,NA,2,#1CD855,#FA92F8,0,0,0,38,1,403.6999999284744,37,1,498.7999999523163,0,0,experiment,NA,NA,2,0.5,0.5,5,4,181,5,NA
fcp-trial,216,929719,0.0-191.0-0.0,voc_e2,12166,"[{""event"":""blur"",""trial"":1,""time"":163},{""event"":""focus"",""trial"":1,""time"":32156},{""event"":""fullscreenenter"",""trial"":1,""time"":33593}]",NA,NA,NA,NA,NA,5,#3386FF,#D89F1C,0,10,0,38,1,320.7999999523163,37,1,856.6999999284744,0,0,experiment,NA,NA,1,0.3,0.7,3,2,182,5,NA
fcp-trial,217,932642,0.0-192.0-0.0,voc_e2,12166,"[{""event"":""blur"",""trial"":1,""time"":163},{""event"":""focus"",""trial"":1,""time"":32156},{""event"":""fullscreenenter"",""trial"":1,""time"":33593}]",NA,NA,NA,NA,NA,5,#FA92F8,#1CD855,10,0,1,38,1,472.39999997615814,37,1,943.2000000476837,10,1,experiment,NA,NA,2,0.5,0.5,4,5,183,5,NA
fcp-trial,218,935351,0.0-193.0-0.0,voc_e2,12166,"[{""event"":""blur"",""trial"":1,""time"":163},{""event"":""focus"",""trial"":1,""time"":32156},{""event"":""fullscreenenter"",""trial"":1,""time"":33593}]",NA,NA,NA,NA,NA,0,#D8271C,#741CD8,10,0,1,38,1,493,37,1,711.2000000476837,10,1,experiment,NA,NA,0,0.9,0.1,0,1,184,5,NA
fcp-trial,219,938036,0.0-194.0-0.0,voc_e2,12166,"[{""event"":""blur"",""trial"":1,""time"":163},{""event"":""focus"",""trial"":1,""time"":32156},{""event"":""fullscreenenter"",""trial"":1,""time"":33593}]",NA,NA,NA,NA,NA,6,#1CD855,#FA92F8,10,10,0,38,1,410.7000000476837,39,0,759.3999999761581,10,1,experiment,NA,NA,2,0.5,0.5,5,4,185,5,NA
fcp-trial,220,941754,0.0-195.0-0.0,voc_e2,12166,"[{""event"":""blur"",""trial"":1,""time"":163},{""event"":""focus"",""trial"":1,""time"":32156},{""event"":""fullscreenenter"",""trial"":1,""time"":33593}]",NA,NA,NA,NA,NA,4,#D89F1C,#3386FF,0,10,1,38,1,713,39,0,1499.6000000238419,10,0,experiment,NA,NA,1,0.7,0.3,2,3,186,5,NA
fcp-trial,221,944528,0.0-196.0-0.0,voc_e2,12166,"[{""event"":""blur"",""trial"":1,""time"":163},{""event"":""focus"",""trial"":1,""time"":32156},{""event"":""fullscreenenter"",""trial"":1,""time"":33593}]",NA,NA,NA,NA,NA,2,#D8271C,#741CD8,10,10,1,38,1,432,37,1,835.1999999284744,10,1,experiment,NA,NA,0,0.9,0.1,0,1,187,5,NA
fcp-trial,222,947125,0.0-197.0-0.0,voc_e2,12166,"[{""event"":""blur"",""trial"":1,""time"":163},{""event"":""focus"",""trial"":1,""time"":32156},{""event"":""fullscreenenter"",""trial"":1,""time"":33593}]",NA,NA,NA,NA,NA,3,#3386FF,#D89F1C,0,0,0,38,1,303,39,0,789.3999999761581,0,1,experiment,NA,NA,1,0.3,0.7,3,2,188,5,NA
fcp-trial,223,949515,0.0-198.0-0.0,voc_e2,12166,"[{""event"":""blur"",""trial"":1,""time"":163},{""event"":""focus"",""trial"":1,""time"":32156},{""event"":""fullscreenenter"",""trial"":1,""time"":33593}]",NA,NA,NA,NA,NA,1,#D8271C,#741CD8,10,0,1,38,1,407.1999999284744,37,1,478.10000002384186,10,1,experiment,NA,NA,0,0.9,0.1,0,1,189,5,NA
fcp-trial,224,951965,0.0-199.0-0.0,voc_e2,12166,"[{""event"":""blur"",""trial"":1,""time"":163},{""event"":""focus"",""trial"":1,""time"":32156},{""event"":""fullscreenenter"",""trial"":1,""time"":33593}]",NA,NA,NA,NA,NA,5,#D8271C,#741CD8,10,0,1,38,1,417.09999990463257,37,1,526.5,10,1,experiment,NA,NA,0,0.9,0.1,0,1,190,5,NA
fcp-trial,225,954305,0.0-200.0-0.0,voc_e2,12166,"[{""event"":""blur"",""trial"":1,""time"":163},{""event"":""focus"",""trial"":1,""time"":32156},{""event"":""fullscreenenter"",""trial"":1,""time"":33593}]",NA,NA,NA,NA,NA,3,#3386FF,#D89F1C,0,10,0,38,1,440.39999997615814,39,0,395.60000002384186,10,1,experiment,NA,NA,1,0.3,0.7,3,2,191,5,NA
fcp-trial,226,956709,0.0-201.0-0.0,voc_e2,12166,"[{""event"":""blur"",""trial"":1,""time"":163},{""event"":""focus"",""trial"":1,""time"":32156},{""event"":""fullscreenenter"",""trial"":1,""time"":33593}]",NA,NA,NA,NA,NA,1,#FA92F8,#1CD855,0,0,1,38,1,408.59999990463257,37,1,489.7000000476837,0,1,experiment,NA,NA,2,0.5,0.5,4,5,192,5,NA
fcp-trial,227,959058,0.0-202.0-0.0,voc_e2,12166,"[{""event"":""blur"",""trial"":1,""time"":163},{""event"":""focus"",""trial"":1,""time"":32156},{""event"":""fullscreenenter"",""trial"":1,""time"":33593}]",NA,NA,NA,NA,NA,4,#FA92F8,#1CD855,0,10,1,38,1,343.5,39,0,500.1999999284744,10,0,experiment,NA,NA,2,0.5,0.5,4,5,193,5,NA
fcp-trial,228,961793,0.0-203.0-0.0,voc_e2,12166,"[{""event"":""blur"",""trial"":1,""time"":163},{""event"":""focus"",""trial"":1,""time"":32156},{""event"":""fullscreenenter"",""trial"":1,""time"":33593}]",NA,NA,NA,NA,NA,1,#3386FF,#D89F1C,0,10,0,38,1,469.60000002384186,37,1,760,0,0,experiment,NA,NA,1,0.3,0.7,3,2,194,5,NA
fcp-trial,229,964160,0.0-204.0-0.0,voc_e2,12166,"[{""event"":""blur"",""trial"":1,""time"":163},{""event"":""focus"",""trial"":1,""time"":32156},{""event"":""fullscreenenter"",""trial"":1,""time"":33593}]",NA,NA,NA,NA,NA,2,#741CD8,#D8271C,0,10,0,38,1,352.39999997615814,39,0,510.10000002384186,10,1,experiment,NA,NA,0,0.1,0.9,1,0,195,5,NA
fcp-trial,230,966523,0.0-205.0-0.0,voc_e2,12166,"[{""event"":""blur"",""trial"":1,""time"":163},{""event"":""focus"",""trial"":1,""time"":32156},{""event"":""fullscreenenter"",""trial"":1,""time"":33593}]",NA,NA,NA,NA,NA,5,#1CD855,#FA92F8,10,10,0,38,1,387.60000002384186,37,1,471.5,10,0,experiment,NA,NA,2,0.5,0.5,5,4,196,5,NA
fcp-trial,231,969228,0.0-206.0-0.0,voc_e2,12166,"[{""event"":""blur"",""trial"":1,""time"":163},{""event"":""focus"",""trial"":1,""time"":32156},{""event"":""fullscreenenter"",""trial"":1,""time"":33593}]",NA,NA,NA,NA,NA,3,#D8271C,#741CD8,10,0,1,38,1,470.7999999523163,37,1,729.6000000238419,10,1,experiment,NA,NA,0,0.9,0.1,0,1,197,5,NA
fcp-trial,232,971738,0.0-207.0-0.0,voc_e2,12166,"[{""event"":""blur"",""trial"":1,""time"":163},{""event"":""focus"",""trial"":1,""time"":32156},{""event"":""fullscreenenter"",""trial"":1,""time"":33593}]",NA,NA,NA,NA,NA,4,#D89F1C,#3386FF,0,0,1,38,1,291.89999997615814,39,0,713.1000000238419,0,0,experiment,NA,NA,1,0.7,0.3,2,3,198,5,NA
fcp-trial,233,975709,0.0-208.0-0.0,voc_e2,12166,"[{""event"":""blur"",""trial"":1,""time"":163},{""event"":""focus"",""trial"":1,""time"":32156},{""event"":""fullscreenenter"",""trial"":1,""time"":33593}]",NA,NA,NA,NA,NA,3,#1CD855,#FA92F8,10,0,0,38,1,1299.5,39,0,1167.3000000715256,0,1,experiment,NA,NA,2,0.5,0.5,5,4,199,5,NA
fcp-trial,234,978130,0.0-209.0-0.0,voc_e2,12166,"[{""event"":""blur"",""trial"":1,""time"":163},{""event"":""focus"",""trial"":1,""time"":32156},{""event"":""fullscreenenter"",""trial"":1,""time"":33593}]",NA,NA,NA,NA,NA,6,#D8271C,#741CD8,10,0,1,38,1,331.3000000715256,37,1,583.5,10,1,experiment,NA,NA,0,0.9,0.1,0,1,200,5,NA
fcp-trial,235,980998,0.0-210.0-0.0,voc_e2,12166,"[{""event"":""blur"",""trial"":1,""time"":163},{""event"":""focus"",""trial"":1,""time"":32156},{""event"":""fullscreenenter"",""trial"":1,""time"":33593}]",NA,NA,NA,NA,NA,4,#741CD8,#D8271C,0,10,0,38,1,493.90000009536743,39,0,866.6999999284744,10,1,experiment,NA,NA,0,0.1,0.9,1,0,201,5,NA
fcp-trial,236,984804,0.0-211.0-0.0,voc_e2,12166,"[{""event"":""blur"",""trial"":1,""time"":163},{""event"":""focus"",""trial"":1,""time"":32156},{""event"":""fullscreenenter"",""trial"":1,""time"":33593}]",NA,NA,NA,NA,NA,2,#3386FF,#D89F1C,10,10,0,38,1,501.8000000715256,39,0,1799.2000000476837,10,1,experiment,NA,NA,1,0.3,0.7,3,2,202,5,NA
fcp-trial,237,989127,0.0-212.0-0.0,voc_e2,12166,"[{""event"":""blur"",""trial"":1,""time"":163},{""event"":""focus"",""trial"":1,""time"":32156},{""event"":""fullscreenenter"",""trial"":1,""time"":33593}]",NA,NA,NA,NA,NA,2,#1CD855,#FA92F8,10,0,0,38,1,452.89999997615814,37,1,2364.1999999284744,10,0,experiment,NA,NA,2,0.5,0.5,5,4,203,5,NA
fcp-trial,238,992601,0.0-213.0-0.0,voc_e2,12166,"[{""event"":""blur"",""trial"":1,""time"":163},{""event"":""focus"",""trial"":1,""time"":32156},{""event"":""fullscreenenter"",""trial"":1,""time"":33593}]",NA,NA,NA,NA,NA,6,#D89F1C,#3386FF,10,0,1,38,1,649.5999999046326,37,1,1319.6000000238419,10,1,experiment,NA,NA,1,0.7,0.3,2,3,204,5,NA
fcp-trial,239,995708,0.0-214.0-0.0,voc_e2,12166,"[{""event"":""blur"",""trial"":1,""time"":163},{""event"":""focus"",""trial"":1,""time"":32156},{""event"":""fullscreenenter"",""trial"":1,""time"":33593}]",NA,NA,NA,NA,NA,0,#D8271C,#741CD8,10,0,1,38,1,410.5,37,1,1190.8999999761581,10,1,experiment,NA,NA,0,0.9,0.1,0,1,205,5,NA
fcp-trial,240,999471,0.0-215.0-0.0,voc_e2,12166,"[{""event"":""blur"",""trial"":1,""time"":163},{""event"":""focus"",""trial"":1,""time"":32156},{""event"":""fullscreenenter"",""trial"":1,""time"":33593}]",NA,NA,NA,NA,NA,0,#1CD855,#FA92F8,10,0,0,38,1,382.3000000715256,39,0,1875.4000000953674,0,1,experiment,NA,NA,2,0.5,0.5,5,4,206,5,NA
fcp-trial,241,1004522,0.0-216.0-0.0,voc_e2,12166,"[{""event"":""blur"",""trial"":1,""time"":163},{""event"":""focus"",""trial"":1,""time"":32156},{""event"":""fullscreenenter"",""trial"":1,""time"":33593}]",NA,NA,NA,NA,NA,1,#741CD8,#D8271C,0,10,0,38,1,3039.7000000476837,39,0,507.2999999523163,10,1,experiment,NA,NA,0,0.1,0.9,1,0,207,5,NA
fcp-trial,242,1008708,0.0-217.0-0.0,voc_e2,12166,"[{""event"":""blur"",""trial"":1,""time"":163},{""event"":""focus"",""trial"":1,""time"":32156},{""event"":""fullscreenenter"",""trial"":1,""time"":33593}]",NA,NA,NA,NA,NA,0,#D89F1C,#3386FF,10,10,1,38,1,605.3000000715256,37,1,2074,10,1,experiment,NA,NA,1,0.7,0.3,2,3,208,5,NA
fcp-trial,243,1011041,0.0-218.0-0.0,voc_e2,12166,"[{""event"":""blur"",""trial"":1,""time"":163},{""event"":""focus"",""trial"":1,""time"":32156},{""event"":""fullscreenenter"",""trial"":1,""time"":33593}]",NA,NA,NA,NA,NA,5,#D89F1C,#3386FF,10,10,1,38,1,380.2999999523163,37,1,448.39999997615814,10,1,experiment,NA,NA,1,0.7,0.3,2,3,209,5,NA
fcp-trial,244,1013724,0.0-219.0-0.0,voc_e2,12166,"[{""event"":""blur"",""trial"":1,""time"":163},{""event"":""focus"",""trial"":1,""time"":32156},{""event"":""fullscreenenter"",""trial"":1,""time"":33593}]",NA,NA,NA,NA,NA,6,#1CD855,#FA92F8,10,10,0,38,1,410.6999999284744,37,1,767,10,0,experiment,NA,NA,2,0.5,0.5,5,4,210,5,NA
audio-instructions,245,1019005,0.0-220.0,voc_e2,12166,"[{""event"":""blur"",""trial"":1,""time"":163},{""event"":""focus"",""trial"":1,""time"":32156},{""event"":""fullscreenenter"",""trial"":1,""time"":33593}]",NA,501.7000000476837,static/audio/pause.wav,NA,0,NA,NA,NA,NA,NA,NA,NA,NA,NA,NA,NA,NA,NA,NA,NA,NA,NA,NA,NA,NA,NA,NA,NA,NA,NA
fcp-trial,246,1024114,0.0-221.0-0.0,voc_e2,12166,"[{""event"":""blur"",""trial"":1,""time"":163},{""event"":""focus"",""trial"":1,""time"":32156},{""event"":""fullscreenenter"",""trial"":1,""time"":33593}]",NA,NA,NA,NA,NA,6,#1CD855,#FA92F8,0,0,0,38,1,3234.6999999284744,37,1,362.7999999523163,0,0,experiment,NA,NA,2,0.5,0.5,5,4,211,5,NA
fcp-trial,247,1027692,0.0-222.0-0.0,voc_e2,12166,"[{""event"":""blur"",""trial"":1,""time"":163},{""event"":""focus"",""trial"":1,""time"":32156},{""event"":""fullscreenenter"",""trial"":1,""time"":33593}]",NA,NA,NA,NA,NA,5,#D89F1C,#3386FF,0,0,1,38,1,431.39999997615814,37,1,1636.5,0,1,experiment,NA,NA,1,0.7,0.3,2,3,212,5,NA
fcp-trial,248,1030056,0.0-223.0-0.0,voc_e2,12166,"[{""event"":""blur"",""trial"":1,""time"":163},{""event"":""focus"",""trial"":1,""time"":32156},{""event"":""fullscreenenter"",""trial"":1,""time"":33593}]",NA,NA,NA,NA,NA,2,#1CD855,#FA92F8,0,0,0,38,1,354.39999997615814,39,0,489.60000002384186,0,1,experiment,NA,NA,2,0.5,0.5,5,4,213,5,NA
fcp-trial,249,1032517,0.0-224.0-0.0,voc_e2,12166,"[{""event"":""blur"",""trial"":1,""time"":163},{""event"":""focus"",""trial"":1,""time"":32156},{""event"":""fullscreenenter"",""trial"":1,""time"":33593}]",NA,NA,NA,NA,NA,1,#1CD855,#FA92F8,0,10,0,38,1,436.10000002384186,37,1,508.2000000476837,0,0,experiment,NA,NA,2,0.5,0.5,5,4,214,5,NA
fcp-trial,250,1034953,0.0-225.0-0.0,voc_e2,12166,"[{""event"":""blur"",""trial"":1,""time"":163},{""event"":""focus"",""trial"":1,""time"":32156},{""event"":""fullscreenenter"",""trial"":1,""time"":33593}]",NA,NA,NA,NA,NA,4,#741CD8,#D8271C,0,10,0,38,1,356.89999997615814,39,0,559.7000000476837,10,1,experiment,NA,NA,0,0.1,0.9,1,0,215,5,NA
fcp-trial,251,1037474,0.0-226.0-0.0,voc_e2,12166,"[{""event"":""blur"",""trial"":1,""time"":163},{""event"":""focus"",""trial"":1,""time"":32156},{""event"":""fullscreenenter"",""trial"":1,""time"":33593}]",NA,NA,NA,NA,NA,0,#FA92F8,#1CD855,10,10,1,38,1,340.10000002384186,37,1,661.2999999523163,10,1,experiment,NA,NA,2,0.5,0.5,4,5,216,5,NA
fcp-trial,252,1041064,0.0-227.0-0.0,voc_e2,12166,"[{""event"":""blur"",""trial"":1,""time"":163},{""event"":""focus"",""trial"":1,""time"":32156},{""event"":""fullscreenenter"",""trial"":1,""time"":33593}]",NA,NA,NA,NA,NA,3,#3386FF,#D89F1C,0,10,0,38,1,1060.1000000238419,39,0,1020.8999999761581,10,1,experiment,NA,NA,1,0.3,0.7,3,2,217,5,NA
fcp-trial,253,1044018,0.0-228.0-0.0,voc_e2,12166,"[{""event"":""blur"",""trial"":1,""time"":163},{""event"":""focus"",""trial"":1,""time"":32156},{""event"":""fullscreenenter"",""trial"":1,""time"":33593}]",NA,NA,NA,NA,NA,2,#D8271C,#741CD8,10,0,1,38,1,688,37,1,745.1999999284744,10,1,experiment,NA,NA,0,0.9,0.1,0,1,218,5,NA
fcp-trial,254,1047190,0.0-229.0-0.0,voc_e2,12166,"[{""event"":""blur"",""trial"":1,""time"":163},{""event"":""focus"",""trial"":1,""time"":32156},{""event"":""fullscreenenter"",""trial"":1,""time"":33593}]",NA,NA,NA,NA,NA,6,#D89F1C,#3386FF,10,0,1,38,1,456,37,1,1197.2000000476837,10,1,experiment,NA,NA,1,0.7,0.3,2,3,219,5,NA
fcp-trial,255,1049627,0.0-230.0-0.0,voc_e2,12166,"[{""event"":""blur"",""trial"":1,""time"":163},{""event"":""focus"",""trial"":1,""time"":32156},{""event"":""fullscreenenter"",""trial"":1,""time"":33593}]",NA,NA,NA,NA,NA,6,#D8271C,#741CD8,0,0,1,38,1,354.8000000715256,37,1,569,0,1,experiment,NA,NA,0,0.9,0.1,0,1,220,5,NA
fcp-trial,256,1052283,0.0-231.0-0.0,voc_e2,12166,"[{""event"":""blur"",""trial"":1,""time"":163},{""event"":""focus"",""trial"":1,""time"":32156},{""event"":""fullscreenenter"",""trial"":1,""time"":33593}]",NA,NA,NA,NA,NA,5,#1CD855,#FA92F8,10,10,0,38,1,317.10000002384186,37,1,832.2999999523163,10,0,experiment,NA,NA,2,0.5,0.5,5,4,221,5,NA
fcp-trial,257,1054569,0.0-232.0-0.0,voc_e2,12166,"[{""event"":""blur"",""trial"":1,""time"":163},{""event"":""focus"",""trial"":1,""time"":32156},{""event"":""fullscreenenter"",""trial"":1,""time"":33593}]",NA,NA,NA,NA,NA,3,#FA92F8,#1CD855,0,0,1,38,1,357.5,39,0,423.39999997615814,0,0,experiment,NA,NA,2,0.5,0.5,4,5,222,5,NA
fcp-trial,258,1056953,0.0-233.0-0.0,voc_e2,12166,"[{""event"":""blur"",""trial"":1,""time"":163},{""event"":""focus"",""trial"":1,""time"":32156},{""event"":""fullscreenenter"",""trial"":1,""time"":33593}]",NA,NA,NA,NA,NA,2,#D89F1C,#3386FF,0,10,1,38,1,385.89999997615814,37,1,492.2000000476837,0,1,experiment,NA,NA,1,0.7,0.3,2,3,223,5,NA
fcp-trial,259,1059358,0.0-234.0-0.0,voc_e2,12166,"[{""event"":""blur"",""trial"":1,""time"":163},{""event"":""focus"",""trial"":1,""time"":32156},{""event"":""fullscreenenter"",""trial"":1,""time"":33593}]",NA,NA,NA,NA,NA,0,#D89F1C,#3386FF,0,0,1,38,1,435.89999997615814,39,0,464.1999999284744,0,0,experiment,NA,NA,1,0.7,0.3,2,3,224,5,NA
fcp-trial,260,1062132,0.0-235.0-0.0,voc_e2,12166,"[{""event"":""blur"",""trial"":1,""time"":163},{""event"":""focus"",""trial"":1,""time"":32156},{""event"":""fullscreenenter"",""trial"":1,""time"":33593}]",NA,NA,NA,NA,NA,3,#D8271C,#741CD8,10,10,1,38,1,537.1000000238419,37,1,730.7999999523163,10,1,experiment,NA,NA,0,0.9,0.1,0,1,225,5,NA
fcp-trial,261,1064789,0.0-236.0-0.0,voc_e2,12166,"[{""event"":""blur"",""trial"":1,""time"":163},{""event"":""focus"",""trial"":1,""time"":32156},{""event"":""fullscreenenter"",""trial"":1,""time"":33593}]",NA,NA,NA,NA,NA,4,#3386FF,#D89F1C,0,0,0,38,1,452.5,37,1,700,0,0,experiment,NA,NA,1,0.3,0.7,3,2,226,6,NA
fcp-trial,262,1067934,0.0-237.0-0.0,voc_e2,12166,"[{""event"":""blur"",""trial"":1,""time"":163},{""event"":""focus"",""trial"":1,""time"":32156},{""event"":""fullscreenenter"",""trial"":1,""time"":33593}]",NA,NA,NA,NA,NA,4,#1CD855,#FA92F8,0,10,0,38,1,321,39,0,1320.5,10,1,experiment,NA,NA,2,0.5,0.5,5,4,227,6,NA
fcp-trial,263,1070375,0.0-238.0-0.0,voc_e2,12166,"[{""event"":""blur"",""trial"":1,""time"":163},{""event"":""focus"",""trial"":1,""time"":32156},{""event"":""fullscreenenter"",""trial"":1,""time"":33593}]",NA,NA,NA,NA,NA,0,#741CD8,#D8271C,0,10,0,38,1,485.7999999523163,37,1,449.7999999523163,0,0,experiment,NA,NA,0,0.1,0.9,1,0,228,6,NA
fcp-trial,264,1072666,0.0-239.0-0.0,voc_e2,12166,"[{""event"":""blur"",""trial"":1,""time"":163},{""event"":""focus"",""trial"":1,""time"":32156},{""event"":""fullscreenenter"",""trial"":1,""time"":33593}]",NA,NA,NA,NA,NA,5,#741CD8,#D8271C,0,10,0,38,1,358.60000002384186,39,0,427.60000002384186,10,1,experiment,NA,NA,0,0.1,0.9,1,0,229,6,NA
fcp-trial,265,1075215,0.0-240.0-0.0,voc_e2,12166,"[{""event"":""blur"",""trial"":1,""time"":163},{""event"":""focus"",""trial"":1,""time"":32156},{""event"":""fullscreenenter"",""trial"":1,""time"":33593}]",NA,NA,NA,NA,NA,1,#D89F1C,#3386FF,10,10,1,38,1,473.6999999284744,37,1,563.6000000238419,10,1,experiment,NA,NA,1,0.7,0.3,2,3,230,6,NA
fcp-trial,266,1078284,0.0-241.0-0.0,voc_e2,12166,"[{""event"":""blur"",""trial"":1,""time"":163},{""event"":""focus"",""trial"":1,""time"":32156},{""event"":""fullscreenenter"",""trial"":1,""time"":33593}]",NA,NA,NA,NA,NA,1,#D8271C,#741CD8,10,10,1,38,1,582.5999999046326,37,1,980.5,10,1,experiment,NA,NA,0,0.9,0.1,0,1,231,6,NA
fcp-trial,267,1081130,0.0-242.0-0.0,voc_e2,12166,"[{""event"":""blur"",""trial"":1,""time"":163},{""event"":""focus"",""trial"":1,""time"":32156},{""event"":""fullscreenenter"",""trial"":1,""time"":33593}]",NA,NA,NA,NA,NA,3,#741CD8,#D8271C,0,10,0,38,1,646.5,39,0,695.2999999523163,10,1,experiment,NA,NA,0,0.1,0.9,1,0,232,6,NA
fcp-trial,268,1083779,0.0-243.0-0.0,voc_e2,12166,"[{""event"":""blur"",""trial"":1,""time"":163},{""event"":""focus"",""trial"":1,""time"":32156},{""event"":""fullscreenenter"",""trial"":1,""time"":33593}]",NA,NA,NA,NA,NA,6,#3386FF,#D89F1C,10,10,0,38,1,531.6000000238419,37,1,612.2999999523163,10,0,experiment,NA,NA,1,0.3,0.7,3,2,233,6,NA
fcp-trial,269,1086473,0.0-244.0-0.0,voc_e2,12166,"[{""event"":""blur"",""trial"":1,""time"":163},{""event"":""focus"",""trial"":1,""time"":32156},{""event"":""fullscreenenter"",""trial"":1,""time"":33593}]",NA,NA,NA,NA,NA,4,#D89F1C,#3386FF,0,0,1,38,1,652.7000000476837,39,0,536.6000000238419,0,0,experiment,NA,NA,1,0.7,0.3,2,3,234,6,NA
fcp-trial,270,1089319,0.0-245.0-0.0,voc_e2,12166,"[{""event"":""blur"",""trial"":1,""time"":163},{""event"":""focus"",""trial"":1,""time"":32156},{""event"":""fullscreenenter"",""trial"":1,""time"":33593}]",NA,NA,NA,NA,NA,3,#FA92F8,#1CD855,0,0,1,38,1,457.2000000476837,39,0,884,0,0,experiment,NA,NA,2,0.5,0.5,4,5,235,6,NA
fcp-trial,271,1092758,0.0-246.0-0.0,voc_e2,12166,"[{""event"":""blur"",""trial"":1,""time"":163},{""event"":""focus"",""trial"":1,""time"":32156},{""event"":""fullscreenenter"",""trial"":1,""time"":33593}]",NA,NA,NA,NA,NA,4,#D8271C,#741CD8,10,0,1,38,1,1591.3999999761581,37,1,342.89999997615814,10,1,experiment,NA,NA,0,0.9,0.1,0,1,236,6,NA
fcp-trial,272,1095241,0.0-247.0-0.0,voc_e2,12166,"[{""event"":""blur"",""trial"":1,""time"":163},{""event"":""focus"",""trial"":1,""time"":32156},{""event"":""fullscreenenter"",""trial"":1,""time"":33593}]",NA,NA,NA,NA,NA,5,#D89F1C,#3386FF,0,10,1,38,1,459,39,0,517.6000000238419,10,0,experiment,NA,NA,1,0.7,0.3,2,3,237,6,NA
fcp-trial,273,1097556,0.0-248.0-0.0,voc_e2,12166,"[{""event"":""blur"",""trial"":1,""time"":163},{""event"":""focus"",""trial"":1,""time"":32156},{""event"":""fullscreenenter"",""trial"":1,""time"":33593}]",NA,NA,NA,NA,NA,1,#3386FF,#D89F1C,0,10,0,38,1,381.6999999284744,37,1,430,0,0,experiment,NA,NA,1,0.3,0.7,3,2,238,6,NA
fcp-trial,274,1100021,0.0-249.0-0.0,voc_e2,12166,"[{""event"":""blur"",""trial"":1,""time"":163},{""event"":""focus"",""trial"":1,""time"":32156},{""event"":""fullscreenenter"",""trial"":1,""time"":33593}]",NA,NA,NA,NA,NA,4,#FA92F8,#1CD855,0,10,1,38,1,380.7000000476837,39,0,579.1000000238419,10,0,experiment,NA,NA,2,0.5,0.5,4,5,239,6,NA
fcp-trial,275,1102437,0.0-250.0-0.0,voc_e2,12166,"[{""event"":""blur"",""trial"":1,""time"":163},{""event"":""focus"",""trial"":1,""time"":32156},{""event"":""fullscreenenter"",""trial"":1,""time"":33593}]",NA,NA,NA,NA,NA,2,#741CD8,#D8271C,0,10,0,38,1,332,39,0,578.7999999523163,10,1,experiment,NA,NA,0,0.1,0.9,1,0,240,6,NA
fcp-trial,276,1104823,0.0-251.0-0.0,voc_e2,12166,"[{""event"":""blur"",""trial"":1,""time"":163},{""event"":""focus"",""trial"":1,""time"":32156},{""event"":""fullscreenenter"",""trial"":1,""time"":33593}]",NA,NA,NA,NA,NA,1,#741CD8,#D8271C,0,10,0,38,1,347.1999999284744,39,0,532.6000000238419,10,1,experiment,NA,NA,0,0.1,0.9,1,0,241,6,NA
fcp-trial,277,1108128,0.0-252.0-0.0,voc_e2,12166,"[{""event"":""blur"",""trial"":1,""time"":163},{""event"":""focus"",""trial"":1,""time"":32156},{""event"":""fullscreenenter"",""trial"":1,""time"":33593}]",NA,NA,NA,NA,NA,3,#3386FF,#D89F1C,0,10,0,38,1,676.2000000476837,37,1,1124.5,0,0,experiment,NA,NA,1,0.3,0.7,3,2,242,6,NA
fcp-trial,278,1110519,0.0-253.0-0.0,voc_e2,12166,"[{""event"":""blur"",""trial"":1,""time"":163},{""event"":""focus"",""trial"":1,""time"":32156},{""event"":""fullscreenenter"",""trial"":1,""time"":33593}]",NA,NA,NA,NA,NA,5,#741CD8,#D8271C,0,10,0,38,1,272.60000002384186,39,0,614.2000000476837,10,1,experiment,NA,NA,0,0.1,0.9,1,0,243,6,NA
fcp-trial,279,1113605,0.0-254.0-0.0,voc_e2,12166,"[{""event"":""blur"",""trial"":1,""time"":163},{""event"":""focus"",""trial"":1,""time"":32156},{""event"":""fullscreenenter"",""trial"":1,""time"":33593}]",NA,NA,NA,NA,NA,6,#FA92F8,#1CD855,0,0,1,38,1,440,39,0,1141.1000000238419,0,0,experiment,NA,NA,2,0.5,0.5,4,5,244,6,NA
fcp-trial,280,1116026,0.0-255.0-0.0,voc_e2,12166,"[{""event"":""blur"",""trial"":1,""time"":163},{""event"":""focus"",""trial"":1,""time"":32156},{""event"":""fullscreenenter"",""trial"":1,""time"":33593}]",NA,NA,NA,NA,NA,2,#1CD855,#FA92F8,0,0,0,38,1,348.60000002384186,37,1,566.2999999523163,0,0,experiment,NA,NA,2,0.5,0.5,5,4,245,6,NA
fcp-trial,281,1118552,0.0-256.0-0.0,voc_e2,12166,"[{""event"":""blur"",""trial"":1,""time"":163},{""event"":""focus"",""trial"":1,""time"":32156},{""event"":""fullscreenenter"",""trial"":1,""time"":33593}]",NA,NA,NA,NA,NA,2,#3386FF,#D89F1C,0,10,0,38,1,393.60000002384186,39,0,627.7000000476837,10,1,experiment,NA,NA,1,0.3,0.7,3,2,246,6,NA
fcp-trial,282,1120934,0.0-257.0-0.0,voc_e2,12166,"[{""event"":""blur"",""trial"":1,""time"":163},{""event"":""focus"",""trial"":1,""time"":32156},{""event"":""fullscreenenter"",""trial"":1,""time"":33593}]",NA,NA,NA,NA,NA,0,#1CD855,#FA92F8,0,10,0,38,1,408.60000002384186,39,0,467.39999997615814,10,1,experiment,NA,NA,2,0.5,0.5,5,4,247,6,NA
fcp-trial,283,1123468,0.0-258.0-0.0,voc_e2,12166,"[{""event"":""blur"",""trial"":1,""time"":163},{""event"":""focus"",""trial"":1,""time"":32156},{""event"":""fullscreenenter"",""trial"":1,""time"":33593}]",NA,NA,NA,NA,NA,0,#741CD8,#D8271C,0,10,0,38,1,379.10000002384186,39,0,650.6000000238419,10,1,experiment,NA,NA,0,0.1,0.9,1,0,248,6,NA
fcp-trial,284,1125792,0.0-259.0-0.0,voc_e2,12166,"[{""event"":""blur"",""trial"":1,""time"":163},{""event"":""focus"",""trial"":1,""time"":32156},{""event"":""fullscreenenter"",""trial"":1,""time"":33593}]",NA,NA,NA,NA,NA,6,#741CD8,#D8271C,0,10,0,38,1,311.39999997615814,39,0,506,10,1,experiment,NA,NA,0,0.1,0.9,1,0,249,6,NA
fcp-trial,285,1128328,0.0-260.0-0.0,voc_e2,12166,"[{""event"":""blur"",""trial"":1,""time"":163},{""event"":""focus"",""trial"":1,""time"":32156},{""event"":""fullscreenenter"",""trial"":1,""time"":33593}]",NA,NA,NA,NA,NA,5,#FA92F8,#1CD855,10,10,1,38,1,366.5,37,1,665.3999999761581,10,1,experiment,NA,NA,2,0.5,0.5,4,5,250,6,NA
fcp-trial,286,1132446,0.0-261.0-0.0,voc_e2,12166,"[{""event"":""blur"",""trial"":1,""time"":163},{""event"":""focus"",""trial"":1,""time"":32156},{""event"":""fullscreenenter"",""trial"":1,""time"":33593}]",NA,NA,NA,NA,NA,0,#3386FF,#D89F1C,0,10,0,38,1,392.3000000715256,37,1,2221.2999999523163,0,0,experiment,NA,NA,1,0.3,0.7,3,2,251,6,NA
fcp-trial,287,1135166,0.0-262.0-0.0,voc_e2,12166,"[{""event"":""blur"",""trial"":1,""time"":163},{""event"":""focus"",""trial"":1,""time"":32156},{""event"":""fullscreenenter"",""trial"":1,""time"":33593}]",NA,NA,NA,NA,NA,1,#1CD855,#FA92F8,10,0,0,38,1,364.89999997615814,37,1,849.8999999761581,10,0,experiment,NA,NA,2,0.5,0.5,5,4,252,6,NA
fcp-trial,288,1137584,0.0-263.0-0.0,voc_e2,12166,"[{""event"":""blur"",""trial"":1,""time"":163},{""event"":""focus"",""trial"":1,""time"":32156},{""event"":""fullscreenenter"",""trial"":1,""time"":33593}]",NA,NA,NA,NA,NA,4,#D89F1C,#3386FF,0,0,1,38,1,391.60000002384186,39,0,522.1000000238419,0,0,experiment,NA,NA,1,0.7,0.3,2,3,253,6,NA
fcp-trial,289,1140306,0.0-264.0-0.0,voc_e2,12166,"[{""event"":""blur"",""trial"":1,""time"":163},{""event"":""focus"",""trial"":1,""time"":32156},{""event"":""fullscreenenter"",""trial"":1,""time"":33593}]",NA,NA,NA,NA,NA,2,#D8271C,#741CD8,10,0,1,38,1,412.09999990463257,37,1,802.8999999761581,10,1,experiment,NA,NA,0,0.9,0.1,0,1,254,6,NA
fcp-trial,290,1143004,0.0-265.0-0.0,voc_e2,12166,"[{""event"":""blur"",""trial"":1,""time"":163},{""event"":""focus"",""trial"":1,""time"":32156},{""event"":""fullscreenenter"",""trial"":1,""time"":33593}]",NA,NA,NA,NA,NA,4,#1CD855,#FA92F8,10,0,0,38,1,431.6999999284744,37,1,760.8999999761581,10,0,experiment,NA,NA,2,0.5,0.5,5,4,255,6,NA
fcp-trial,291,1145432,0.0-266.0-0.0,voc_e2,12166,"[{""event"":""blur"",""trial"":1,""time"":163},{""event"":""focus"",""trial"":1,""time"":32156},{""event"":""fullscreenenter"",""trial"":1,""time"":33593}]",NA,NA,NA,NA,NA,6,#D8271C,#741CD8,10,0,1,38,1,393.39999997615814,37,1,531.3999999761581,10,1,experiment,NA,NA,0,0.9,0.1,0,1,256,6,NA
fcp-trial,292,1147732,0.0-267.0-0.0,voc_e2,12166,"[{""event"":""blur"",""trial"":1,""time"":163},{""event"":""focus"",""trial"":1,""time"":32156},{""event"":""fullscreenenter"",""trial"":1,""time"":33593}]",NA,NA,NA,NA,NA,1,#D89F1C,#3386FF,10,0,1,38,1,386.7999999523163,39,0,406.7000000476837,0,0,experiment,NA,NA,1,0.7,0.3,2,3,257,6,NA
fcp-trial,293,1150138,0.0-268.0-0.0,voc_e2,12166,"[{""event"":""blur"",""trial"":1,""time"":163},{""event"":""focus"",""trial"":1,""time"":32156},{""event"":""fullscreenenter"",""trial"":1,""time"":33593}]",NA,NA,NA,NA,NA,2,#FA92F8,#1CD855,0,10,1,38,1,267,37,1,633.3999999761581,0,1,experiment,NA,NA,2,0.5,0.5,4,5,258,6,NA
fcp-trial,294,1153231,0.0-269.0-0.0,voc_e2,12166,"[{""event"":""blur"",""trial"":1,""time"":163},{""event"":""focus"",""trial"":1,""time"":32156},{""event"":""fullscreenenter"",""trial"":1,""time"":33593}]",NA,NA,NA,NA,NA,3,#D89F1C,#3386FF,10,0,1,38,1,848.6999999284744,37,1,739.1000000238419,10,1,experiment,NA,NA,1,0.7,0.3,2,3,259,6,NA
fcp-trial,295,1156278,0.0-270.0-0.0,voc_e2,12166,"[{""event"":""blur"",""trial"":1,""time"":163},{""event"":""focus"",""trial"":1,""time"":32156},{""event"":""fullscreenenter"",""trial"":1,""time"":33593}]",NA,NA,NA,NA,NA,6,#3386FF,#D89F1C,10,10,0,38,1,1024.1000000238419,37,1,517.3999999761581,10,0,experiment,NA,NA,1,0.3,0.7,3,2,260,6,NA
fcp-trial,296,1159061,0.0-271.0-0.0,voc_e2,12166,"[{""event"":""blur"",""trial"":1,""time"":163},{""event"":""focus"",""trial"":1,""time"":32156},{""event"":""fullscreenenter"",""trial"":1,""time"":33593}]",NA,NA,NA,NA,NA,3,#D8271C,#741CD8,10,10,1,38,1,485.1999999284744,37,1,792.3000000715256,10,1,experiment,NA,NA,0,0.9,0.1,0,1,261,6,NA
fcp-trial,297,1161726,0.0-272.0-0.0,voc_e2,12166,"[{""event"":""blur"",""trial"":1,""time"":163},{""event"":""focus"",""trial"":1,""time"":32156},{""event"":""fullscreenenter"",""trial"":1,""time"":33593}]",NA,NA,NA,NA,NA,0,#FA92F8,#1CD855,10,0,1,38,1,370,39,0,789.2000000476837,0,0,experiment,NA,NA,2,0.5,0.5,4,5,262,6,NA
fcp-trial,298,1164145,0.0-273.0-0.0,voc_e2,12166,"[{""event"":""blur"",""trial"":1,""time"":163},{""event"":""focus"",""trial"":1,""time"":32156},{""event"":""fullscreenenter"",""trial"":1,""time"":33593}]",NA,NA,NA,NA,NA,5,#1CD855,#FA92F8,10,10,0,38,1,431.5,37,1,483.7000000476837,10,0,experiment,NA,NA,2,0.5,0.5,5,4,263,6,NA
fcp-trial,299,1166431,0.0-274.0-0.0,voc_e2,12166,"[{""event"":""blur"",""trial"":1,""time"":163},{""event"":""focus"",""trial"":1,""time"":32156},{""event"":""fullscreenenter"",""trial"":1,""time"":33593}]",NA,NA,NA,NA,NA,2,#3386FF,#D89F1C,0,10,0,38,1,410.7999999523163,37,1,369.7000000476837,0,0,experiment,NA,NA,1,0.3,0.7,3,2,264,6,NA
