trial_type,trial_index,time_elapsed,internal_node_id,task_version,subject_id,interactions,success,rt,stimulus,key_press,button_pressed,offer,arcade_color_L,arcade_color_R,arcade_outcome_L,arcade_outcome_R,correct,stage_1_key,stage_1_choice,stage_1_rt,stage_2_key,stage_2_choice,stage_2_rt,stage_3_outcome,accuracy,phase,responses,num_errors,context,reward_prob_L,reward_prob_R,arcade_id_L,arcade_id_R,trial,block,response
pavlovia,0,3,0.0-0.0,voc_e2,12050,[],NA,NA,NA,NA,NA,NA,NA,NA,NA,NA,NA,NA,NA,NA,NA,NA,NA,NA,NA,NA,NA,NA,NA,NA,NA,NA,NA,NA,NA,NA
fullscreen,1,7562,0.0-1.0,voc_e2,12050,"[{""event"":""fullscreenenter"",""trial"":1,""time"":6584}]",TRUE,NA,NA,NA,NA,NA,NA,NA,NA,NA,NA,NA,NA,NA,NA,NA,NA,NA,NA,NA,NA,NA,NA,NA,NA,NA,NA,NA,NA,NA
audio-keyboard-response,2,19234,0.0-2.0,voc_e2,12050,"[{""event"":""fullscreenenter"",""trial"":1,""time"":6584}]",NA,11651,static/audio/beep_loop.wav,32,NA,NA,NA,NA,NA,NA,NA,NA,NA,NA,NA,NA,NA,NA,NA,NA,NA,NA,NA,NA,NA,NA,NA,NA,NA,NA
audio-test,3,22994,0.0-3.0,voc_e2,12050,"[{""event"":""fullscreenenter"",""trial"":1,""time"":6584}]",NA,NA,static/audio/turtle.wav,NA,3,NA,NA,NA,NA,NA,NA,NA,NA,NA,NA,NA,NA,NA,NA,NA,NA,NA,NA,NA,NA,NA,NA,NA,NA,NA
audio-test,4,25831,0.0-4.0,voc_e2,12050,"[{""event"":""fullscreenenter"",""trial"":1,""time"":6584}]",NA,NA,static/audio/shark.wav,NA,2,NA,NA,NA,NA,NA,NA,NA,NA,NA,NA,NA,NA,NA,NA,NA,NA,NA,NA,NA,NA,NA,NA,NA,NA,NA
audio-instructions,5,35553,0.0-5.0-0.0,voc_e2,12050,"[{""event"":""fullscreenenter"",""trial"":1,""time"":6584}]",NA,3940.900000005961,static/audio/instructions1.wav,NA,0,NA,NA,NA,NA,NA,NA,NA,NA,NA,NA,NA,NA,NA,NA,NA,NA,NA,NA,NA,NA,NA,NA,NA,NA,NA
audio-instructions,6,44510,0.0-5.0-1.0,voc_e2,12050,"[{""event"":""fullscreenenter"",""trial"":1,""time"":6584}]",NA,2212.300000011921,static/audio/instructions2.wav,NA,0,NA,NA,NA,NA,NA,NA,NA,NA,NA,NA,NA,NA,NA,NA,NA,NA,NA,NA,NA,NA,NA,NA,NA,NA,NA
audio-instructions,7,51806,0.0-5.0-2.0,voc_e2,12050,"[{""event"":""fullscreenenter"",""trial"":1,""time"":6584}]",NA,1491.0999999940395,static/audio/instructions3.wav,NA,0,NA,NA,NA,NA,NA,NA,NA,NA,NA,NA,NA,NA,NA,NA,NA,NA,NA,NA,NA,NA,NA,NA,NA,NA,NA
audio-instructions,8,70711,0.0-5.0-3.0,voc_e2,12050,"[{""event"":""fullscreenenter"",""trial"":1,""time"":6584}]",NA,5675.9000000059605,static/audio/instructions4.wav,NA,0,NA,NA,NA,NA,NA,NA,NA,NA,NA,NA,NA,NA,NA,NA,NA,NA,NA,NA,NA,NA,NA,NA,NA,NA,NA
audio-instructions,9,82109,0.0-5.0-4.0,voc_e2,12050,"[{""event"":""fullscreenenter"",""trial"":1,""time"":6584}]",NA,2010,static/audio/instructions5.wav,NA,0,NA,NA,NA,NA,NA,NA,NA,NA,NA,NA,NA,NA,NA,NA,NA,NA,NA,NA,NA,NA,NA,NA,NA,NA,NA
fcp-practice,10,252511,0.0-5.0-5.0-0.0,voc_e2,12050,"[{""event"":""fullscreenenter"",""trial"":1,""time"":6584},{""event"":""blur"",""trial"":10,""time"":125222},{""event"":""focus"",""trial"":10,""time"":126137},{""event"":""blur"",""trial"":10,""time"":145978},{""event"":""focus"",""trial"":10,""time"":149943}]",NA,NA,NA,NA,NA,NA,#EDC948,#46d3c8,10,0,1,null,null,null,37,1,168894.29999998212,10,1,practice,NA,NA,NA,NA,NA,NA,NA,NA,NA,NA
fcp-practice,11,262523,0.0-5.0-5.0-1.0,voc_e2,12050,"[{""event"":""fullscreenenter"",""trial"":1,""time"":6584},{""event"":""blur"",""trial"":10,""time"":125222},{""event"":""focus"",""trial"":10,""time"":126137},{""event"":""blur"",""trial"":10,""time"":145978},{""event"":""focus"",""trial"":10,""time"":149943}]",NA,NA,NA,NA,NA,NA,#EDC948,#46d3c8,10,0,1,null,null,null,37,1,8503.59999999404,10,1,practice,NA,NA,NA,NA,NA,NA,NA,NA,NA,NA
fcp-practice,12,265875,0.0-5.0-5.0-2.0,voc_e2,12050,"[{""event"":""fullscreenenter"",""trial"":1,""time"":6584},{""event"":""blur"",""trial"":10,""time"":125222},{""event"":""focus"",""trial"":10,""time"":126137},{""event"":""blur"",""trial"":10,""time"":145978},{""event"":""focus"",""trial"":10,""time"":149943}]",NA,NA,NA,NA,NA,NA,#EDC948,#46d3c8,0,10,1,null,null,null,37,1,1847.5,0,1,practice,NA,NA,NA,NA,NA,NA,NA,NA,NA,NA
fcp-practice,13,269135,0.0-5.0-5.0-3.0,voc_e2,12050,"[{""event"":""fullscreenenter"",""trial"":1,""time"":6584},{""event"":""blur"",""trial"":10,""time"":125222},{""event"":""focus"",""trial"":10,""time"":126137},{""event"":""blur"",""trial"":10,""time"":145978},{""event"":""focus"",""trial"":10,""time"":149943}]",NA,NA,NA,NA,NA,NA,#EDC948,#46d3c8,10,0,1,null,null,null,37,1,1754.5999999940395,10,1,practice,NA,NA,NA,NA,NA,NA,NA,NA,NA,NA
fcp-practice,14,273427,0.0-5.0-5.0-4.0,voc_e2,12050,"[{""event"":""fullscreenenter"",""trial"":1,""time"":6584},{""event"":""blur"",""trial"":10,""time"":125222},{""event"":""focus"",""trial"":10,""time"":126137},{""event"":""blur"",""trial"":10,""time"":145978},{""event"":""focus"",""trial"":10,""time"":149943}]",NA,NA,NA,NA,NA,NA,#EDC948,#46d3c8,10,0,1,null,null,null,37,1,2785.199999988079,10,1,practice,NA,NA,NA,NA,NA,NA,NA,NA,NA,NA
audio-instructions,15,298726,0.0-5.0-6.0,voc_e2,12050,"[{""event"":""fullscreenenter"",""trial"":1,""time"":6584},{""event"":""blur"",""trial"":10,""time"":125222},{""event"":""focus"",""trial"":10,""time"":126137},{""event"":""blur"",""trial"":10,""time"":145978},{""event"":""focus"",""trial"":10,""time"":149943}]",NA,7246.59999999404,static/audio/instructions6.wav,NA,0,NA,NA,NA,NA,NA,NA,NA,NA,NA,NA,NA,NA,NA,NA,NA,NA,NA,NA,NA,NA,NA,NA,NA,NA,NA
audio-instructions,16,319338,0.0-5.0-7.0,voc_e2,12050,"[{""event"":""fullscreenenter"",""trial"":1,""time"":6584},{""event"":""blur"",""trial"":10,""time"":125222},{""event"":""focus"",""trial"":10,""time"":126137},{""event"":""blur"",""trial"":10,""time"":145978},{""event"":""focus"",""trial"":10,""time"":149943}]",NA,1411.899999976158,static/audio/instructions7.wav,NA,0,NA,NA,NA,NA,NA,NA,NA,NA,NA,NA,NA,NA,NA,NA,NA,NA,NA,NA,NA,NA,NA,NA,NA,NA,NA
audio-instructions,17,331281,0.0-5.0-8.0,voc_e2,12050,"[{""event"":""fullscreenenter"",""trial"":1,""time"":6584},{""event"":""blur"",""trial"":10,""time"":125222},{""event"":""focus"",""trial"":10,""time"":126137},{""event"":""blur"",""trial"":10,""time"":145978},{""event"":""focus"",""trial"":10,""time"":149943}]",NA,2470.4000000059605,static/audio/instructions8.wav,NA,0,NA,NA,NA,NA,NA,NA,NA,NA,NA,NA,NA,NA,NA,NA,NA,NA,NA,NA,NA,NA,NA,NA,NA,NA,NA
fcp-comprehension,18,392732,0.0-5.0-9.0,voc_e2,12050,"[{""event"":""fullscreenenter"",""trial"":1,""time"":6584},{""event"":""blur"",""trial"":10,""time"":125222},{""event"":""focus"",""trial"":10,""time"":126137},{""event"":""blur"",""trial"":10,""time"":145978},{""event"":""focus"",""trial"":10,""time"":149943}]",NA,61451,NA,NA,NA,NA,NA,NA,NA,NA,NA,NA,NA,NA,NA,NA,NA,NA,NA,NA,"false,true",1,NA,NA,NA,NA,NA,NA,NA,NA
audio-instructions,19,399881,0.0-5.1-0.1,voc_e2,12050,"[{""event"":""fullscreenenter"",""trial"":1,""time"":6584},{""event"":""blur"",""trial"":10,""time"":125222},{""event"":""focus"",""trial"":10,""time"":126137},{""event"":""blur"",""trial"":10,""time"":145978},{""event"":""focus"",""trial"":10,""time"":149943}]",NA,2316.300000011921,static/audio/instructions1.wav,NA,0,NA,NA,NA,NA,NA,NA,NA,NA,NA,NA,NA,NA,NA,NA,NA,NA,NA,NA,NA,NA,NA,NA,NA,NA,NA
audio-instructions,20,408705,0.0-5.1-1.1,voc_e2,12050,"[{""event"":""fullscreenenter"",""trial"":1,""time"":6584},{""event"":""blur"",""trial"":10,""time"":125222},{""event"":""focus"",""trial"":10,""time"":126137},{""event"":""blur"",""trial"":10,""time"":145978},{""event"":""focus"",""trial"":10,""time"":149943}]",NA,2078.2999999821186,static/audio/instructions2.wav,NA,0,NA,NA,NA,NA,NA,NA,NA,NA,NA,NA,NA,NA,NA,NA,NA,NA,NA,NA,NA,NA,NA,NA,NA,NA,NA
audio-instructions,21,419618,0.0-5.1-2.1,voc_e2,12050,"[{""event"":""fullscreenenter"",""trial"":1,""time"":6584},{""event"":""blur"",""trial"":10,""time"":125222},{""event"":""focus"",""trial"":10,""time"":126137},{""event"":""blur"",""trial"":10,""time"":145978},{""event"":""focus"",""trial"":10,""time"":149943}]",NA,5108.299999982119,static/audio/instructions3.wav,NA,0,NA,NA,NA,NA,NA,NA,NA,NA,NA,NA,NA,NA,NA,NA,NA,NA,NA,NA,NA,NA,NA,NA,NA,NA,NA
audio-instructions,22,441967,0.0-5.1-3.1,voc_e2,12050,"[{""event"":""fullscreenenter"",""trial"":1,""time"":6584},{""event"":""blur"",""trial"":10,""time"":125222},{""event"":""focus"",""trial"":10,""time"":126137},{""event"":""blur"",""trial"":10,""time"":145978},{""event"":""focus"",""trial"":10,""time"":149943}]",NA,9120.30000001192,static/audio/instructions4.wav,NA,0,NA,NA,NA,NA,NA,NA,NA,NA,NA,NA,NA,NA,NA,NA,NA,NA,NA,NA,NA,NA,NA,NA,NA,NA,NA
audio-instructions,23,452680,0.0-5.1-4.1,voc_e2,12050,"[{""event"":""fullscreenenter"",""trial"":1,""time"":6584},{""event"":""blur"",""trial"":10,""time"":125222},{""event"":""focus"",""trial"":10,""time"":126137},{""event"":""blur"",""trial"":10,""time"":145978},{""event"":""focus"",""trial"":10,""time"":149943}]",NA,1327.0999999940395,static/audio/instructions5.wav,NA,0,NA,NA,NA,NA,NA,NA,NA,NA,NA,NA,NA,NA,NA,NA,NA,NA,NA,NA,NA,NA,NA,NA,NA,NA,NA
fcp-practice,24,455051,0.0-5.1-5.1-0.1,voc_e2,12050,"[{""event"":""fullscreenenter"",""trial"":1,""time"":6584},{""event"":""blur"",""trial"":10,""time"":125222},{""event"":""focus"",""trial"":10,""time"":126137},{""event"":""blur"",""trial"":10,""time"":145978},{""event"":""focus"",""trial"":10,""time"":149943}]",NA,NA,NA,NA,NA,NA,#EDC948,#46d3c8,10,0,1,null,null,null,37,1,868,10,1,practice,NA,NA,NA,NA,NA,NA,NA,NA,NA,NA
fcp-practice,25,457688,0.0-5.1-5.1-1.1,voc_e2,12050,"[{""event"":""fullscreenenter"",""trial"":1,""time"":6584},{""event"":""blur"",""trial"":10,""time"":125222},{""event"":""focus"",""trial"":10,""time"":126137},{""event"":""blur"",""trial"":10,""time"":145978},{""event"":""focus"",""trial"":10,""time"":149943}]",NA,NA,NA,NA,NA,NA,#EDC948,#46d3c8,10,0,1,null,null,null,37,1,1129.4000000059605,10,1,practice,NA,NA,NA,NA,NA,NA,NA,NA,NA,NA
fcp-practice,26,459312,0.0-5.1-5.1-2.1,voc_e2,12050,"[{""event"":""fullscreenenter"",""trial"":1,""time"":6584},{""event"":""blur"",""trial"":10,""time"":125222},{""event"":""focus"",""trial"":10,""time"":126137},{""event"":""blur"",""trial"":10,""time"":145978},{""event"":""focus"",""trial"":10,""time"":149943}]",NA,NA,NA,NA,NA,NA,#EDC948,#46d3c8,0,10,1,null,null,null,37,1,118.7999999821186,0,1,practice,NA,NA,NA,NA,NA,NA,NA,NA,NA,NA
fcp-practice,27,461203,0.0-5.1-5.1-3.1,voc_e2,12050,"[{""event"":""fullscreenenter"",""trial"":1,""time"":6584},{""event"":""blur"",""trial"":10,""time"":125222},{""event"":""focus"",""trial"":10,""time"":126137},{""event"":""blur"",""trial"":10,""time"":145978},{""event"":""focus"",""trial"":10,""time"":149943}]",NA,NA,NA,NA,NA,NA,#EDC948,#46d3c8,10,0,1,null,null,null,37,1,386.2000000178814,10,1,practice,NA,NA,NA,NA,NA,NA,NA,NA,NA,NA
fcp-practice,28,463591,0.0-5.1-5.1-4.1,voc_e2,12050,"[{""event"":""fullscreenenter"",""trial"":1,""time"":6584},{""event"":""blur"",""trial"":10,""time"":125222},{""event"":""focus"",""trial"":10,""time"":126137},{""event"":""blur"",""trial"":10,""time"":145978},{""event"":""focus"",""trial"":10,""time"":149943}]",NA,NA,NA,NA,NA,NA,#EDC948,#46d3c8,10,0,1,null,null,null,37,1,882.6999999880791,10,1,practice,NA,NA,NA,NA,NA,NA,NA,NA,NA,NA
audio-instructions,29,483534,0.0-5.1-6.1,voc_e2,12050,"[{""event"":""fullscreenenter"",""trial"":1,""time"":6584},{""event"":""blur"",""trial"":10,""time"":125222},{""event"":""focus"",""trial"":10,""time"":126137},{""event"":""blur"",""trial"":10,""time"":145978},{""event"":""focus"",""trial"":10,""time"":149943}]",NA,1938.300000011921,static/audio/instructions6.wav,NA,0,NA,NA,NA,NA,NA,NA,NA,NA,NA,NA,NA,NA,NA,NA,NA,NA,NA,NA,NA,NA,NA,NA,NA,NA,NA
audio-instructions,30,503870,0.0-5.1-7.1,voc_e2,12050,"[{""event"":""fullscreenenter"",""trial"":1,""time"":6584},{""event"":""blur"",""trial"":10,""time"":125222},{""event"":""focus"",""trial"":10,""time"":126137},{""event"":""blur"",""trial"":10,""time"":145978},{""event"":""focus"",""trial"":10,""time"":149943}]",NA,1133.5,static/audio/instructions7.wav,NA,0,NA,NA,NA,NA,NA,NA,NA,NA,NA,NA,NA,NA,NA,NA,NA,NA,NA,NA,NA,NA,NA,NA,NA,NA,NA
audio-instructions,31,515101,0.0-5.1-8.1,voc_e2,12050,"[{""event"":""fullscreenenter"",""trial"":1,""time"":6584},{""event"":""blur"",""trial"":10,""time"":125222},{""event"":""focus"",""trial"":10,""time"":126137},{""event"":""blur"",""trial"":10,""time"":145978},{""event"":""focus"",""trial"":10,""time"":149943}]",NA,1759.4000000059605,static/audio/instructions8.wav,NA,0,NA,NA,NA,NA,NA,NA,NA,NA,NA,NA,NA,NA,NA,NA,NA,NA,NA,NA,NA,NA,NA,NA,NA,NA,NA
fcp-comprehension,32,525985,0.0-5.1-9.1,voc_e2,12050,"[{""event"":""fullscreenenter"",""trial"":1,""time"":6584},{""event"":""blur"",""trial"":10,""time"":125222},{""event"":""focus"",""trial"":10,""time"":126137},{""event"":""blur"",""trial"":10,""time"":145978},{""event"":""focus"",""trial"":10,""time"":149943}]",NA,10882.59999999404,NA,NA,NA,NA,NA,NA,NA,NA,NA,NA,NA,NA,NA,NA,NA,NA,NA,NA,"false,true",1,NA,NA,NA,NA,NA,NA,NA,NA
audio-instructions,33,532012,0.0-5.2-0.2,voc_e2,12050,"[{""event"":""fullscreenenter"",""trial"":1,""time"":6584},{""event"":""blur"",""trial"":10,""time"":125222},{""event"":""focus"",""trial"":10,""time"":126137},{""event"":""blur"",""trial"":10,""time"":145978},{""event"":""focus"",""trial"":10,""time"":149943}]",NA,1244.0999999940395,static/audio/instructions1.wav,NA,0,NA,NA,NA,NA,NA,NA,NA,NA,NA,NA,NA,NA,NA,NA,NA,NA,NA,NA,NA,NA,NA,NA,NA,NA,NA
audio-instructions,34,541692,0.0-5.2-1.2,voc_e2,12050,"[{""event"":""fullscreenenter"",""trial"":1,""time"":6584},{""event"":""blur"",""trial"":10,""time"":125222},{""event"":""focus"",""trial"":10,""time"":126137},{""event"":""blur"",""trial"":10,""time"":145978},{""event"":""focus"",""trial"":10,""time"":149943}]",NA,2936.5999999940395,static/audio/instructions2.wav,NA,0,NA,NA,NA,NA,NA,NA,NA,NA,NA,NA,NA,NA,NA,NA,NA,NA,NA,NA,NA,NA,NA,NA,NA,NA,NA
audio-instructions,35,553022,0.0-5.2-2.2,voc_e2,12050,"[{""event"":""fullscreenenter"",""trial"":1,""time"":6584},{""event"":""blur"",""trial"":10,""time"":125222},{""event"":""focus"",""trial"":10,""time"":126137},{""event"":""blur"",""trial"":10,""time"":145978},{""event"":""focus"",""trial"":10,""time"":149943}]",NA,5524.199999988079,static/audio/instructions3.wav,NA,0,NA,NA,NA,NA,NA,NA,NA,NA,NA,NA,NA,NA,NA,NA,NA,NA,NA,NA,NA,NA,NA,NA,NA,NA,NA
audio-instructions,36,568487,0.0-5.2-3.2,voc_e2,12050,"[{""event"":""fullscreenenter"",""trial"":1,""time"":6584},{""event"":""blur"",""trial"":10,""time"":125222},{""event"":""focus"",""trial"":10,""time"":126137},{""event"":""blur"",""trial"":10,""time"":145978},{""event"":""focus"",""trial"":10,""time"":149943}]",NA,2240.5999999940395,static/audio/instructions4.wav,NA,0,NA,NA,NA,NA,NA,NA,NA,NA,NA,NA,NA,NA,NA,NA,NA,NA,NA,NA,NA,NA,NA,NA,NA,NA,NA
audio-instructions,37,579977,0.0-5.2-4.2,voc_e2,12050,"[{""event"":""fullscreenenter"",""trial"":1,""time"":6584},{""event"":""blur"",""trial"":10,""time"":125222},{""event"":""focus"",""trial"":10,""time"":126137},{""event"":""blur"",""trial"":10,""time"":145978},{""event"":""focus"",""trial"":10,""time"":149943}]",NA,2103.2000000178814,static/audio/instructions5.wav,NA,0,NA,NA,NA,NA,NA,NA,NA,NA,NA,NA,NA,NA,NA,NA,NA,NA,NA,NA,NA,NA,NA,NA,NA,NA,NA
fcp-practice,38,582340,0.0-5.2-5.2-0.2,voc_e2,12050,"[{""event"":""fullscreenenter"",""trial"":1,""time"":6584},{""event"":""blur"",""trial"":10,""time"":125222},{""event"":""focus"",""trial"":10,""time"":126137},{""event"":""blur"",""trial"":10,""time"":145978},{""event"":""focus"",""trial"":10,""time"":149943}]",NA,NA,NA,NA,NA,NA,#EDC948,#46d3c8,10,0,1,null,null,null,37,1,856.1999999880791,10,1,practice,NA,NA,NA,NA,NA,NA,NA,NA,NA,NA
fcp-practice,39,584032,0.0-5.2-5.2-1.2,voc_e2,12050,"[{""event"":""fullscreenenter"",""trial"":1,""time"":6584},{""event"":""blur"",""trial"":10,""time"":125222},{""event"":""focus"",""trial"":10,""time"":126137},{""event"":""blur"",""trial"":10,""time"":145978},{""event"":""focus"",""trial"":10,""time"":149943}]",NA,NA,NA,NA,NA,NA,#EDC948,#46d3c8,10,0,1,null,null,null,37,1,187.09999999403954,10,1,practice,NA,NA,NA,NA,NA,NA,NA,NA,NA,NA
fcp-practice,40,585589,0.0-5.2-5.2-2.2,voc_e2,12050,"[{""event"":""fullscreenenter"",""trial"":1,""time"":6584},{""event"":""blur"",""trial"":10,""time"":125222},{""event"":""focus"",""trial"":10,""time"":126137},{""event"":""blur"",""trial"":10,""time"":145978},{""event"":""focus"",""trial"":10,""time"":149943}]",NA,NA,NA,NA,NA,NA,#EDC948,#46d3c8,0,10,1,null,null,null,37,1,51.900000005960464,0,1,practice,NA,NA,NA,NA,NA,NA,NA,NA,NA,NA
fcp-practice,41,587157,0.0-5.2-5.2-3.2,voc_e2,12050,"[{""event"":""fullscreenenter"",""trial"":1,""time"":6584},{""event"":""blur"",""trial"":10,""time"":125222},{""event"":""focus"",""trial"":10,""time"":126137},{""event"":""blur"",""trial"":10,""time"":145978},{""event"":""focus"",""trial"":10,""time"":149943}]",NA,NA,NA,NA,NA,NA,#EDC948,#46d3c8,10,0,1,null,null,null,37,1,62.89999997615814,10,1,practice,NA,NA,NA,NA,NA,NA,NA,NA,NA,NA
fcp-practice,42,589183,0.0-5.2-5.2-4.2,voc_e2,12050,"[{""event"":""fullscreenenter"",""trial"":1,""time"":6584},{""event"":""blur"",""trial"":10,""time"":125222},{""event"":""focus"",""trial"":10,""time"":126137},{""event"":""blur"",""trial"":10,""time"":145978},{""event"":""focus"",""trial"":10,""time"":149943}]",NA,NA,NA,NA,NA,NA,#EDC948,#46d3c8,10,0,1,null,null,null,37,1,522.4000000059605,10,1,practice,NA,NA,NA,NA,NA,NA,NA,NA,NA,NA
audio-instructions,43,612705,0.0-5.2-6.2,voc_e2,12050,"[{""event"":""fullscreenenter"",""trial"":1,""time"":6584},{""event"":""blur"",""trial"":10,""time"":125222},{""event"":""focus"",""trial"":10,""time"":126137},{""event"":""blur"",""trial"":10,""time"":145978},{""event"":""focus"",""trial"":10,""time"":149943}]",NA,5517.0999999940395,static/audio/instructions6.wav,NA,0,NA,NA,NA,NA,NA,NA,NA,NA,NA,NA,NA,NA,NA,NA,NA,NA,NA,NA,NA,NA,NA,NA,NA,NA,NA
audio-instructions,44,634836,0.0-5.2-7.2,voc_e2,12050,"[{""event"":""fullscreenenter"",""trial"":1,""time"":6584},{""event"":""blur"",""trial"":10,""time"":125222},{""event"":""focus"",""trial"":10,""time"":126137},{""event"":""blur"",""trial"":10,""time"":145978},{""event"":""focus"",""trial"":10,""time"":149943}]",NA,2930.800000011921,static/audio/instructions7.wav,NA,0,NA,NA,NA,NA,NA,NA,NA,NA,NA,NA,NA,NA,NA,NA,NA,NA,NA,NA,NA,NA,NA,NA,NA,NA,NA
audio-instructions,45,646477,0.0-5.2-8.2,voc_e2,12050,"[{""event"":""fullscreenenter"",""trial"":1,""time"":6584},{""event"":""blur"",""trial"":10,""time"":125222},{""event"":""focus"",""trial"":10,""time"":126137},{""event"":""blur"",""trial"":10,""time"":145978},{""event"":""focus"",""trial"":10,""time"":149943}]",NA,2167.7999999821186,static/audio/instructions8.wav,NA,0,NA,NA,NA,NA,NA,NA,NA,NA,NA,NA,NA,NA,NA,NA,NA,NA,NA,NA,NA,NA,NA,NA,NA,NA,NA
fcp-comprehension,46,659381,0.0-5.2-9.2,voc_e2,12050,"[{""event"":""fullscreenenter"",""trial"":1,""time"":6584},{""event"":""blur"",""trial"":10,""time"":125222},{""event"":""focus"",""trial"":10,""time"":126137},{""event"":""blur"",""trial"":10,""time"":145978},{""event"":""focus"",""trial"":10,""time"":149943}]",NA,12903.29999998212,NA,NA,NA,NA,NA,NA,NA,NA,NA,NA,NA,NA,NA,NA,NA,NA,NA,NA,"false,true",1,NA,NA,NA,NA,NA,NA,NA,NA
audio-instructions,47,673615,0.0-5.3-0.3,voc_e2,12050,"[{""event"":""fullscreenenter"",""trial"":1,""time"":6584},{""event"":""blur"",""trial"":10,""time"":125222},{""event"":""focus"",""trial"":10,""time"":126137},{""event"":""blur"",""trial"":10,""time"":145978},{""event"":""focus"",""trial"":10,""time"":149943}]",NA,9453.30000001192,static/audio/instructions1.wav,NA,0,NA,NA,NA,NA,NA,NA,NA,NA,NA,NA,NA,NA,NA,NA,NA,NA,NA,NA,NA,NA,NA,NA,NA,NA,NA
audio-instructions,48,847212,0.0-5.3-1.3,voc_e2,12050,"[{""event"":""fullscreenenter"",""trial"":1,""time"":6584},{""event"":""blur"",""trial"":10,""time"":125222},{""event"":""focus"",""trial"":10,""time"":126137},{""event"":""blur"",""trial"":10,""time"":145978},{""event"":""focus"",""trial"":10,""time"":149943},{""event"":""blur"",""trial"":48,""time"":680687},{""event"":""focus"",""trial"":48,""time"":696806},{""event"":""blur"",""trial"":48,""time"":696843},{""event"":""focus"",""trial"":48,""time"":824158},{""event"":""fullscreenexit"",""trial"":48,""time"":824159}]",NA,166858.30000001192,static/audio/instructions2.wav,NA,0,NA,NA,NA,NA,NA,NA,NA,NA,NA,NA,NA,NA,NA,NA,NA,NA,NA,NA,NA,NA,NA,NA,NA,NA,NA
audio-instructions,49,856098,0.0-5.3-2.3,voc_e2,12050,"[{""event"":""fullscreenenter"",""trial"":1,""time"":6584},{""event"":""blur"",""trial"":10,""time"":125222},{""event"":""focus"",""trial"":10,""time"":126137},{""event"":""blur"",""trial"":10,""time"":145978},{""event"":""focus"",""trial"":10,""time"":149943},{""event"":""blur"",""trial"":48,""time"":680687},{""event"":""focus"",""trial"":48,""time"":696806},{""event"":""blur"",""trial"":48,""time"":696843},{""event"":""focus"",""trial"":48,""time"":824158},{""event"":""fullscreenexit"",""trial"":48,""time"":824159}]",NA,3029.0999999940395,static/audio/instructions3.wav,NA,0,NA,NA,NA,NA,NA,NA,NA,NA,NA,NA,NA,NA,NA,NA,NA,NA,NA,NA,NA,NA,NA,NA,NA,NA,NA
audio-instructions,50,872882,0.0-5.3-3.3,voc_e2,12050,"[{""event"":""fullscreenenter"",""trial"":1,""time"":6584},{""event"":""blur"",""trial"":10,""time"":125222},{""event"":""focus"",""trial"":10,""time"":126137},{""event"":""blur"",""trial"":10,""time"":145978},{""event"":""focus"",""trial"":10,""time"":149943},{""event"":""blur"",""trial"":48,""time"":680687},{""event"":""focus"",""trial"":48,""time"":696806},{""event"":""blur"",""trial"":48,""time"":696843},{""event"":""focus"",""trial"":48,""time"":824158},{""event"":""fullscreenexit"",""trial"":48,""time"":824159}]",NA,3553.300000011921,static/audio/instructions4.wav,NA,0,NA,NA,NA,NA,NA,NA,NA,NA,NA,NA,NA,NA,NA,NA,NA,NA,NA,NA,NA,NA,NA,NA,NA,NA,NA
audio-instructions,51,882981,0.0-5.3-4.3,voc_e2,12050,"[{""event"":""fullscreenenter"",""trial"":1,""time"":6584},{""event"":""blur"",""trial"":10,""time"":125222},{""event"":""focus"",""trial"":10,""time"":126137},{""event"":""blur"",""trial"":10,""time"":145978},{""event"":""focus"",""trial"":10,""time"":149943},{""event"":""blur"",""trial"":48,""time"":680687},{""event"":""focus"",""trial"":48,""time"":696806},{""event"":""blur"",""trial"":48,""time"":696843},{""event"":""focus"",""trial"":48,""time"":824158},{""event"":""fullscreenexit"",""trial"":48,""time"":824159}]",NA,714.4000000059605,static/audio/instructions5.wav,NA,0,NA,NA,NA,NA,NA,NA,NA,NA,NA,NA,NA,NA,NA,NA,NA,NA,NA,NA,NA,NA,NA,NA,NA,NA,NA
fcp-practice,52,885994,0.0-5.3-5.3-0.3,voc_e2,12050,"[{""event"":""fullscreenenter"",""trial"":1,""time"":6584},{""event"":""blur"",""trial"":10,""time"":125222},{""event"":""focus"",""trial"":10,""time"":126137},{""event"":""blur"",""trial"":10,""time"":145978},{""event"":""focus"",""trial"":10,""time"":149943},{""event"":""blur"",""trial"":48,""time"":680687},{""event"":""focus"",""trial"":48,""time"":696806},{""event"":""blur"",""trial"":48,""time"":696843},{""event"":""focus"",""trial"":48,""time"":824158},{""event"":""fullscreenexit"",""trial"":48,""time"":824159}]",NA,NA,NA,NA,NA,NA,#EDC948,#46d3c8,10,0,1,null,null,null,37,1,1506.7999999821186,10,1,practice,NA,NA,NA,NA,NA,NA,NA,NA,NA,NA
fcp-practice,53,887869,0.0-5.3-5.3-1.3,voc_e2,12050,"[{""event"":""fullscreenenter"",""trial"":1,""time"":6584},{""event"":""blur"",""trial"":10,""time"":125222},{""event"":""focus"",""trial"":10,""time"":126137},{""event"":""blur"",""trial"":10,""time"":145978},{""event"":""focus"",""trial"":10,""time"":149943},{""event"":""blur"",""trial"":48,""time"":680687},{""event"":""focus"",""trial"":48,""time"":696806},{""event"":""blur"",""trial"":48,""time"":696843},{""event"":""focus"",""trial"":48,""time"":824158},{""event"":""fullscreenexit"",""trial"":48,""time"":824159}]",NA,NA,NA,NA,NA,NA,#EDC948,#46d3c8,10,0,1,null,null,null,37,1,371.39999997615814,10,1,practice,NA,NA,NA,NA,NA,NA,NA,NA,NA,NA
fcp-practice,54,889593,0.0-5.3-5.3-2.3,voc_e2,12050,"[{""event"":""fullscreenenter"",""trial"":1,""time"":6584},{""event"":""blur"",""trial"":10,""time"":125222},{""event"":""focus"",""trial"":10,""time"":126137},{""event"":""blur"",""trial"":10,""time"":145978},{""event"":""focus"",""trial"":10,""time"":149943},{""event"":""blur"",""trial"":48,""time"":680687},{""event"":""focus"",""trial"":48,""time"":696806},{""event"":""blur"",""trial"":48,""time"":696843},{""event"":""focus"",""trial"":48,""time"":824158},{""event"":""fullscreenexit"",""trial"":48,""time"":824159}]",NA,NA,NA,NA,NA,NA,#EDC948,#46d3c8,0,10,1,null,null,null,37,1,218.80000001192093,0,1,practice,NA,NA,NA,NA,NA,NA,NA,NA,NA,NA
fcp-practice,55,891471,0.0-5.3-5.3-3.3,voc_e2,12050,"[{""event"":""fullscreenenter"",""trial"":1,""time"":6584},{""event"":""blur"",""trial"":10,""time"":125222},{""event"":""focus"",""trial"":10,""time"":126137},{""event"":""blur"",""trial"":10,""time"":145978},{""event"":""focus"",""trial"":10,""time"":149943},{""event"":""blur"",""trial"":48,""time"":680687},{""event"":""focus"",""trial"":48,""time"":696806},{""event"":""blur"",""trial"":48,""time"":696843},{""event"":""focus"",""trial"":48,""time"":824158},{""event"":""fullscreenexit"",""trial"":48,""time"":824159}]",NA,NA,NA,NA,NA,NA,#EDC948,#46d3c8,10,0,1,null,null,null,37,1,374.10000002384186,10,1,practice,NA,NA,NA,NA,NA,NA,NA,NA,NA,NA
fcp-practice,56,893107,0.0-5.3-5.3-4.3,voc_e2,12050,"[{""event"":""fullscreenenter"",""trial"":1,""time"":6584},{""event"":""blur"",""trial"":10,""time"":125222},{""event"":""focus"",""trial"":10,""time"":126137},{""event"":""blur"",""trial"":10,""time"":145978},{""event"":""focus"",""trial"":10,""time"":149943},{""event"":""blur"",""trial"":48,""time"":680687},{""event"":""focus"",""trial"":48,""time"":696806},{""event"":""blur"",""trial"":48,""time"":696843},{""event"":""focus"",""trial"":48,""time"":824158},{""event"":""fullscreenexit"",""trial"":48,""time"":824159}]",NA,NA,NA,NA,NA,NA,#EDC948,#46d3c8,10,0,1,null,null,null,37,1,131.5,10,1,practice,NA,NA,NA,NA,NA,NA,NA,NA,NA,NA
audio-instructions,57,913180,0.0-5.3-6.3,voc_e2,12050,"[{""event"":""fullscreenenter"",""trial"":1,""time"":6584},{""event"":""blur"",""trial"":10,""time"":125222},{""event"":""focus"",""trial"":10,""time"":126137},{""event"":""blur"",""trial"":10,""time"":145978},{""event"":""focus"",""trial"":10,""time"":149943},{""event"":""blur"",""trial"":48,""time"":680687},{""event"":""focus"",""trial"":48,""time"":696806},{""event"":""blur"",""trial"":48,""time"":696843},{""event"":""focus"",""trial"":48,""time"":824158},{""event"":""fullscreenexit"",""trial"":48,""time"":824159}]",NA,2069.2000000178814,static/audio/instructions6.wav,NA,0,NA,NA,NA,NA,NA,NA,NA,NA,NA,NA,NA,NA,NA,NA,NA,NA,NA,NA,NA,NA,NA,NA,NA,NA,NA
audio-instructions,58,936603,0.0-5.3-7.3,voc_e2,12050,"[{""event"":""fullscreenenter"",""trial"":1,""time"":6584},{""event"":""blur"",""trial"":10,""time"":125222},{""event"":""focus"",""trial"":10,""time"":126137},{""event"":""blur"",""trial"":10,""time"":145978},{""event"":""focus"",""trial"":10,""time"":149943},{""event"":""blur"",""trial"":48,""time"":680687},{""event"":""focus"",""trial"":48,""time"":696806},{""event"":""blur"",""trial"":48,""time"":696843},{""event"":""focus"",""trial"":48,""time"":824158},{""event"":""fullscreenexit"",""trial"":48,""time"":824159}]",NA,4222.800000011921,static/audio/instructions7.wav,NA,0,NA,NA,NA,NA,NA,NA,NA,NA,NA,NA,NA,NA,NA,NA,NA,NA,NA,NA,NA,NA,NA,NA,NA,NA,NA
audio-instructions,59,953294,0.0-5.3-8.3,voc_e2,12050,"[{""event"":""fullscreenenter"",""trial"":1,""time"":6584},{""event"":""blur"",""trial"":10,""time"":125222},{""event"":""focus"",""trial"":10,""time"":126137},{""event"":""blur"",""trial"":10,""time"":145978},{""event"":""focus"",""trial"":10,""time"":149943},{""event"":""blur"",""trial"":48,""time"":680687},{""event"":""focus"",""trial"":48,""time"":696806},{""event"":""blur"",""trial"":48,""time"":696843},{""event"":""focus"",""trial"":48,""time"":824158},{""event"":""fullscreenexit"",""trial"":48,""time"":824159}]",NA,7221.300000011921,static/audio/instructions8.wav,NA,0,NA,NA,NA,NA,NA,NA,NA,NA,NA,NA,NA,NA,NA,NA,NA,NA,NA,NA,NA,NA,NA,NA,NA,NA,NA
fcp-comprehension,60,978289,0.0-5.3-9.3,voc_e2,12050,"[{""event"":""fullscreenenter"",""trial"":1,""time"":6584},{""event"":""blur"",""trial"":10,""time"":125222},{""event"":""focus"",""trial"":10,""time"":126137},{""event"":""blur"",""trial"":10,""time"":145978},{""event"":""focus"",""trial"":10,""time"":149943},{""event"":""blur"",""trial"":48,""time"":680687},{""event"":""focus"",""trial"":48,""time"":696806},{""event"":""blur"",""trial"":48,""time"":696843},{""event"":""focus"",""trial"":48,""time"":824158},{""event"":""fullscreenexit"",""trial"":48,""time"":824159}]",NA,24994.10000002384,NA,NA,NA,NA,NA,NA,NA,NA,NA,NA,NA,NA,NA,NA,NA,NA,NA,NA,"false,true",1,NA,NA,NA,NA,NA,NA,NA,NA
audio-instructions,61,986026,0.0-5.4-0.4,voc_e2,12050,"[{""event"":""fullscreenenter"",""trial"":1,""time"":6584},{""event"":""blur"",""trial"":10,""time"":125222},{""event"":""focus"",""trial"":10,""time"":126137},{""event"":""blur"",""trial"":10,""time"":145978},{""event"":""focus"",""trial"":10,""time"":149943},{""event"":""blur"",""trial"":48,""time"":680687},{""event"":""focus"",""trial"":48,""time"":696806},{""event"":""blur"",""trial"":48,""time"":696843},{""event"":""focus"",""trial"":48,""time"":824158},{""event"":""fullscreenexit"",""trial"":48,""time"":824159}]",NA,2907.699999988079,static/audio/instructions1.wav,NA,0,NA,NA,NA,NA,NA,NA,NA,NA,NA,NA,NA,NA,NA,NA,NA,NA,NA,NA,NA,NA,NA,NA,NA,NA,NA
audio-instructions,62,999448,0.0-5.4-1.4,voc_e2,12050,"[{""event"":""fullscreenenter"",""trial"":1,""time"":6584},{""event"":""blur"",""trial"":10,""time"":125222},{""event"":""focus"",""trial"":10,""time"":126137},{""event"":""blur"",""trial"":10,""time"":145978},{""event"":""focus"",""trial"":10,""time"":149943},{""event"":""blur"",""trial"":48,""time"":680687},{""event"":""focus"",""trial"":48,""time"":696806},{""event"":""blur"",""trial"":48,""time"":696843},{""event"":""focus"",""trial"":48,""time"":824158},{""event"":""fullscreenexit"",""trial"":48,""time"":824159}]",NA,6676.700000017881,static/audio/instructions2.wav,NA,0,NA,NA,NA,NA,NA,NA,NA,NA,NA,NA,NA,NA,NA,NA,NA,NA,NA,NA,NA,NA,NA,NA,NA,NA,NA
audio-instructions,63,1007198,0.0-5.4-2.4,voc_e2,12050,"[{""event"":""fullscreenenter"",""trial"":1,""time"":6584},{""event"":""blur"",""trial"":10,""time"":125222},{""event"":""focus"",""trial"":10,""time"":126137},{""event"":""blur"",""trial"":10,""time"":145978},{""event"":""focus"",""trial"":10,""time"":149943},{""event"":""blur"",""trial"":48,""time"":680687},{""event"":""focus"",""trial"":48,""time"":696806},{""event"":""blur"",""trial"":48,""time"":696843},{""event"":""focus"",""trial"":48,""time"":824158},{""event"":""fullscreenexit"",""trial"":48,""time"":824159}]",NA,1946,static/audio/instructions3.wav,NA,0,NA,NA,NA,NA,NA,NA,NA,NA,NA,NA,NA,NA,NA,NA,NA,NA,NA,NA,NA,NA,NA,NA,NA,NA,NA
audio-instructions,64,1021721,0.0-5.4-3.4,voc_e2,12050,"[{""event"":""fullscreenenter"",""trial"":1,""time"":6584},{""event"":""blur"",""trial"":10,""time"":125222},{""event"":""focus"",""trial"":10,""time"":126137},{""event"":""blur"",""trial"":10,""time"":145978},{""event"":""focus"",""trial"":10,""time"":149943},{""event"":""blur"",""trial"":48,""time"":680687},{""event"":""focus"",""trial"":48,""time"":696806},{""event"":""blur"",""trial"":48,""time"":696843},{""event"":""focus"",""trial"":48,""time"":824158},{""event"":""fullscreenexit"",""trial"":48,""time"":824159}]",NA,1295.4000000059605,static/audio/instructions4.wav,NA,0,NA,NA,NA,NA,NA,NA,NA,NA,NA,NA,NA,NA,NA,NA,NA,NA,NA,NA,NA,NA,NA,NA,NA,NA,NA
audio-instructions,65,1032446,0.0-5.4-4.4,voc_e2,12050,"[{""event"":""fullscreenenter"",""trial"":1,""time"":6584},{""event"":""blur"",""trial"":10,""time"":125222},{""event"":""focus"",""trial"":10,""time"":126137},{""event"":""blur"",""trial"":10,""time"":145978},{""event"":""focus"",""trial"":10,""time"":149943},{""event"":""blur"",""trial"":48,""time"":680687},{""event"":""focus"",""trial"":48,""time"":696806},{""event"":""blur"",""trial"":48,""time"":696843},{""event"":""focus"",""trial"":48,""time"":824158},{""event"":""fullscreenexit"",""trial"":48,""time"":824159}]",NA,1339.5999999940395,static/audio/instructions5.wav,NA,0,NA,NA,NA,NA,NA,NA,NA,NA,NA,NA,NA,NA,NA,NA,NA,NA,NA,NA,NA,NA,NA,NA,NA,NA,NA
fcp-practice,66,1037363,0.0-5.4-5.4-0.4,voc_e2,12050,"[{""event"":""fullscreenenter"",""trial"":1,""time"":6584},{""event"":""blur"",""trial"":10,""time"":125222},{""event"":""focus"",""trial"":10,""time"":126137},{""event"":""blur"",""trial"":10,""time"":145978},{""event"":""focus"",""trial"":10,""time"":149943},{""event"":""blur"",""trial"":48,""time"":680687},{""event"":""focus"",""trial"":48,""time"":696806},{""event"":""blur"",""trial"":48,""time"":696843},{""event"":""focus"",""trial"":48,""time"":824158},{""event"":""fullscreenexit"",""trial"":48,""time"":824159}]",NA,NA,NA,NA,NA,NA,#EDC948,#46d3c8,10,0,1,null,null,null,37,1,3413.7999999821186,10,1,practice,NA,NA,NA,NA,NA,NA,NA,NA,NA,NA
fcp-practice,67,1039485,0.0-5.4-5.4-1.4,voc_e2,12050,"[{""event"":""fullscreenenter"",""trial"":1,""time"":6584},{""event"":""blur"",""trial"":10,""time"":125222},{""event"":""focus"",""trial"":10,""time"":126137},{""event"":""blur"",""trial"":10,""time"":145978},{""event"":""focus"",""trial"":10,""time"":149943},{""event"":""blur"",""trial"":48,""time"":680687},{""event"":""focus"",""trial"":48,""time"":696806},{""event"":""blur"",""trial"":48,""time"":696843},{""event"":""focus"",""trial"":48,""time"":824158},{""event"":""fullscreenexit"",""trial"":48,""time"":824159}]",NA,NA,NA,NA,NA,NA,#EDC948,#46d3c8,10,0,1,null,null,null,37,1,617.2000000178814,10,1,practice,NA,NA,NA,NA,NA,NA,NA,NA,NA,NA
fcp-practice,68,1041693,0.0-5.4-5.4-2.4,voc_e2,12050,"[{""event"":""fullscreenenter"",""trial"":1,""time"":6584},{""event"":""blur"",""trial"":10,""time"":125222},{""event"":""focus"",""trial"":10,""time"":126137},{""event"":""blur"",""trial"":10,""time"":145978},{""event"":""focus"",""trial"":10,""time"":149943},{""event"":""blur"",""trial"":48,""time"":680687},{""event"":""focus"",""trial"":48,""time"":696806},{""event"":""blur"",""trial"":48,""time"":696843},{""event"":""focus"",""trial"":48,""time"":824158},{""event"":""fullscreenexit"",""trial"":48,""time"":824159}]",NA,NA,NA,NA,NA,NA,#EDC948,#46d3c8,0,10,1,null,null,null,37,1,703.4000000059605,0,1,practice,NA,NA,NA,NA,NA,NA,NA,NA,NA,NA
fcp-practice,69,1044859,0.0-5.4-5.4-3.4,voc_e2,12050,"[{""event"":""fullscreenenter"",""trial"":1,""time"":6584},{""event"":""blur"",""trial"":10,""time"":125222},{""event"":""focus"",""trial"":10,""time"":126137},{""event"":""blur"",""trial"":10,""time"":145978},{""event"":""focus"",""trial"":10,""time"":149943},{""event"":""blur"",""trial"":48,""time"":680687},{""event"":""focus"",""trial"":48,""time"":696806},{""event"":""blur"",""trial"":48,""time"":696843},{""event"":""focus"",""trial"":48,""time"":824158},{""event"":""fullscreenexit"",""trial"":48,""time"":824159}]",NA,NA,NA,NA,NA,NA,#EDC948,#46d3c8,10,0,1,null,null,null,37,1,1660.2000000178814,10,1,practice,NA,NA,NA,NA,NA,NA,NA,NA,NA,NA
fcp-practice,70,1047519,0.0-5.4-5.4-4.4,voc_e2,12050,"[{""event"":""fullscreenenter"",""trial"":1,""time"":6584},{""event"":""blur"",""trial"":10,""time"":125222},{""event"":""focus"",""trial"":10,""time"":126137},{""event"":""blur"",""trial"":10,""time"":145978},{""event"":""focus"",""trial"":10,""time"":149943},{""event"":""blur"",""trial"":48,""time"":680687},{""event"":""focus"",""trial"":48,""time"":696806},{""event"":""blur"",""trial"":48,""time"":696843},{""event"":""focus"",""trial"":48,""time"":824158},{""event"":""fullscreenexit"",""trial"":48,""time"":824159}]",NA,NA,NA,NA,NA,NA,#EDC948,#46d3c8,10,0,1,null,null,null,37,1,1154.4000000059605,10,1,practice,NA,NA,NA,NA,NA,NA,NA,NA,NA,NA
audio-instructions,71,1118955,0.0-5.4-6.4,voc_e2,12050,"[{""event"":""fullscreenenter"",""trial"":1,""time"":6584},{""event"":""blur"",""trial"":10,""time"":125222},{""event"":""focus"",""trial"":10,""time"":126137},{""event"":""blur"",""trial"":10,""time"":145978},{""event"":""focus"",""trial"":10,""time"":149943},{""event"":""blur"",""trial"":48,""time"":680687},{""event"":""focus"",""trial"":48,""time"":696806},{""event"":""blur"",""trial"":48,""time"":696843},{""event"":""focus"",""trial"":48,""time"":824158},{""event"":""fullscreenexit"",""trial"":48,""time"":824159},{""event"":""blur"",""trial"":71,""time"":1058147},{""event"":""focus"",""trial"":71,""time"":1059658},{""event"":""blur"",""trial"":71,""time"":1060480},{""event"":""focus"",""trial"":71,""time"":1062019},{""event"":""blur"",""trial"":71,""time"":1062829},{""event"":""focus"",""trial"":71,""time"":1064441},{""event"":""blur"",""trial"":71,""time"":1066053},{""event"":""focus"",""trial"":71,""time"":1116175}]",NA,53433.59999999404,static/audio/instructions6.wav,NA,0,NA,NA,NA,NA,NA,NA,NA,NA,NA,NA,NA,NA,NA,NA,NA,NA,NA,NA,NA,NA,NA,NA,NA,NA,NA
audio-instructions,72,1139329,0.0-5.4-7.4,voc_e2,12050,"[{""event"":""fullscreenenter"",""trial"":1,""time"":6584},{""event"":""blur"",""trial"":10,""time"":125222},{""event"":""focus"",""trial"":10,""time"":126137},{""event"":""blur"",""trial"":10,""time"":145978},{""event"":""focus"",""trial"":10,""time"":149943},{""event"":""blur"",""trial"":48,""time"":680687},{""event"":""focus"",""trial"":48,""time"":696806},{""event"":""blur"",""trial"":48,""time"":696843},{""event"":""focus"",""trial"":48,""time"":824158},{""event"":""fullscreenexit"",""trial"":48,""time"":824159},{""event"":""blur"",""trial"":71,""time"":1058147},{""event"":""focus"",""trial"":71,""time"":1059658},{""event"":""blur"",""trial"":71,""time"":1060480},{""event"":""focus"",""trial"":71,""time"":1062019},{""event"":""blur"",""trial"":71,""time"":1062829},{""event"":""focus"",""trial"":71,""time"":1064441},{""event"":""blur"",""trial"":71,""time"":1066053},{""event"":""focus"",""trial"":71,""time"":1116175}]",NA,1114.9000000059605,static/audio/instructions7.wav,NA,0,NA,NA,NA,NA,NA,NA,NA,NA,NA,NA,NA,NA,NA,NA,NA,NA,NA,NA,NA,NA,NA,NA,NA,NA,NA
audio-instructions,73,1149745,0.0-5.4-8.4,voc_e2,12050,"[{""event"":""fullscreenenter"",""trial"":1,""time"":6584},{""event"":""blur"",""trial"":10,""time"":125222},{""event"":""focus"",""trial"":10,""time"":126137},{""event"":""blur"",""trial"":10,""time"":145978},{""event"":""focus"",""trial"":10,""time"":149943},{""event"":""blur"",""trial"":48,""time"":680687},{""event"":""focus"",""trial"":48,""time"":696806},{""event"":""blur"",""trial"":48,""time"":696843},{""event"":""focus"",""trial"":48,""time"":824158},{""event"":""fullscreenexit"",""trial"":48,""time"":824159},{""event"":""blur"",""trial"":71,""time"":1058147},{""event"":""focus"",""trial"":71,""time"":1059658},{""event"":""blur"",""trial"":71,""time"":1060480},{""event"":""focus"",""trial"":71,""time"":1062019},{""event"":""blur"",""trial"":71,""time"":1062829},{""event"":""focus"",""trial"":71,""time"":1064441},{""event"":""blur"",""trial"":71,""time"":1066053},{""event"":""focus"",""trial"":71,""time"":1116175}]",NA,943.1999999880792,static/audio/instructions8.wav,NA,0,NA,NA,NA,NA,NA,NA,NA,NA,NA,NA,NA,NA,NA,NA,NA,NA,NA,NA,NA,NA,NA,NA,NA,NA,NA
fcp-comprehension,74,1159602,0.0-5.4-9.4,voc_e2,12050,"[{""event"":""fullscreenenter"",""trial"":1,""time"":6584},{""event"":""blur"",""trial"":10,""time"":125222},{""event"":""focus"",""trial"":10,""time"":126137},{""event"":""blur"",""trial"":10,""time"":145978},{""event"":""focus"",""trial"":10,""time"":149943},{""event"":""blur"",""trial"":48,""time"":680687},{""event"":""focus"",""trial"":48,""time"":696806},{""event"":""blur"",""trial"":48,""time"":696843},{""event"":""focus"",""trial"":48,""time"":824158},{""event"":""fullscreenexit"",""trial"":48,""time"":824159},{""event"":""blur"",""trial"":71,""time"":1058147},{""event"":""focus"",""trial"":71,""time"":1059658},{""event"":""blur"",""trial"":71,""time"":1060480},{""event"":""focus"",""trial"":71,""time"":1062019},{""event"":""blur"",""trial"":71,""time"":1062829},{""event"":""focus"",""trial"":71,""time"":1064441},{""event"":""blur"",""trial"":71,""time"":1066053},{""event"":""focus"",""trial"":71,""time"":1116175}]",NA,9855.09999999404,NA,NA,NA,NA,NA,NA,NA,NA,NA,NA,NA,NA,NA,NA,NA,NA,NA,NA,"true,true",0,NA,NA,NA,NA,NA,NA,NA,NA
audio-instructions,75,1168288,0.0-6.0-0.0,voc_e2,12050,"[{""event"":""fullscreenenter"",""trial"":1,""time"":6584},{""event"":""blur"",""trial"":10,""time"":125222},{""event"":""focus"",""trial"":10,""time"":126137},{""event"":""blur"",""trial"":10,""time"":145978},{""event"":""focus"",""trial"":10,""time"":149943},{""event"":""blur"",""trial"":48,""time"":680687},{""event"":""focus"",""trial"":48,""time"":696806},{""event"":""blur"",""trial"":48,""time"":696843},{""event"":""focus"",""trial"":48,""time"":824158},{""event"":""fullscreenexit"",""trial"":48,""time"":824159},{""event"":""blur"",""trial"":71,""time"":1058147},{""event"":""focus"",""trial"":71,""time"":1059658},{""event"":""blur"",""trial"":71,""time"":1060480},{""event"":""focus"",""trial"":71,""time"":1062019},{""event"":""blur"",""trial"":71,""time"":1062829},{""event"":""focus"",""trial"":71,""time"":1064441},{""event"":""blur"",""trial"":71,""time"":1066053},{""event"":""focus"",""trial"":71,""time"":1116175}]",NA,3139.600000023842,static/audio/instructions9.wav,NA,0,NA,NA,NA,NA,NA,NA,NA,NA,NA,NA,NA,NA,NA,NA,NA,NA,NA,NA,NA,NA,NA,NA,NA,NA,NA
audio-instructions,76,1182165,0.0-6.0-1.0,voc_e2,12050,"[{""event"":""fullscreenenter"",""trial"":1,""time"":6584},{""event"":""blur"",""trial"":10,""time"":125222},{""event"":""focus"",""trial"":10,""time"":126137},{""event"":""blur"",""trial"":10,""time"":145978},{""event"":""focus"",""trial"":10,""time"":149943},{""event"":""blur"",""trial"":48,""time"":680687},{""event"":""focus"",""trial"":48,""time"":696806},{""event"":""blur"",""trial"":48,""time"":696843},{""event"":""focus"",""trial"":48,""time"":824158},{""event"":""fullscreenexit"",""trial"":48,""time"":824159},{""event"":""blur"",""trial"":71,""time"":1058147},{""event"":""focus"",""trial"":71,""time"":1059658},{""event"":""blur"",""trial"":71,""time"":1060480},{""event"":""focus"",""trial"":71,""time"":1062019},{""event"":""blur"",""trial"":71,""time"":1062829},{""event"":""focus"",""trial"":71,""time"":1064441},{""event"":""blur"",""trial"":71,""time"":1066053},{""event"":""focus"",""trial"":71,""time"":1116175}]",NA,1755.5999999940395,static/audio/instructions10.wav,NA,0,NA,NA,NA,NA,NA,NA,NA,NA,NA,NA,NA,NA,NA,NA,NA,NA,NA,NA,NA,NA,NA,NA,NA,NA,NA
fcp-trial,77,1197168,0.0-6.0-2.0,voc_e2,12050,"[{""event"":""fullscreenenter"",""trial"":1,""time"":6584},{""event"":""blur"",""trial"":10,""time"":125222},{""event"":""focus"",""trial"":10,""time"":126137},{""event"":""blur"",""trial"":10,""time"":145978},{""event"":""focus"",""trial"":10,""time"":149943},{""event"":""blur"",""trial"":48,""time"":680687},{""event"":""focus"",""trial"":48,""time"":696806},{""event"":""blur"",""trial"":48,""time"":696843},{""event"":""focus"",""trial"":48,""time"":824158},{""event"":""fullscreenexit"",""trial"":48,""time"":824159},{""event"":""blur"",""trial"":71,""time"":1058147},{""event"":""focus"",""trial"":71,""time"":1059658},{""event"":""blur"",""trial"":71,""time"":1060480},{""event"":""focus"",""trial"":71,""time"":1062019},{""event"":""blur"",""trial"":71,""time"":1062829},{""event"":""focus"",""trial"":71,""time"":1064441},{""event"":""blur"",""trial"":71,""time"":1066053},{""event"":""focus"",""trial"":71,""time"":1116175}]",NA,NA,NA,NA,NA,0,#EDC948,#46d3c8,10,10,1,null,null,null,null,null,null,NA,0,practice,NA,NA,NA,NA,NA,NA,NA,NA,NA,NA
audio-instructions,78,1209821,0.0-6.0-3.0,voc_e2,12050,"[{""event"":""fullscreenenter"",""trial"":1,""time"":6584},{""event"":""blur"",""trial"":10,""time"":125222},{""event"":""focus"",""trial"":10,""time"":126137},{""event"":""blur"",""trial"":10,""time"":145978},{""event"":""focus"",""trial"":10,""time"":149943},{""event"":""blur"",""trial"":48,""time"":680687},{""event"":""focus"",""trial"":48,""time"":696806},{""event"":""blur"",""trial"":48,""time"":696843},{""event"":""focus"",""trial"":48,""time"":824158},{""event"":""fullscreenexit"",""trial"":48,""time"":824159},{""event"":""blur"",""trial"":71,""time"":1058147},{""event"":""focus"",""trial"":71,""time"":1059658},{""event"":""blur"",""trial"":71,""time"":1060480},{""event"":""focus"",""trial"":71,""time"":1062019},{""event"":""blur"",""trial"":71,""time"":1062829},{""event"":""focus"",""trial"":71,""time"":1064441},{""event"":""blur"",""trial"":71,""time"":1066053},{""event"":""focus"",""trial"":71,""time"":1116175}]",NA,1641.699999988079,static/audio/instructions11.wav,NA,0,NA,NA,NA,NA,NA,NA,NA,NA,NA,NA,NA,NA,NA,NA,NA,NA,NA,NA,NA,NA,NA,NA,NA,NA,NA
fcp-trial,79,1218028,0.0-6.0-4.0,voc_e2,12050,"[{""event"":""fullscreenenter"",""trial"":1,""time"":6584},{""event"":""blur"",""trial"":10,""time"":125222},{""event"":""focus"",""trial"":10,""time"":126137},{""event"":""blur"",""trial"":10,""time"":145978},{""event"":""focus"",""trial"":10,""time"":149943},{""event"":""blur"",""trial"":48,""time"":680687},{""event"":""focus"",""trial"":48,""time"":696806},{""event"":""blur"",""trial"":48,""time"":696843},{""event"":""focus"",""trial"":48,""time"":824158},{""event"":""fullscreenexit"",""trial"":48,""time"":824159},{""event"":""blur"",""trial"":71,""time"":1058147},{""event"":""focus"",""trial"":71,""time"":1059658},{""event"":""blur"",""trial"":71,""time"":1060480},{""event"":""focus"",""trial"":71,""time"":1062019},{""event"":""blur"",""trial"":71,""time"":1062829},{""event"":""focus"",""trial"":71,""time"":1064441},{""event"":""blur"",""trial"":71,""time"":1066053},{""event"":""focus"",""trial"":71,""time"":1116175}]",NA,NA,NA,NA,NA,6,#EDC948,#46d3c8,10,10,1,40,0,3199.0999999940395,37,1,3502,10,1,practice,NA,NA,NA,NA,NA,NA,NA,NA,NA,NA
audio-instructions,80,1240594,0.0-6.0-5.0,voc_e2,12050,"[{""event"":""fullscreenenter"",""trial"":1,""time"":6584},{""event"":""blur"",""trial"":10,""time"":125222},{""event"":""focus"",""trial"":10,""time"":126137},{""event"":""blur"",""trial"":10,""time"":145978},{""event"":""focus"",""trial"":10,""time"":149943},{""event"":""blur"",""trial"":48,""time"":680687},{""event"":""focus"",""trial"":48,""time"":696806},{""event"":""blur"",""trial"":48,""time"":696843},{""event"":""focus"",""trial"":48,""time"":824158},{""event"":""fullscreenexit"",""trial"":48,""time"":824159},{""event"":""blur"",""trial"":71,""time"":1058147},{""event"":""focus"",""trial"":71,""time"":1059658},{""event"":""blur"",""trial"":71,""time"":1060480},{""event"":""focus"",""trial"":71,""time"":1062019},{""event"":""blur"",""trial"":71,""time"":1062829},{""event"":""focus"",""trial"":71,""time"":1064441},{""event"":""blur"",""trial"":71,""time"":1066053},{""event"":""focus"",""trial"":71,""time"":1116175}]",NA,3878.800000011921,static/audio/instructions12.wav,NA,0,NA,NA,NA,NA,NA,NA,NA,NA,NA,NA,NA,NA,NA,NA,NA,NA,NA,NA,NA,NA,NA,NA,NA,NA,NA
audio-instructions,81,1249545,0.0-6.0-6.0,voc_e2,12050,"[{""event"":""fullscreenenter"",""trial"":1,""time"":6584},{""event"":""blur"",""trial"":10,""time"":125222},{""event"":""focus"",""trial"":10,""time"":126137},{""event"":""blur"",""trial"":10,""time"":145978},{""event"":""focus"",""trial"":10,""time"":149943},{""event"":""blur"",""trial"":48,""time"":680687},{""event"":""focus"",""trial"":48,""time"":696806},{""event"":""blur"",""trial"":48,""time"":696843},{""event"":""focus"",""trial"":48,""time"":824158},{""event"":""fullscreenexit"",""trial"":48,""time"":824159},{""event"":""blur"",""trial"":71,""time"":1058147},{""event"":""focus"",""trial"":71,""time"":1059658},{""event"":""blur"",""trial"":71,""time"":1060480},{""event"":""focus"",""trial"":71,""time"":1062019},{""event"":""blur"",""trial"":71,""time"":1062829},{""event"":""focus"",""trial"":71,""time"":1064441},{""event"":""blur"",""trial"":71,""time"":1066053},{""event"":""focus"",""trial"":71,""time"":1116175}]",NA,1353.199999988079,static/audio/instructions13.wav,NA,0,NA,NA,NA,NA,NA,NA,NA,NA,NA,NA,NA,NA,NA,NA,NA,NA,NA,NA,NA,NA,NA,NA,NA,NA,NA
audio-instructions,82,1263334,0.0-6.0-7.0,voc_e2,12050,"[{""event"":""fullscreenenter"",""trial"":1,""time"":6584},{""event"":""blur"",""trial"":10,""time"":125222},{""event"":""focus"",""trial"":10,""time"":126137},{""event"":""blur"",""trial"":10,""time"":145978},{""event"":""focus"",""trial"":10,""time"":149943},{""event"":""blur"",""trial"":48,""time"":680687},{""event"":""focus"",""trial"":48,""time"":696806},{""event"":""blur"",""trial"":48,""time"":696843},{""event"":""focus"",""trial"":48,""time"":824158},{""event"":""fullscreenexit"",""trial"":48,""time"":824159},{""event"":""blur"",""trial"":71,""time"":1058147},{""event"":""focus"",""trial"":71,""time"":1059658},{""event"":""blur"",""trial"":71,""time"":1060480},{""event"":""focus"",""trial"":71,""time"":1062019},{""event"":""blur"",""trial"":71,""time"":1062829},{""event"":""focus"",""trial"":71,""time"":1064441},{""event"":""blur"",""trial"":71,""time"":1066053},{""event"":""focus"",""trial"":71,""time"":1116175}]",NA,5338.5999999940395,static/audio/instructions14.wav,NA,0,NA,NA,NA,NA,NA,NA,NA,NA,NA,NA,NA,NA,NA,NA,NA,NA,NA,NA,NA,NA,NA,NA,NA,NA,NA
audio-instructions,83,1272141,0.0-7.0-0.0,voc_e2,12050,"[{""event"":""fullscreenenter"",""trial"":1,""time"":6584},{""event"":""blur"",""trial"":10,""time"":125222},{""event"":""focus"",""trial"":10,""time"":126137},{""event"":""blur"",""trial"":10,""time"":145978},{""event"":""focus"",""trial"":10,""time"":149943},{""event"":""blur"",""trial"":48,""time"":680687},{""event"":""focus"",""trial"":48,""time"":696806},{""event"":""blur"",""trial"":48,""time"":696843},{""event"":""focus"",""trial"":48,""time"":824158},{""event"":""fullscreenexit"",""trial"":48,""time"":824159},{""event"":""blur"",""trial"":71,""time"":1058147},{""event"":""focus"",""trial"":71,""time"":1059658},{""event"":""blur"",""trial"":71,""time"":1060480},{""event"":""focus"",""trial"":71,""time"":1062019},{""event"":""blur"",""trial"":71,""time"":1062829},{""event"":""focus"",""trial"":71,""time"":1064441},{""event"":""blur"",""trial"":71,""time"":1066053},{""event"":""focus"",""trial"":71,""time"":1116175}]",NA,1896.7000000178816,static/audio/instructions15.wav,NA,0,NA,NA,NA,NA,NA,NA,NA,NA,NA,NA,NA,NA,NA,NA,NA,NA,NA,NA,NA,NA,NA,NA,NA,NA,NA
audio-instructions,84,1280339,0.0-7.0-1.0,voc_e2,12050,"[{""event"":""fullscreenenter"",""trial"":1,""time"":6584},{""event"":""blur"",""trial"":10,""time"":125222},{""event"":""focus"",""trial"":10,""time"":126137},{""event"":""blur"",""trial"":10,""time"":145978},{""event"":""focus"",""trial"":10,""time"":149943},{""event"":""blur"",""trial"":48,""time"":680687},{""event"":""focus"",""trial"":48,""time"":696806},{""event"":""blur"",""trial"":48,""time"":696843},{""event"":""focus"",""trial"":48,""time"":824158},{""event"":""fullscreenexit"",""trial"":48,""time"":824159},{""event"":""blur"",""trial"":71,""time"":1058147},{""event"":""focus"",""trial"":71,""time"":1059658},{""event"":""blur"",""trial"":71,""time"":1060480},{""event"":""focus"",""trial"":71,""time"":1062019},{""event"":""blur"",""trial"":71,""time"":1062829},{""event"":""focus"",""trial"":71,""time"":1064441},{""event"":""blur"",""trial"":71,""time"":1066053},{""event"":""focus"",""trial"":71,""time"":1116175}]",NA,1371.0999999940395,static/audio/instructions16.wav,NA,0,NA,NA,NA,NA,NA,NA,NA,NA,NA,NA,NA,NA,NA,NA,NA,NA,NA,NA,NA,NA,NA,NA,NA,NA,NA
audio-instructions,85,1290269,0.0-7.0-2.0,voc_e2,12050,"[{""event"":""fullscreenenter"",""trial"":1,""time"":6584},{""event"":""blur"",""trial"":10,""time"":125222},{""event"":""focus"",""trial"":10,""time"":126137},{""event"":""blur"",""trial"":10,""time"":145978},{""event"":""focus"",""trial"":10,""time"":149943},{""event"":""blur"",""trial"":48,""time"":680687},{""event"":""focus"",""trial"":48,""time"":696806},{""event"":""blur"",""trial"":48,""time"":696843},{""event"":""focus"",""trial"":48,""time"":824158},{""event"":""fullscreenexit"",""trial"":48,""time"":824159},{""event"":""blur"",""trial"":71,""time"":1058147},{""event"":""focus"",""trial"":71,""time"":1059658},{""event"":""blur"",""trial"":71,""time"":1060480},{""event"":""focus"",""trial"":71,""time"":1062019},{""event"":""blur"",""trial"":71,""time"":1062829},{""event"":""focus"",""trial"":71,""time"":1064441},{""event"":""blur"",""trial"":71,""time"":1066053},{""event"":""focus"",""trial"":71,""time"":1116175}]",NA,2250.9000000059605,static/audio/instructions17.wav,NA,0,NA,NA,NA,NA,NA,NA,NA,NA,NA,NA,NA,NA,NA,NA,NA,NA,NA,NA,NA,NA,NA,NA,NA,NA,NA
audio-instructions,86,1300368,0.0-7.0-3.0,voc_e2,12050,"[{""event"":""fullscreenenter"",""trial"":1,""time"":6584},{""event"":""blur"",""trial"":10,""time"":125222},{""event"":""focus"",""trial"":10,""time"":126137},{""event"":""blur"",""trial"":10,""time"":145978},{""event"":""focus"",""trial"":10,""time"":149943},{""event"":""blur"",""trial"":48,""time"":680687},{""event"":""focus"",""trial"":48,""time"":696806},{""event"":""blur"",""trial"":48,""time"":696843},{""event"":""focus"",""trial"":48,""time"":824158},{""event"":""fullscreenexit"",""trial"":48,""time"":824159},{""event"":""blur"",""trial"":71,""time"":1058147},{""event"":""focus"",""trial"":71,""time"":1059658},{""event"":""blur"",""trial"":71,""time"":1060480},{""event"":""focus"",""trial"":71,""time"":1062019},{""event"":""blur"",""trial"":71,""time"":1062829},{""event"":""focus"",""trial"":71,""time"":1064441},{""event"":""blur"",""trial"":71,""time"":1066053},{""event"":""focus"",""trial"":71,""time"":1116175}]",NA,2337.199999988079,static/audio/instructions18.wav,NA,0,NA,NA,NA,NA,NA,NA,NA,NA,NA,NA,NA,NA,NA,NA,NA,NA,NA,NA,NA,NA,NA,NA,NA,NA,NA
audio-instructions,87,1308380,0.0-7.0-4.0,voc_e2,12050,"[{""event"":""fullscreenenter"",""trial"":1,""time"":6584},{""event"":""blur"",""trial"":10,""time"":125222},{""event"":""focus"",""trial"":10,""time"":126137},{""event"":""blur"",""trial"":10,""time"":145978},{""event"":""focus"",""trial"":10,""time"":149943},{""event"":""blur"",""trial"":48,""time"":680687},{""event"":""focus"",""trial"":48,""time"":696806},{""event"":""blur"",""trial"":48,""time"":696843},{""event"":""focus"",""trial"":48,""time"":824158},{""event"":""fullscreenexit"",""trial"":48,""time"":824159},{""event"":""blur"",""trial"":71,""time"":1058147},{""event"":""focus"",""trial"":71,""time"":1059658},{""event"":""blur"",""trial"":71,""time"":1060480},{""event"":""focus"",""trial"":71,""time"":1062019},{""event"":""blur"",""trial"":71,""time"":1062829},{""event"":""focus"",""trial"":71,""time"":1064441},{""event"":""blur"",""trial"":71,""time"":1066053},{""event"":""focus"",""trial"":71,""time"":1116175}]",NA,1270.2000000178814,static/audio/instructions19.wav,NA,0,NA,NA,NA,NA,NA,NA,NA,NA,NA,NA,NA,NA,NA,NA,NA,NA,NA,NA,NA,NA,NA,NA,NA,NA,NA
fcp-comprehension,88,1430043,0.0-7.0-5.0,voc_e2,12050,"[{""event"":""fullscreenenter"",""trial"":1,""time"":6584},{""event"":""blur"",""trial"":10,""time"":125222},{""event"":""focus"",""trial"":10,""time"":126137},{""event"":""blur"",""trial"":10,""time"":145978},{""event"":""focus"",""trial"":10,""time"":149943},{""event"":""blur"",""trial"":48,""time"":680687},{""event"":""focus"",""trial"":48,""time"":696806},{""event"":""blur"",""trial"":48,""time"":696843},{""event"":""focus"",""trial"":48,""time"":824158},{""event"":""fullscreenexit"",""trial"":48,""time"":824159},{""event"":""blur"",""trial"":71,""time"":1058147},{""event"":""focus"",""trial"":71,""time"":1059658},{""event"":""blur"",""trial"":71,""time"":1060480},{""event"":""focus"",""trial"":71,""time"":1062019},{""event"":""blur"",""trial"":71,""time"":1062829},{""event"":""focus"",""trial"":71,""time"":1064441},{""event"":""blur"",""trial"":71,""time"":1066053},{""event"":""focus"",""trial"":71,""time"":1116175}]",NA,121663.59999999404,NA,NA,NA,NA,NA,NA,NA,NA,NA,NA,NA,NA,NA,NA,NA,NA,NA,NA,"false,false,false,true",0,NA,NA,NA,NA,NA,NA,NA,NA
audio-instructions,89,1441572,0.0-8.0,voc_e2,12050,"[{""event"":""fullscreenenter"",""trial"":1,""time"":6584},{""event"":""blur"",""trial"":10,""time"":125222},{""event"":""focus"",""trial"":10,""time"":126137},{""event"":""blur"",""trial"":10,""time"":145978},{""event"":""focus"",""trial"":10,""time"":149943},{""event"":""blur"",""trial"":48,""time"":680687},{""event"":""focus"",""trial"":48,""time"":696806},{""event"":""blur"",""trial"":48,""time"":696843},{""event"":""focus"",""trial"":48,""time"":824158},{""event"":""fullscreenexit"",""trial"":48,""time"":824159},{""event"":""blur"",""trial"":71,""time"":1058147},{""event"":""focus"",""trial"":71,""time"":1059658},{""event"":""blur"",""trial"":71,""time"":1060480},{""event"":""focus"",""trial"":71,""time"":1062019},{""event"":""blur"",""trial"":71,""time"":1062829},{""event"":""focus"",""trial"":71,""time"":1064441},{""event"":""blur"",""trial"":71,""time"":1066053},{""event"":""focus"",""trial"":71,""time"":1116175}]",NA,2256,static/audio/ready.wav,NA,0,NA,NA,NA,NA,NA,NA,NA,NA,NA,NA,NA,NA,NA,NA,NA,NA,NA,NA,NA,NA,NA,NA,NA,NA,NA
fcp-trial,90,1452972,0.0-9.0-0.0,voc_e2,12050,"[{""event"":""fullscreenenter"",""trial"":1,""time"":6584},{""event"":""blur"",""trial"":10,""time"":125222},{""event"":""focus"",""trial"":10,""time"":126137},{""event"":""blur"",""trial"":10,""time"":145978},{""event"":""focus"",""trial"":10,""time"":149943},{""event"":""blur"",""trial"":48,""time"":680687},{""event"":""focus"",""trial"":48,""time"":696806},{""event"":""blur"",""trial"":48,""time"":696843},{""event"":""focus"",""trial"":48,""time"":824158},{""event"":""fullscreenexit"",""trial"":48,""time"":824159},{""event"":""blur"",""trial"":71,""time"":1058147},{""event"":""focus"",""trial"":71,""time"":1059658},{""event"":""blur"",""trial"":71,""time"":1060480},{""event"":""focus"",""trial"":71,""time"":1062019},{""event"":""blur"",""trial"":71,""time"":1062829},{""event"":""focus"",""trial"":71,""time"":1064441},{""event"":""blur"",""trial"":71,""time"":1066053},{""event"":""focus"",""trial"":71,""time"":1116175}]",NA,NA,NA,NA,NA,2,#D8271C,#741CD8,10,0,1,38,1,5475.9000000059605,39,0,4412.799999982119,0,0,experiment,NA,NA,1,0.7,0.3,2,3,1,1,NA
fcp-trial,91,1459719,0.0-10.0-0.0,voc_e2,12050,"[{""event"":""fullscreenenter"",""trial"":1,""time"":6584},{""event"":""blur"",""trial"":10,""time"":125222},{""event"":""focus"",""trial"":10,""time"":126137},{""event"":""blur"",""trial"":10,""time"":145978},{""event"":""focus"",""trial"":10,""time"":149943},{""event"":""blur"",""trial"":48,""time"":680687},{""event"":""focus"",""trial"":48,""time"":696806},{""event"":""blur"",""trial"":48,""time"":696843},{""event"":""focus"",""trial"":48,""time"":824158},{""event"":""fullscreenexit"",""trial"":48,""time"":824159},{""event"":""blur"",""trial"":71,""time"":1058147},{""event"":""focus"",""trial"":71,""time"":1059658},{""event"":""blur"",""trial"":71,""time"":1060480},{""event"":""focus"",""trial"":71,""time"":1062019},{""event"":""blur"",""trial"":71,""time"":1062829},{""event"":""focus"",""trial"":71,""time"":1064441},{""event"":""blur"",""trial"":71,""time"":1066053},{""event"":""focus"",""trial"":71,""time"":1116175}]",NA,NA,NA,NA,NA,5,#D8271C,#741CD8,10,0,1,38,1,4253.699999988079,37,1,987.2000000178814,10,1,experiment,NA,NA,1,0.7,0.3,2,3,2,1,NA
fcp-trial,92,1471864,0.0-11.0-0.0,voc_e2,12050,"[{""event"":""fullscreenenter"",""trial"":1,""time"":6584},{""event"":""blur"",""trial"":10,""time"":125222},{""event"":""focus"",""trial"":10,""time"":126137},{""event"":""blur"",""trial"":10,""time"":145978},{""event"":""focus"",""trial"":10,""time"":149943},{""event"":""blur"",""trial"":48,""time"":680687},{""event"":""focus"",""trial"":48,""time"":696806},{""event"":""blur"",""trial"":48,""time"":696843},{""event"":""focus"",""trial"":48,""time"":824158},{""event"":""fullscreenexit"",""trial"":48,""time"":824159},{""event"":""blur"",""trial"":71,""time"":1058147},{""event"":""focus"",""trial"":71,""time"":1059658},{""event"":""blur"",""trial"":71,""time"":1060480},{""event"":""focus"",""trial"":71,""time"":1062019},{""event"":""blur"",""trial"":71,""time"":1062829},{""event"":""focus"",""trial"":71,""time"":1064441},{""event"":""blur"",""trial"":71,""time"":1066053},{""event"":""focus"",""trial"":71,""time"":1116175}]",NA,NA,NA,NA,NA,4,#1CD855,#FA92F8,0,10,0,38,1,8046.9000000059605,39,0,2591.5999999940395,10,1,experiment,NA,NA,0,0.1,0.9,1,0,3,1,NA
fcp-trial,93,1477326,0.0-12.0-0.0,voc_e2,12050,"[{""event"":""fullscreenenter"",""trial"":1,""time"":6584},{""event"":""blur"",""trial"":10,""time"":125222},{""event"":""focus"",""trial"":10,""time"":126137},{""event"":""blur"",""trial"":10,""time"":145978},{""event"":""focus"",""trial"":10,""time"":149943},{""event"":""blur"",""trial"":48,""time"":680687},{""event"":""focus"",""trial"":48,""time"":696806},{""event"":""blur"",""trial"":48,""time"":696843},{""event"":""focus"",""trial"":48,""time"":824158},{""event"":""fullscreenexit"",""trial"":48,""time"":824159},{""event"":""blur"",""trial"":71,""time"":1058147},{""event"":""focus"",""trial"":71,""time"":1059658},{""event"":""blur"",""trial"":71,""time"":1060480},{""event"":""focus"",""trial"":71,""time"":1062019},{""event"":""blur"",""trial"":71,""time"":1062829},{""event"":""focus"",""trial"":71,""time"":1064441},{""event"":""blur"",""trial"":71,""time"":1066053},{""event"":""focus"",""trial"":71,""time"":1116175}]",NA,NA,NA,NA,NA,3,#3386FF,#D89F1C,0,10,0,38,1,2601.5,37,1,1353.9000000059605,0,0,experiment,NA,NA,2,0.5,0.5,5,4,4,1,NA
fcp-trial,94,1481575,0.0-13.0-0.0,voc_e2,12050,"[{""event"":""fullscreenenter"",""trial"":1,""time"":6584},{""event"":""blur"",""trial"":10,""time"":125222},{""event"":""focus"",""trial"":10,""time"":126137},{""event"":""blur"",""trial"":10,""time"":145978},{""event"":""focus"",""trial"":10,""time"":149943},{""event"":""blur"",""trial"":48,""time"":680687},{""event"":""focus"",""trial"":48,""time"":696806},{""event"":""blur"",""trial"":48,""time"":696843},{""event"":""focus"",""trial"":48,""time"":824158},{""event"":""fullscreenexit"",""trial"":48,""time"":824159},{""event"":""blur"",""trial"":71,""time"":1058147},{""event"":""focus"",""trial"":71,""time"":1059658},{""event"":""blur"",""trial"":71,""time"":1060480},{""event"":""focus"",""trial"":71,""time"":1062019},{""event"":""blur"",""trial"":71,""time"":1062829},{""event"":""focus"",""trial"":71,""time"":1064441},{""event"":""blur"",""trial"":71,""time"":1066053},{""event"":""focus"",""trial"":71,""time"":1116175}]",NA,NA,NA,NA,NA,5,#1CD855,#FA92F8,0,10,0,38,1,2001,39,0,742.4000000059605,10,1,experiment,NA,NA,0,0.1,0.9,1,0,5,1,NA
fcp-trial,95,1486809,0.0-14.0-0.0,voc_e2,12050,"[{""event"":""fullscreenenter"",""trial"":1,""time"":6584},{""event"":""blur"",""trial"":10,""time"":125222},{""event"":""focus"",""trial"":10,""time"":126137},{""event"":""blur"",""trial"":10,""time"":145978},{""event"":""focus"",""trial"":10,""time"":149943},{""event"":""blur"",""trial"":48,""time"":680687},{""event"":""focus"",""trial"":48,""time"":696806},{""event"":""blur"",""trial"":48,""time"":696843},{""event"":""focus"",""trial"":48,""time"":824158},{""event"":""fullscreenexit"",""trial"":48,""time"":824159},{""event"":""blur"",""trial"":71,""time"":1058147},{""event"":""focus"",""trial"":71,""time"":1059658},{""event"":""blur"",""trial"":71,""time"":1060480},{""event"":""focus"",""trial"":71,""time"":1062019},{""event"":""blur"",""trial"":71,""time"":1062829},{""event"":""focus"",""trial"":71,""time"":1064441},{""event"":""blur"",""trial"":71,""time"":1066053},{""event"":""focus"",""trial"":71,""time"":1116175}]",NA,NA,NA,NA,NA,6,#D8271C,#741CD8,10,0,1,38,1,2850.199999988079,39,0,880,0,0,experiment,NA,NA,1,0.7,0.3,2,3,6,1,NA
fcp-trial,96,1493093,0.0-15.0-0.0,voc_e2,12050,"[{""event"":""fullscreenenter"",""trial"":1,""time"":6584},{""event"":""blur"",""trial"":10,""time"":125222},{""event"":""focus"",""trial"":10,""time"":126137},{""event"":""blur"",""trial"":10,""time"":145978},{""event"":""focus"",""trial"":10,""time"":149943},{""event"":""blur"",""trial"":48,""time"":680687},{""event"":""focus"",""trial"":48,""time"":696806},{""event"":""blur"",""trial"":48,""time"":696843},{""event"":""focus"",""trial"":48,""time"":824158},{""event"":""fullscreenexit"",""trial"":48,""time"":824159},{""event"":""blur"",""trial"":71,""time"":1058147},{""event"":""focus"",""trial"":71,""time"":1059658},{""event"":""blur"",""trial"":71,""time"":1060480},{""event"":""focus"",""trial"":71,""time"":1062019},{""event"":""blur"",""trial"":71,""time"":1062829},{""event"":""focus"",""trial"":71,""time"":1064441},{""event"":""blur"",""trial"":71,""time"":1066053},{""event"":""focus"",""trial"":71,""time"":1116175}]",NA,NA,NA,NA,NA,2,#3386FF,#D89F1C,0,0,0,38,1,2157.699999988079,37,1,2622.300000011921,0,0,experiment,NA,NA,2,0.5,0.5,5,4,7,1,NA
fcp-trial,97,1497131,0.0-16.0-0.0,voc_e2,12050,"[{""event"":""fullscreenenter"",""trial"":1,""time"":6584},{""event"":""blur"",""trial"":10,""time"":125222},{""event"":""focus"",""trial"":10,""time"":126137},{""event"":""blur"",""trial"":10,""time"":145978},{""event"":""focus"",""trial"":10,""time"":149943},{""event"":""blur"",""trial"":48,""time"":680687},{""event"":""focus"",""trial"":48,""time"":696806},{""event"":""blur"",""trial"":48,""time"":696843},{""event"":""focus"",""trial"":48,""time"":824158},{""event"":""fullscreenexit"",""trial"":48,""time"":824159},{""event"":""blur"",""trial"":71,""time"":1058147},{""event"":""focus"",""trial"":71,""time"":1059658},{""event"":""blur"",""trial"":71,""time"":1060480},{""event"":""focus"",""trial"":71,""time"":1062019},{""event"":""blur"",""trial"":71,""time"":1062829},{""event"":""focus"",""trial"":71,""time"":1064441},{""event"":""blur"",""trial"":71,""time"":1066053},{""event"":""focus"",""trial"":71,""time"":1116175}]",NA,NA,NA,NA,NA,4,#741CD8,#D8271C,10,10,0,38,1,1961.5999999940395,39,0,571.1000000238419,10,1,experiment,NA,NA,1,0.3,0.7,3,2,8,1,NA
fcp-trial,98,1500498,0.0-17.0-0.0,voc_e2,12050,"[{""event"":""fullscreenenter"",""trial"":1,""time"":6584},{""event"":""blur"",""trial"":10,""time"":125222},{""event"":""focus"",""trial"":10,""time"":126137},{""event"":""blur"",""trial"":10,""time"":145978},{""event"":""focus"",""trial"":10,""time"":149943},{""event"":""blur"",""trial"":48,""time"":680687},{""event"":""focus"",""trial"":48,""time"":696806},{""event"":""blur"",""trial"":48,""time"":696843},{""event"":""focus"",""trial"":48,""time"":824158},{""event"":""fullscreenexit"",""trial"":48,""time"":824159},{""event"":""blur"",""trial"":71,""time"":1058147},{""event"":""focus"",""trial"":71,""time"":1059658},{""event"":""blur"",""trial"":71,""time"":1060480},{""event"":""focus"",""trial"":71,""time"":1062019},{""event"":""blur"",""trial"":71,""time"":1062829},{""event"":""focus"",""trial"":71,""time"":1064441},{""event"":""blur"",""trial"":71,""time"":1066053},{""event"":""focus"",""trial"":71,""time"":1116175}]",NA,NA,NA,NA,NA,4,#D89F1C,#3386FF,0,0,1,38,1,1373.699999988079,39,0,489.59999999403954,0,0,experiment,NA,NA,2,0.5,0.5,4,5,9,1,NA
fcp-trial,99,1503679,0.0-18.0-0.0,voc_e2,12050,"[{""event"":""fullscreenenter"",""trial"":1,""time"":6584},{""event"":""blur"",""trial"":10,""time"":125222},{""event"":""focus"",""trial"":10,""time"":126137},{""event"":""blur"",""trial"":10,""time"":145978},{""event"":""focus"",""trial"":10,""time"":149943},{""event"":""blur"",""trial"":48,""time"":680687},{""event"":""focus"",""trial"":48,""time"":696806},{""event"":""blur"",""trial"":48,""time"":696843},{""event"":""focus"",""trial"":48,""time"":824158},{""event"":""fullscreenexit"",""trial"":48,""time"":824159},{""event"":""blur"",""trial"":71,""time"":1058147},{""event"":""focus"",""trial"":71,""time"":1059658},{""event"":""blur"",""trial"":71,""time"":1060480},{""event"":""focus"",""trial"":71,""time"":1062019},{""event"":""blur"",""trial"":71,""time"":1062829},{""event"":""focus"",""trial"":71,""time"":1064441},{""event"":""blur"",""trial"":71,""time"":1066053},{""event"":""focus"",""trial"":71,""time"":1116175}]",NA,NA,NA,NA,NA,3,#FA92F8,#1CD855,10,0,1,38,1,1184.1000000238419,39,0,489.09999999403954,0,0,experiment,NA,NA,0,0.9,0.1,0,1,10,1,NA
fcp-trial,100,1507038,0.0-19.0-0.0,voc_e2,12050,"[{""event"":""fullscreenenter"",""trial"":1,""time"":6584},{""event"":""blur"",""trial"":10,""time"":125222},{""event"":""focus"",""trial"":10,""time"":126137},{""event"":""blur"",""trial"":10,""time"":145978},{""event"":""focus"",""trial"":10,""time"":149943},{""event"":""blur"",""trial"":48,""time"":680687},{""event"":""focus"",""trial"":48,""time"":696806},{""event"":""blur"",""trial"":48,""time"":696843},{""event"":""focus"",""trial"":48,""time"":824158},{""event"":""fullscreenexit"",""trial"":48,""time"":824159},{""event"":""blur"",""trial"":71,""time"":1058147},{""event"":""focus"",""trial"":71,""time"":1059658},{""event"":""blur"",""trial"":71,""time"":1060480},{""event"":""focus"",""trial"":71,""time"":1062019},{""event"":""blur"",""trial"":71,""time"":1062829},{""event"":""focus"",""trial"":71,""time"":1064441},{""event"":""blur"",""trial"":71,""time"":1066053},{""event"":""focus"",""trial"":71,""time"":1116175}]",NA,NA,NA,NA,NA,3,#D8271C,#741CD8,0,0,1,38,1,1310.199999988079,37,1,541.5999999940395,0,1,experiment,NA,NA,1,0.7,0.3,2,3,11,1,NA
fcp-trial,101,1510703,0.0-20.0-0.0,voc_e2,12050,"[{""event"":""fullscreenenter"",""trial"":1,""time"":6584},{""event"":""blur"",""trial"":10,""time"":125222},{""event"":""focus"",""trial"":10,""time"":126137},{""event"":""blur"",""trial"":10,""time"":145978},{""event"":""focus"",""trial"":10,""time"":149943},{""event"":""blur"",""trial"":48,""time"":680687},{""event"":""focus"",""trial"":48,""time"":696806},{""event"":""blur"",""trial"":48,""time"":696843},{""event"":""focus"",""trial"":48,""time"":824158},{""event"":""fullscreenexit"",""trial"":48,""time"":824159},{""event"":""blur"",""trial"":71,""time"":1058147},{""event"":""focus"",""trial"":71,""time"":1059658},{""event"":""blur"",""trial"":71,""time"":1060480},{""event"":""focus"",""trial"":71,""time"":1062019},{""event"":""blur"",""trial"":71,""time"":1062829},{""event"":""focus"",""trial"":71,""time"":1064441},{""event"":""blur"",""trial"":71,""time"":1066053},{""event"":""focus"",""trial"":71,""time"":1116175}]",NA,NA,NA,NA,NA,6,#D89F1C,#3386FF,0,0,1,38,1,1573.0999999940395,39,0,585.2000000178814,0,0,experiment,NA,NA,2,0.5,0.5,4,5,12,1,NA
fcp-trial,102,1515572,0.0-21.0-0.0,voc_e2,12050,"[{""event"":""fullscreenenter"",""trial"":1,""time"":6584},{""event"":""blur"",""trial"":10,""time"":125222},{""event"":""focus"",""trial"":10,""time"":126137},{""event"":""blur"",""trial"":10,""time"":145978},{""event"":""focus"",""trial"":10,""time"":149943},{""event"":""blur"",""trial"":48,""time"":680687},{""event"":""focus"",""trial"":48,""time"":696806},{""event"":""blur"",""trial"":48,""time"":696843},{""event"":""focus"",""trial"":48,""time"":824158},{""event"":""fullscreenexit"",""trial"":48,""time"":824159},{""event"":""blur"",""trial"":71,""time"":1058147},{""event"":""focus"",""trial"":71,""time"":1059658},{""event"":""blur"",""trial"":71,""time"":1060480},{""event"":""focus"",""trial"":71,""time"":1062019},{""event"":""blur"",""trial"":71,""time"":1062829},{""event"":""focus"",""trial"":71,""time"":1064441},{""event"":""blur"",""trial"":71,""time"":1066053},{""event"":""focus"",""trial"":71,""time"":1116175}]",NA,NA,NA,NA,NA,1,#FA92F8,#1CD855,10,0,1,40,0,2235.2000000178814,37,1,1125.6000000238419,10,1,experiment,NA,NA,0,0.9,0.1,0,1,13,1,NA
fcp-trial,103,1520782,0.0-22.0-0.0,voc_e2,12050,"[{""event"":""fullscreenenter"",""trial"":1,""time"":6584},{""event"":""blur"",""trial"":10,""time"":125222},{""event"":""focus"",""trial"":10,""time"":126137},{""event"":""blur"",""trial"":10,""time"":145978},{""event"":""focus"",""trial"":10,""time"":149943},{""event"":""blur"",""trial"":48,""time"":680687},{""event"":""focus"",""trial"":48,""time"":696806},{""event"":""blur"",""trial"":48,""time"":696843},{""event"":""focus"",""trial"":48,""time"":824158},{""event"":""fullscreenexit"",""trial"":48,""time"":824159},{""event"":""blur"",""trial"":71,""time"":1058147},{""event"":""focus"",""trial"":71,""time"":1059658},{""event"":""blur"",""trial"":71,""time"":1060480},{""event"":""focus"",""trial"":71,""time"":1062019},{""event"":""blur"",""trial"":71,""time"":1062829},{""event"":""focus"",""trial"":71,""time"":1064441},{""event"":""blur"",""trial"":71,""time"":1066053},{""event"":""focus"",""trial"":71,""time"":1116175}]",NA,NA,NA,NA,NA,5,#D89F1C,#3386FF,10,0,1,40,0,2240.0999999940395,39,0,1462.199999988079,0,0,experiment,NA,NA,2,0.5,0.5,4,5,14,1,NA
fcp-trial,104,1525829,0.0-23.0-0.0,voc_e2,12050,"[{""event"":""fullscreenenter"",""trial"":1,""time"":6584},{""event"":""blur"",""trial"":10,""time"":125222},{""event"":""focus"",""trial"":10,""time"":126137},{""event"":""blur"",""trial"":10,""time"":145978},{""event"":""focus"",""trial"":10,""time"":149943},{""event"":""blur"",""trial"":48,""time"":680687},{""event"":""focus"",""trial"":48,""time"":696806},{""event"":""blur"",""trial"":48,""time"":696843},{""event"":""focus"",""trial"":48,""time"":824158},{""event"":""fullscreenexit"",""trial"":48,""time"":824159},{""event"":""blur"",""trial"":71,""time"":1058147},{""event"":""focus"",""trial"":71,""time"":1059658},{""event"":""blur"",""trial"":71,""time"":1060480},{""event"":""focus"",""trial"":71,""time"":1062019},{""event"":""blur"",""trial"":71,""time"":1062829},{""event"":""focus"",""trial"":71,""time"":1064441},{""event"":""blur"",""trial"":71,""time"":1066053},{""event"":""focus"",""trial"":71,""time"":1116175}]",NA,NA,NA,NA,NA,0,#D8271C,#741CD8,10,10,1,40,0,2325.0999999940395,39,0,1214.300000011921,10,0,experiment,NA,NA,1,0.7,0.3,2,3,15,1,NA
fcp-trial,105,1530688,0.0-24.0-0.0,voc_e2,12050,"[{""event"":""fullscreenenter"",""trial"":1,""time"":6584},{""event"":""blur"",""trial"":10,""time"":125222},{""event"":""focus"",""trial"":10,""time"":126137},{""event"":""blur"",""trial"":10,""time"":145978},{""event"":""focus"",""trial"":10,""time"":149943},{""event"":""blur"",""trial"":48,""time"":680687},{""event"":""focus"",""trial"":48,""time"":696806},{""event"":""blur"",""trial"":48,""time"":696843},{""event"":""focus"",""trial"":48,""time"":824158},{""event"":""fullscreenexit"",""trial"":48,""time"":824159},{""event"":""blur"",""trial"":71,""time"":1058147},{""event"":""focus"",""trial"":71,""time"":1059658},{""event"":""blur"",""trial"":71,""time"":1060480},{""event"":""focus"",""trial"":71,""time"":1062019},{""event"":""blur"",""trial"":71,""time"":1062829},{""event"":""focus"",""trial"":71,""time"":1064441},{""event"":""blur"",""trial"":71,""time"":1066053},{""event"":""focus"",""trial"":71,""time"":1116175}]",NA,NA,NA,NA,NA,6,#FA92F8,#1CD855,10,0,1,40,0,1692.1000000238419,39,0,1658.0999999940395,0,0,experiment,NA,NA,0,0.9,0.1,0,1,16,1,NA
fcp-trial,106,1535212,0.0-25.0-0.0,voc_e2,12050,"[{""event"":""fullscreenenter"",""trial"":1,""time"":6584},{""event"":""blur"",""trial"":10,""time"":125222},{""event"":""focus"",""trial"":10,""time"":126137},{""event"":""blur"",""trial"":10,""time"":145978},{""event"":""focus"",""trial"":10,""time"":149943},{""event"":""blur"",""trial"":48,""time"":680687},{""event"":""focus"",""trial"":48,""time"":696806},{""event"":""blur"",""trial"":48,""time"":696843},{""event"":""focus"",""trial"":48,""time"":824158},{""event"":""fullscreenexit"",""trial"":48,""time"":824159},{""event"":""blur"",""trial"":71,""time"":1058147},{""event"":""focus"",""trial"":71,""time"":1059658},{""event"":""blur"",""trial"":71,""time"":1060480},{""event"":""focus"",""trial"":71,""time"":1062019},{""event"":""blur"",""trial"":71,""time"":1062829},{""event"":""focus"",""trial"":71,""time"":1064441},{""event"":""blur"",""trial"":71,""time"":1066053},{""event"":""focus"",""trial"":71,""time"":1116175}]",NA,NA,NA,NA,NA,0,#3386FF,#D89F1C,0,0,0,38,1,1133,39,0,1882.0999999940395,0,1,experiment,NA,NA,2,0.5,0.5,5,4,17,1,NA
fcp-trial,107,1538016,0.0-26.0-0.0,voc_e2,12050,"[{""event"":""fullscreenenter"",""trial"":1,""time"":6584},{""event"":""blur"",""trial"":10,""time"":125222},{""event"":""focus"",""trial"":10,""time"":126137},{""event"":""blur"",""trial"":10,""time"":145978},{""event"":""focus"",""trial"":10,""time"":149943},{""event"":""blur"",""trial"":48,""time"":680687},{""event"":""focus"",""trial"":48,""time"":696806},{""event"":""blur"",""trial"":48,""time"":696843},{""event"":""focus"",""trial"":48,""time"":824158},{""event"":""fullscreenexit"",""trial"":48,""time"":824159},{""event"":""blur"",""trial"":71,""time"":1058147},{""event"":""focus"",""trial"":71,""time"":1059658},{""event"":""blur"",""trial"":71,""time"":1060480},{""event"":""focus"",""trial"":71,""time"":1062019},{""event"":""blur"",""trial"":71,""time"":1062829},{""event"":""focus"",""trial"":71,""time"":1064441},{""event"":""blur"",""trial"":71,""time"":1066053},{""event"":""focus"",""trial"":71,""time"":1116175}]",NA,NA,NA,NA,NA,1,#741CD8,#D8271C,0,10,0,40,0,529.5999999940395,39,0,768.0999999940395,10,1,experiment,NA,NA,1,0.3,0.7,3,2,18,1,NA
fcp-trial,108,1543099,0.0-27.0-0.0,voc_e2,12050,"[{""event"":""fullscreenenter"",""trial"":1,""time"":6584},{""event"":""blur"",""trial"":10,""time"":125222},{""event"":""focus"",""trial"":10,""time"":126137},{""event"":""blur"",""trial"":10,""time"":145978},{""event"":""focus"",""trial"":10,""time"":149943},{""event"":""blur"",""trial"":48,""time"":680687},{""event"":""focus"",""trial"":48,""time"":696806},{""event"":""blur"",""trial"":48,""time"":696843},{""event"":""focus"",""trial"":48,""time"":824158},{""event"":""fullscreenexit"",""trial"":48,""time"":824159},{""event"":""blur"",""trial"":71,""time"":1058147},{""event"":""focus"",""trial"":71,""time"":1059658},{""event"":""blur"",""trial"":71,""time"":1060480},{""event"":""focus"",""trial"":71,""time"":1062019},{""event"":""blur"",""trial"":71,""time"":1062829},{""event"":""focus"",""trial"":71,""time"":1064441},{""event"":""blur"",""trial"":71,""time"":1066053},{""event"":""focus"",""trial"":71,""time"":1116175}]",NA,NA,NA,NA,NA,0,#1CD855,#FA92F8,0,10,0,40,0,2887.9000000059605,39,0,688.8000000119209,10,1,experiment,NA,NA,0,0.1,0.9,1,0,19,1,NA
fcp-trial,109,1546539,0.0-28.0-0.0,voc_e2,12050,"[{""event"":""fullscreenenter"",""trial"":1,""time"":6584},{""event"":""blur"",""trial"":10,""time"":125222},{""event"":""focus"",""trial"":10,""time"":126137},{""event"":""blur"",""trial"":10,""time"":145978},{""event"":""focus"",""trial"":10,""time"":149943},{""event"":""blur"",""trial"":48,""time"":680687},{""event"":""focus"",""trial"":48,""time"":696806},{""event"":""blur"",""trial"":48,""time"":696843},{""event"":""focus"",""trial"":48,""time"":824158},{""event"":""fullscreenexit"",""trial"":48,""time"":824159},{""event"":""blur"",""trial"":71,""time"":1058147},{""event"":""focus"",""trial"":71,""time"":1059658},{""event"":""blur"",""trial"":71,""time"":1060480},{""event"":""focus"",""trial"":71,""time"":1062019},{""event"":""blur"",""trial"":71,""time"":1062829},{""event"":""focus"",""trial"":71,""time"":1064441},{""event"":""blur"",""trial"":71,""time"":1066053},{""event"":""focus"",""trial"":71,""time"":1116175}]",NA,NA,NA,NA,NA,2,#FA92F8,#1CD855,10,0,1,40,0,1303.7999999821186,39,0,632.1000000238419,0,0,experiment,NA,NA,0,0.9,0.1,0,1,20,1,NA
fcp-trial,110,1552079,0.0-29.0-0.0,voc_e2,12050,"[{""event"":""fullscreenenter"",""trial"":1,""time"":6584},{""event"":""blur"",""trial"":10,""time"":125222},{""event"":""focus"",""trial"":10,""time"":126137},{""event"":""blur"",""trial"":10,""time"":145978},{""event"":""focus"",""trial"":10,""time"":149943},{""event"":""blur"",""trial"":48,""time"":680687},{""event"":""focus"",""trial"":48,""time"":696806},{""event"":""blur"",""trial"":48,""time"":696843},{""event"":""focus"",""trial"":48,""time"":824158},{""event"":""fullscreenexit"",""trial"":48,""time"":824159},{""event"":""blur"",""trial"":71,""time"":1058147},{""event"":""focus"",""trial"":71,""time"":1059658},{""event"":""blur"",""trial"":71,""time"":1060480},{""event"":""focus"",""trial"":71,""time"":1062019},{""event"":""blur"",""trial"":71,""time"":1062829},{""event"":""focus"",""trial"":71,""time"":1064441},{""event"":""blur"",""trial"":71,""time"":1066053},{""event"":""focus"",""trial"":71,""time"":1116175}]",NA,NA,NA,NA,NA,1,#D89F1C,#3386FF,0,10,1,40,0,3111,39,0,922.1000000238419,10,0,experiment,NA,NA,2,0.5,0.5,4,5,21,1,NA
fcp-trial,111,1555512,0.0-30.0-0.0,voc_e2,12050,"[{""event"":""fullscreenenter"",""trial"":1,""time"":6584},{""event"":""blur"",""trial"":10,""time"":125222},{""event"":""focus"",""trial"":10,""time"":126137},{""event"":""blur"",""trial"":10,""time"":145978},{""event"":""focus"",""trial"":10,""time"":149943},{""event"":""blur"",""trial"":48,""time"":680687},{""event"":""focus"",""trial"":48,""time"":696806},{""event"":""blur"",""trial"":48,""time"":696843},{""event"":""focus"",""trial"":48,""time"":824158},{""event"":""fullscreenexit"",""trial"":48,""time"":824159},{""event"":""blur"",""trial"":71,""time"":1058147},{""event"":""focus"",""trial"":71,""time"":1059658},{""event"":""blur"",""trial"":71,""time"":1060480},{""event"":""focus"",""trial"":71,""time"":1062019},{""event"":""blur"",""trial"":71,""time"":1062829},{""event"":""focus"",""trial"":71,""time"":1064441},{""event"":""blur"",""trial"":71,""time"":1066053},{""event"":""focus"",""trial"":71,""time"":1116175}]",NA,NA,NA,NA,NA,2,#741CD8,#D8271C,10,0,0,40,0,545.1999999880791,37,1,1380.5,10,0,experiment,NA,NA,1,0.3,0.7,3,2,22,1,NA
fcp-trial,112,1558647,0.0-31.0-0.0,voc_e2,12050,"[{""event"":""fullscreenenter"",""trial"":1,""time"":6584},{""event"":""blur"",""trial"":10,""time"":125222},{""event"":""focus"",""trial"":10,""time"":126137},{""event"":""blur"",""trial"":10,""time"":145978},{""event"":""focus"",""trial"":10,""time"":149943},{""event"":""blur"",""trial"":48,""time"":680687},{""event"":""focus"",""trial"":48,""time"":696806},{""event"":""blur"",""trial"":48,""time"":696843},{""event"":""focus"",""trial"":48,""time"":824158},{""event"":""fullscreenexit"",""trial"":48,""time"":824159},{""event"":""blur"",""trial"":71,""time"":1058147},{""event"":""focus"",""trial"":71,""time"":1059658},{""event"":""blur"",""trial"":71,""time"":1060480},{""event"":""focus"",""trial"":71,""time"":1062019},{""event"":""blur"",""trial"":71,""time"":1062829},{""event"":""focus"",""trial"":71,""time"":1064441},{""event"":""blur"",""trial"":71,""time"":1066053},{""event"":""focus"",""trial"":71,""time"":1116175}]",NA,NA,NA,NA,NA,4,#3386FF,#D89F1C,0,10,0,40,0,1124.300000011921,39,0,503.2000000178814,10,1,experiment,NA,NA,2,0.5,0.5,5,4,23,1,NA
fcp-trial,113,1561433,0.0-32.0-0.0,voc_e2,12050,"[{""event"":""fullscreenenter"",""trial"":1,""time"":6584},{""event"":""blur"",""trial"":10,""time"":125222},{""event"":""focus"",""trial"":10,""time"":126137},{""event"":""blur"",""trial"":10,""time"":145978},{""event"":""focus"",""trial"":10,""time"":149943},{""event"":""blur"",""trial"":48,""time"":680687},{""event"":""focus"",""trial"":48,""time"":696806},{""event"":""blur"",""trial"":48,""time"":696843},{""event"":""focus"",""trial"":48,""time"":824158},{""event"":""fullscreenexit"",""trial"":48,""time"":824159},{""event"":""blur"",""trial"":71,""time"":1058147},{""event"":""focus"",""trial"":71,""time"":1059658},{""event"":""blur"",""trial"":71,""time"":1060480},{""event"":""focus"",""trial"":71,""time"":1062019},{""event"":""blur"",""trial"":71,""time"":1062829},{""event"":""focus"",""trial"":71,""time"":1064441},{""event"":""blur"",""trial"":71,""time"":1066053},{""event"":""focus"",""trial"":71,""time"":1116175}]",NA,NA,NA,NA,NA,0,#FA92F8,#1CD855,10,0,1,40,0,779.1999999880791,39,0,497.2000000178814,0,0,experiment,NA,NA,0,0.9,0.1,0,1,24,1,NA
fcp-trial,114,1566037,0.0-33.0-0.0,voc_e2,12050,"[{""event"":""fullscreenenter"",""trial"":1,""time"":6584},{""event"":""blur"",""trial"":10,""time"":125222},{""event"":""focus"",""trial"":10,""time"":126137},{""event"":""blur"",""trial"":10,""time"":145978},{""event"":""focus"",""trial"":10,""time"":149943},{""event"":""blur"",""trial"":48,""time"":680687},{""event"":""focus"",""trial"":48,""time"":696806},{""event"":""blur"",""trial"":48,""time"":696843},{""event"":""focus"",""trial"":48,""time"":824158},{""event"":""fullscreenexit"",""trial"":48,""time"":824159},{""event"":""blur"",""trial"":71,""time"":1058147},{""event"":""focus"",""trial"":71,""time"":1059658},{""event"":""blur"",""trial"":71,""time"":1060480},{""event"":""focus"",""trial"":71,""time"":1062019},{""event"":""blur"",""trial"":71,""time"":1062829},{""event"":""focus"",""trial"":71,""time"":1064441},{""event"":""blur"",""trial"":71,""time"":1066053},{""event"":""focus"",""trial"":71,""time"":1116175}]",NA,NA,NA,NA,NA,1,#3386FF,#D89F1C,10,10,0,40,0,2101.7000000178814,39,0,994.9000000059605,10,1,experiment,NA,NA,2,0.5,0.5,5,4,25,1,NA
fcp-trial,115,1569491,0.0-34.0-0.0,voc_e2,12050,"[{""event"":""fullscreenenter"",""trial"":1,""time"":6584},{""event"":""blur"",""trial"":10,""time"":125222},{""event"":""focus"",""trial"":10,""time"":126137},{""event"":""blur"",""trial"":10,""time"":145978},{""event"":""focus"",""trial"":10,""time"":149943},{""event"":""blur"",""trial"":48,""time"":680687},{""event"":""focus"",""trial"":48,""time"":696806},{""event"":""blur"",""trial"":48,""time"":696843},{""event"":""focus"",""trial"":48,""time"":824158},{""event"":""fullscreenexit"",""trial"":48,""time"":824159},{""event"":""blur"",""trial"":71,""time"":1058147},{""event"":""focus"",""trial"":71,""time"":1059658},{""event"":""blur"",""trial"":71,""time"":1060480},{""event"":""focus"",""trial"":71,""time"":1062019},{""event"":""blur"",""trial"":71,""time"":1062829},{""event"":""focus"",""trial"":71,""time"":1064441},{""event"":""blur"",""trial"":71,""time"":1066053},{""event"":""focus"",""trial"":71,""time"":1116175}]",NA,NA,NA,NA,NA,5,#3386FF,#D89F1C,10,10,0,40,0,849.0999999940395,39,0,1097.4000000059605,10,1,experiment,NA,NA,2,0.5,0.5,5,4,26,1,NA
fcp-trial,116,1574225,0.0-35.0-0.0,voc_e2,12050,"[{""event"":""fullscreenenter"",""trial"":1,""time"":6584},{""event"":""blur"",""trial"":10,""time"":125222},{""event"":""focus"",""trial"":10,""time"":126137},{""event"":""blur"",""trial"":10,""time"":145978},{""event"":""focus"",""trial"":10,""time"":149943},{""event"":""blur"",""trial"":48,""time"":680687},{""event"":""focus"",""trial"":48,""time"":696806},{""event"":""blur"",""trial"":48,""time"":696843},{""event"":""focus"",""trial"":48,""time"":824158},{""event"":""fullscreenexit"",""trial"":48,""time"":824159},{""event"":""blur"",""trial"":71,""time"":1058147},{""event"":""focus"",""trial"":71,""time"":1059658},{""event"":""blur"",""trial"":71,""time"":1060480},{""event"":""focus"",""trial"":71,""time"":1062019},{""event"":""blur"",""trial"":71,""time"":1062829},{""event"":""focus"",""trial"":71,""time"":1064441},{""event"":""blur"",""trial"":71,""time"":1066053},{""event"":""focus"",""trial"":71,""time"":1116175}]",NA,NA,NA,NA,NA,0,#D8271C,#741CD8,10,0,1,40,0,1761.9000000059605,39,0,1466.800000011921,0,0,experiment,NA,NA,1,0.7,0.3,2,3,27,1,NA
fcp-trial,117,1578075,0.0-36.0-0.0,voc_e2,12050,"[{""event"":""fullscreenenter"",""trial"":1,""time"":6584},{""event"":""blur"",""trial"":10,""time"":125222},{""event"":""focus"",""trial"":10,""time"":126137},{""event"":""blur"",""trial"":10,""time"":145978},{""event"":""focus"",""trial"":10,""time"":149943},{""event"":""blur"",""trial"":48,""time"":680687},{""event"":""focus"",""trial"":48,""time"":696806},{""event"":""blur"",""trial"":48,""time"":696843},{""event"":""focus"",""trial"":48,""time"":824158},{""event"":""fullscreenexit"",""trial"":48,""time"":824159},{""event"":""blur"",""trial"":71,""time"":1058147},{""event"":""focus"",""trial"":71,""time"":1059658},{""event"":""blur"",""trial"":71,""time"":1060480},{""event"":""focus"",""trial"":71,""time"":1062019},{""event"":""blur"",""trial"":71,""time"":1062829},{""event"":""focus"",""trial"":71,""time"":1064441},{""event"":""blur"",""trial"":71,""time"":1066053},{""event"":""focus"",""trial"":71,""time"":1116175}]",NA,NA,NA,NA,NA,5,#FA92F8,#1CD855,10,10,1,40,0,613.6999999880791,37,1,1730.800000011921,10,1,experiment,NA,NA,0,0.9,0.1,0,1,28,1,NA
fcp-trial,118,1582692,0.0-37.0-0.0,voc_e2,12050,"[{""event"":""fullscreenenter"",""trial"":1,""time"":6584},{""event"":""blur"",""trial"":10,""time"":125222},{""event"":""focus"",""trial"":10,""time"":126137},{""event"":""blur"",""trial"":10,""time"":145978},{""event"":""focus"",""trial"":10,""time"":149943},{""event"":""blur"",""trial"":48,""time"":680687},{""event"":""focus"",""trial"":48,""time"":696806},{""event"":""blur"",""trial"":48,""time"":696843},{""event"":""focus"",""trial"":48,""time"":824158},{""event"":""fullscreenexit"",""trial"":48,""time"":824159},{""event"":""blur"",""trial"":71,""time"":1058147},{""event"":""focus"",""trial"":71,""time"":1059658},{""event"":""blur"",""trial"":71,""time"":1060480},{""event"":""focus"",""trial"":71,""time"":1062019},{""event"":""blur"",""trial"":71,""time"":1062829},{""event"":""focus"",""trial"":71,""time"":1064441},{""event"":""blur"",""trial"":71,""time"":1066053},{""event"":""focus"",""trial"":71,""time"":1116175}]",NA,NA,NA,NA,NA,6,#D8271C,#741CD8,0,0,1,40,0,1878.5,37,1,1228.5999999940395,0,1,experiment,NA,NA,1,0.7,0.3,2,3,29,1,NA
fcp-trial,119,1585981,0.0-38.0-0.0,voc_e2,12050,"[{""event"":""fullscreenenter"",""trial"":1,""time"":6584},{""event"":""blur"",""trial"":10,""time"":125222},{""event"":""focus"",""trial"":10,""time"":126137},{""event"":""blur"",""trial"":10,""time"":145978},{""event"":""focus"",""trial"":10,""time"":149943},{""event"":""blur"",""trial"":48,""time"":680687},{""event"":""focus"",""trial"":48,""time"":696806},{""event"":""blur"",""trial"":48,""time"":696843},{""event"":""focus"",""trial"":48,""time"":824158},{""event"":""fullscreenexit"",""trial"":48,""time"":824159},{""event"":""blur"",""trial"":71,""time"":1058147},{""event"":""focus"",""trial"":71,""time"":1059658},{""event"":""blur"",""trial"":71,""time"":1060480},{""event"":""focus"",""trial"":71,""time"":1062019},{""event"":""blur"",""trial"":71,""time"":1062829},{""event"":""focus"",""trial"":71,""time"":1064441},{""event"":""blur"",""trial"":71,""time"":1066053},{""event"":""focus"",""trial"":71,""time"":1116175}]",NA,NA,NA,NA,NA,3,#FA92F8,#1CD855,10,10,1,40,0,869.8000000119209,39,0,912.6000000238419,10,0,experiment,NA,NA,0,0.9,0.1,0,1,30,1,NA
fcp-trial,120,1591086,0.0-39.0-0.0,voc_e2,12050,"[{""event"":""fullscreenenter"",""trial"":1,""time"":6584},{""event"":""blur"",""trial"":10,""time"":125222},{""event"":""focus"",""trial"":10,""time"":126137},{""event"":""blur"",""trial"":10,""time"":145978},{""event"":""focus"",""trial"":10,""time"":149943},{""event"":""blur"",""trial"":48,""time"":680687},{""event"":""focus"",""trial"":48,""time"":696806},{""event"":""blur"",""trial"":48,""time"":696843},{""event"":""focus"",""trial"":48,""time"":824158},{""event"":""fullscreenexit"",""trial"":48,""time"":824159},{""event"":""blur"",""trial"":71,""time"":1058147},{""event"":""focus"",""trial"":71,""time"":1059658},{""event"":""blur"",""trial"":71,""time"":1060480},{""event"":""focus"",""trial"":71,""time"":1062019},{""event"":""blur"",""trial"":71,""time"":1062829},{""event"":""focus"",""trial"":71,""time"":1064441},{""event"":""blur"",""trial"":71,""time"":1066053},{""event"":""focus"",""trial"":71,""time"":1116175}]",NA,NA,NA,NA,NA,6,#3386FF,#D89F1C,0,10,0,40,0,1201.9000000059605,39,0,2396.2000000178814,10,1,experiment,NA,NA,2,0.5,0.5,5,4,31,1,NA
fcp-trial,121,1594734,0.0-40.0-0.0,voc_e2,12050,"[{""event"":""fullscreenenter"",""trial"":1,""time"":6584},{""event"":""blur"",""trial"":10,""time"":125222},{""event"":""focus"",""trial"":10,""time"":126137},{""event"":""blur"",""trial"":10,""time"":145978},{""event"":""focus"",""trial"":10,""time"":149943},{""event"":""blur"",""trial"":48,""time"":680687},{""event"":""focus"",""trial"":48,""time"":696806},{""event"":""blur"",""trial"":48,""time"":696843},{""event"":""focus"",""trial"":48,""time"":824158},{""event"":""fullscreenexit"",""trial"":48,""time"":824159},{""event"":""blur"",""trial"":71,""time"":1058147},{""event"":""focus"",""trial"":71,""time"":1059658},{""event"":""blur"",""trial"":71,""time"":1060480},{""event"":""focus"",""trial"":71,""time"":1062019},{""event"":""blur"",""trial"":71,""time"":1062829},{""event"":""focus"",""trial"":71,""time"":1064441},{""event"":""blur"",""trial"":71,""time"":1066053},{""event"":""focus"",""trial"":71,""time"":1116175}]",NA,NA,NA,NA,NA,1,#1CD855,#FA92F8,0,10,0,40,0,1117.199999988079,39,0,1024.0999999940395,10,1,experiment,NA,NA,0,0.1,0.9,1,0,32,1,NA
fcp-trial,122,1598068,0.0-41.0-0.0,voc_e2,12050,"[{""event"":""fullscreenenter"",""trial"":1,""time"":6584},{""event"":""blur"",""trial"":10,""time"":125222},{""event"":""focus"",""trial"":10,""time"":126137},{""event"":""blur"",""trial"":10,""time"":145978},{""event"":""focus"",""trial"":10,""time"":149943},{""event"":""blur"",""trial"":48,""time"":680687},{""event"":""focus"",""trial"":48,""time"":696806},{""event"":""blur"",""trial"":48,""time"":696843},{""event"":""focus"",""trial"":48,""time"":824158},{""event"":""fullscreenexit"",""trial"":48,""time"":824159},{""event"":""blur"",""trial"":71,""time"":1058147},{""event"":""focus"",""trial"":71,""time"":1059658},{""event"":""blur"",""trial"":71,""time"":1060480},{""event"":""focus"",""trial"":71,""time"":1062019},{""event"":""blur"",""trial"":71,""time"":1062829},{""event"":""focus"",""trial"":71,""time"":1064441},{""event"":""blur"",""trial"":71,""time"":1066053},{""event"":""focus"",""trial"":71,""time"":1116175}]",NA,NA,NA,NA,NA,3,#D89F1C,#3386FF,10,10,1,40,0,916.0999999940395,37,1,909.4000000059605,10,1,experiment,NA,NA,2,0.5,0.5,4,5,33,1,NA
fcp-trial,123,1601412,0.0-42.0-0.0,voc_e2,12050,"[{""event"":""fullscreenenter"",""trial"":1,""time"":6584},{""event"":""blur"",""trial"":10,""time"":125222},{""event"":""focus"",""trial"":10,""time"":126137},{""event"":""blur"",""trial"":10,""time"":145978},{""event"":""focus"",""trial"":10,""time"":149943},{""event"":""blur"",""trial"":48,""time"":680687},{""event"":""focus"",""trial"":48,""time"":696806},{""event"":""blur"",""trial"":48,""time"":696843},{""event"":""focus"",""trial"":48,""time"":824158},{""event"":""fullscreenexit"",""trial"":48,""time"":824159},{""event"":""blur"",""trial"":71,""time"":1058147},{""event"":""focus"",""trial"":71,""time"":1059658},{""event"":""blur"",""trial"":71,""time"":1060480},{""event"":""focus"",""trial"":71,""time"":1062019},{""event"":""blur"",""trial"":71,""time"":1062829},{""event"":""focus"",""trial"":71,""time"":1064441},{""event"":""blur"",""trial"":71,""time"":1066053},{""event"":""focus"",""trial"":71,""time"":1116175}]",NA,NA,NA,NA,NA,4,#D8271C,#741CD8,0,0,1,40,0,827.2000000178814,37,1,1006.1999999880791,0,1,experiment,NA,NA,1,0.7,0.3,2,3,34,1,NA
fcp-trial,124,1604807,0.0-43.0-0.0,voc_e2,12050,"[{""event"":""fullscreenenter"",""trial"":1,""time"":6584},{""event"":""blur"",""trial"":10,""time"":125222},{""event"":""focus"",""trial"":10,""time"":126137},{""event"":""blur"",""trial"":10,""time"":145978},{""event"":""focus"",""trial"":10,""time"":149943},{""event"":""blur"",""trial"":48,""time"":680687},{""event"":""focus"",""trial"":48,""time"":696806},{""event"":""blur"",""trial"":48,""time"":696843},{""event"":""focus"",""trial"":48,""time"":824158},{""event"":""fullscreenexit"",""trial"":48,""time"":824159},{""event"":""blur"",""trial"":71,""time"":1058147},{""event"":""focus"",""trial"":71,""time"":1059658},{""event"":""blur"",""trial"":71,""time"":1060480},{""event"":""focus"",""trial"":71,""time"":1062019},{""event"":""blur"",""trial"":71,""time"":1062829},{""event"":""focus"",""trial"":71,""time"":1064441},{""event"":""blur"",""trial"":71,""time"":1066053},{""event"":""focus"",""trial"":71,""time"":1116175}]",NA,NA,NA,NA,NA,1,#D8271C,#741CD8,0,0,1,40,0,894.6999999880791,37,1,816.2000000178814,0,1,experiment,NA,NA,1,0.7,0.3,2,3,35,1,NA
fcp-trial,125,1607983,0.0-44.0-0.0,voc_e2,12050,"[{""event"":""fullscreenenter"",""trial"":1,""time"":6584},{""event"":""blur"",""trial"":10,""time"":125222},{""event"":""focus"",""trial"":10,""time"":126137},{""event"":""blur"",""trial"":10,""time"":145978},{""event"":""focus"",""trial"":10,""time"":149943},{""event"":""blur"",""trial"":48,""time"":680687},{""event"":""focus"",""trial"":48,""time"":696806},{""event"":""blur"",""trial"":48,""time"":696843},{""event"":""focus"",""trial"":48,""time"":824158},{""event"":""fullscreenexit"",""trial"":48,""time"":824159},{""event"":""blur"",""trial"":71,""time"":1058147},{""event"":""focus"",""trial"":71,""time"":1059658},{""event"":""blur"",""trial"":71,""time"":1060480},{""event"":""focus"",""trial"":71,""time"":1062019},{""event"":""blur"",""trial"":71,""time"":1062829},{""event"":""focus"",""trial"":71,""time"":1064441},{""event"":""blur"",""trial"":71,""time"":1066053},{""event"":""focus"",""trial"":71,""time"":1116175}]",NA,NA,NA,NA,NA,3,#D8271C,#741CD8,10,0,1,40,0,911.5999999940395,37,1,758.9000000059605,10,1,experiment,NA,NA,1,0.7,0.3,2,3,36,1,NA
fcp-trial,126,1611508,0.0-45.0-0.0,voc_e2,12050,"[{""event"":""fullscreenenter"",""trial"":1,""time"":6584},{""event"":""blur"",""trial"":10,""time"":125222},{""event"":""focus"",""trial"":10,""time"":126137},{""event"":""blur"",""trial"":10,""time"":145978},{""event"":""focus"",""trial"":10,""time"":149943},{""event"":""blur"",""trial"":48,""time"":680687},{""event"":""focus"",""trial"":48,""time"":696806},{""event"":""blur"",""trial"":48,""time"":696843},{""event"":""focus"",""trial"":48,""time"":824158},{""event"":""fullscreenexit"",""trial"":48,""time"":824159},{""event"":""blur"",""trial"":71,""time"":1058147},{""event"":""focus"",""trial"":71,""time"":1059658},{""event"":""blur"",""trial"":71,""time"":1060480},{""event"":""focus"",""trial"":71,""time"":1062019},{""event"":""blur"",""trial"":71,""time"":1062829},{""event"":""focus"",""trial"":71,""time"":1064441},{""event"":""blur"",""trial"":71,""time"":1066053},{""event"":""focus"",""trial"":71,""time"":1116175}]",NA,NA,NA,NA,NA,2,#1CD855,#FA92F8,0,0,0,40,0,971.5,37,1,1048.5,0,0,experiment,NA,NA,0,0.1,0.9,1,0,37,1,NA
fcp-trial,127,1615501,0.0-46.0-0.0,voc_e2,12050,"[{""event"":""fullscreenenter"",""trial"":1,""time"":6584},{""event"":""blur"",""trial"":10,""time"":125222},{""event"":""focus"",""trial"":10,""time"":126137},{""event"":""blur"",""trial"":10,""time"":145978},{""event"":""focus"",""trial"":10,""time"":149943},{""event"":""blur"",""trial"":48,""time"":680687},{""event"":""focus"",""trial"":48,""time"":696806},{""event"":""blur"",""trial"":48,""time"":696843},{""event"":""focus"",""trial"":48,""time"":824158},{""event"":""fullscreenexit"",""trial"":48,""time"":824159},{""event"":""blur"",""trial"":71,""time"":1058147},{""event"":""focus"",""trial"":71,""time"":1059658},{""event"":""blur"",""trial"":71,""time"":1060480},{""event"":""focus"",""trial"":71,""time"":1062019},{""event"":""blur"",""trial"":71,""time"":1062829},{""event"":""focus"",""trial"":71,""time"":1064441},{""event"":""blur"",""trial"":71,""time"":1066053},{""event"":""focus"",""trial"":71,""time"":1116175}]",NA,NA,NA,NA,NA,0,#D89F1C,#3386FF,10,10,1,40,0,276.40000000596046,39,0,2209.0999999940395,10,0,experiment,NA,NA,2,0.5,0.5,4,5,38,1,NA
