trial_type,trial_index,time_elapsed,internal_node_id,task_version,subject_id,interactions,success,rt,stimulus,key_press,button_pressed,offer,arcade_color_L,arcade_color_R,arcade_outcome_L,arcade_outcome_R,correct,stage_1_key,stage_1_choice,stage_1_rt,stage_2_key,stage_2_choice,stage_2_rt,stage_3_outcome,accuracy,phase,responses,num_errors,context,reward_prob_L,reward_prob_R,arcade_id_L,arcade_id_R,trial,block,response
pavlovia,0,8,0.0-0.0,voc_e2,12107,[],NA,NA,NA,NA,NA,NA,NA,NA,NA,NA,NA,NA,NA,NA,NA,NA,NA,NA,NA,NA,NA,NA,NA,NA,NA,NA,NA,NA,NA,NA
fullscreen,1,6112,0.0-1.0,voc_e2,12107,"[{""event"":""fullscreenenter"",""trial"":1,""time"":5114}]",TRUE,NA,NA,NA,NA,NA,NA,NA,NA,NA,NA,NA,NA,NA,NA,NA,NA,NA,NA,NA,NA,NA,NA,NA,NA,NA,NA,NA,NA,NA
audio-keyboard-response,2,11912,0.0-2.0,voc_e2,12107,"[{""event"":""fullscreenenter"",""trial"":1,""time"":5114}]",NA,5400,static/audio/beep_loop.wav,32,NA,NA,NA,NA,NA,NA,NA,NA,NA,NA,NA,NA,NA,NA,NA,NA,NA,NA,NA,NA,NA,NA,NA,NA,NA,NA
audio-test,3,13858,0.0-3.0,voc_e2,12107,"[{""event"":""fullscreenenter"",""trial"":1,""time"":5114}]",NA,NA,static/audio/turtle.wav,NA,3,NA,NA,NA,NA,NA,NA,NA,NA,NA,NA,NA,NA,NA,NA,NA,NA,NA,NA,NA,NA,NA,NA,NA,NA,NA
audio-test,4,17153,0.0-4.0,voc_e2,12107,"[{""event"":""fullscreenenter"",""trial"":1,""time"":5114}]",NA,NA,static/audio/shark.wav,NA,2,NA,NA,NA,NA,NA,NA,NA,NA,NA,NA,NA,NA,NA,NA,NA,NA,NA,NA,NA,NA,NA,NA,NA,NA,NA
audio-instructions,5,24304,0.0-5.0-0.0,voc_e2,12107,"[{""event"":""fullscreenenter"",""trial"":1,""time"":5114}]",NA,1374.5,static/audio/instructions1.wav,NA,0,NA,NA,NA,NA,NA,NA,NA,NA,NA,NA,NA,NA,NA,NA,NA,NA,NA,NA,NA,NA,NA,NA,NA,NA,NA
audio-instructions,6,32737,0.0-5.0-1.0,voc_e2,12107,"[{""event"":""fullscreenenter"",""trial"":1,""time"":5114}]",NA,1697.2999999970198,static/audio/instructions2.wav,NA,0,NA,NA,NA,NA,NA,NA,NA,NA,NA,NA,NA,NA,NA,NA,NA,NA,NA,NA,NA,NA,NA,NA,NA,NA,NA
audio-instructions,7,40602,0.0-5.0-2.0,voc_e2,12107,"[{""event"":""fullscreenenter"",""trial"":1,""time"":5114}]",NA,2060.1000000089407,static/audio/instructions3.wav,NA,0,NA,NA,NA,NA,NA,NA,NA,NA,NA,NA,NA,NA,NA,NA,NA,NA,NA,NA,NA,NA,NA,NA,NA,NA,NA
audio-instructions,8,56423,0.0-5.0-3.0,voc_e2,12107,"[{""event"":""fullscreenenter"",""trial"":1,""time"":5114}]",NA,2593,static/audio/instructions4.wav,NA,0,NA,NA,NA,NA,NA,NA,NA,NA,NA,NA,NA,NA,NA,NA,NA,NA,NA,NA,NA,NA,NA,NA,NA,NA,NA
audio-instructions,9,70431,0.0-5.0-4.0,voc_e2,12107,"[{""event"":""fullscreenenter"",""trial"":1,""time"":5114}]",NA,4620.5,static/audio/instructions5.wav,NA,0,NA,NA,NA,NA,NA,NA,NA,NA,NA,NA,NA,NA,NA,NA,NA,NA,NA,NA,NA,NA,NA,NA,NA,NA,NA
fcp-practice,10,73431,0.0-5.0-5.0-0.0,voc_e2,12107,"[{""event"":""fullscreenenter"",""trial"":1,""time"":5114}]",NA,NA,NA,NA,NA,NA,#EDC948,#46d3c8,10,0,1,null,null,null,37,1,1490.8999999910593,10,1,practice,NA,NA,NA,NA,NA,NA,NA,NA,NA,NA
fcp-practice,11,75638,0.0-5.0-5.0-1.0,voc_e2,12107,"[{""event"":""fullscreenenter"",""trial"":1,""time"":5114}]",NA,NA,NA,NA,NA,NA,#EDC948,#46d3c8,10,0,1,null,null,null,37,1,700.6999999880791,10,1,practice,NA,NA,NA,NA,NA,NA,NA,NA,NA,NA
fcp-practice,12,78003,0.0-5.0-5.0-2.0,voc_e2,12107,"[{""event"":""fullscreenenter"",""trial"":1,""time"":5114}]",NA,NA,NA,NA,NA,NA,#EDC948,#46d3c8,0,10,1,null,null,null,37,1,854.5999999940395,0,1,practice,NA,NA,NA,NA,NA,NA,NA,NA,NA,NA
fcp-practice,13,79985,0.0-5.0-5.0-3.0,voc_e2,12107,"[{""event"":""fullscreenenter"",""trial"":1,""time"":5114}]",NA,NA,NA,NA,NA,NA,#EDC948,#46d3c8,10,0,1,null,null,null,37,1,460.59999999403954,10,1,practice,NA,NA,NA,NA,NA,NA,NA,NA,NA,NA
fcp-practice,14,82005,0.0-5.0-5.0-4.0,voc_e2,12107,"[{""event"":""fullscreenenter"",""trial"":1,""time"":5114}]",NA,NA,NA,NA,NA,NA,#EDC948,#46d3c8,10,0,1,null,null,null,37,1,501,10,1,practice,NA,NA,NA,NA,NA,NA,NA,NA,NA,NA
audio-instructions,15,103129,0.0-5.0-6.0,voc_e2,12107,"[{""event"":""fullscreenenter"",""trial"":1,""time"":5114}]",NA,3119.20000000298,static/audio/instructions6.wav,NA,0,NA,NA,NA,NA,NA,NA,NA,NA,NA,NA,NA,NA,NA,NA,NA,NA,NA,NA,NA,NA,NA,NA,NA,NA,NA
audio-instructions,16,123134,0.0-5.0-7.0,voc_e2,12107,"[{""event"":""fullscreenenter"",""trial"":1,""time"":5114}]",NA,802.3000000119209,static/audio/instructions7.wav,NA,0,NA,NA,NA,NA,NA,NA,NA,NA,NA,NA,NA,NA,NA,NA,NA,NA,NA,NA,NA,NA,NA,NA,NA,NA,NA
audio-instructions,17,133474,0.0-5.0-8.0,voc_e2,12107,"[{""event"":""fullscreenenter"",""trial"":1,""time"":5114}]",NA,864.0999999940395,static/audio/instructions8.wav,NA,0,NA,NA,NA,NA,NA,NA,NA,NA,NA,NA,NA,NA,NA,NA,NA,NA,NA,NA,NA,NA,NA,NA,NA,NA,NA
fcp-comprehension,18,148369,0.0-5.0-9.0,voc_e2,12107,"[{""event"":""fullscreenenter"",""trial"":1,""time"":5114}]",NA,14893.89999999106,NA,NA,NA,NA,NA,NA,NA,NA,NA,NA,NA,NA,NA,NA,NA,NA,NA,NA,"true,true",0,NA,NA,NA,NA,NA,NA,NA,NA
audio-instructions,19,158554,0.0-6.0-0.0,voc_e2,12107,"[{""event"":""fullscreenenter"",""trial"":1,""time"":5114},{""event"":""blur"",""trial"":19,""time"":154911},{""event"":""focus"",""trial"":19,""time"":155010}]",NA,4634.5999999940395,static/audio/instructions9.wav,NA,0,NA,NA,NA,NA,NA,NA,NA,NA,NA,NA,NA,NA,NA,NA,NA,NA,NA,NA,NA,NA,NA,NA,NA,NA,NA
audio-instructions,20,191244,0.0-6.0-1.0,voc_e2,12107,"[{""event"":""fullscreenenter"",""trial"":1,""time"":5114},{""event"":""blur"",""trial"":19,""time"":154911},{""event"":""focus"",""trial"":19,""time"":155010},{""event"":""blur"",""trial"":20,""time"":163905},{""event"":""focus"",""trial"":20,""time"":164008},{""event"":""blur"",""trial"":20,""time"":169603},{""event"":""focus"",""trial"":20,""time"":169714},{""event"":""blur"",""trial"":20,""time"":173105},{""event"":""focus"",""trial"":20,""time"":173210}]",NA,20574.5,static/audio/instructions10.wav,NA,0,NA,NA,NA,NA,NA,NA,NA,NA,NA,NA,NA,NA,NA,NA,NA,NA,NA,NA,NA,NA,NA,NA,NA,NA,NA
fcp-trial,21,206253,0.0-6.0-2.0,voc_e2,12107,"[{""event"":""fullscreenenter"",""trial"":1,""time"":5114},{""event"":""blur"",""trial"":19,""time"":154911},{""event"":""focus"",""trial"":19,""time"":155010},{""event"":""blur"",""trial"":20,""time"":163905},{""event"":""focus"",""trial"":20,""time"":164008},{""event"":""blur"",""trial"":20,""time"":169603},{""event"":""focus"",""trial"":20,""time"":169714},{""event"":""blur"",""trial"":20,""time"":173105},{""event"":""focus"",""trial"":20,""time"":173210},{""event"":""blur"",""trial"":21,""time"":192930},{""event"":""focus"",""trial"":21,""time"":193055}]",NA,NA,NA,NA,NA,0,#EDC948,#46d3c8,10,10,1,null,null,null,null,null,null,NA,0,practice,NA,NA,NA,NA,NA,NA,NA,NA,NA,NA
audio-instructions,22,220238,0.0-6.0-3.0,voc_e2,12107,"[{""event"":""fullscreenenter"",""trial"":1,""time"":5114},{""event"":""blur"",""trial"":19,""time"":154911},{""event"":""focus"",""trial"":19,""time"":155010},{""event"":""blur"",""trial"":20,""time"":163905},{""event"":""focus"",""trial"":20,""time"":164008},{""event"":""blur"",""trial"":20,""time"":169603},{""event"":""focus"",""trial"":20,""time"":169714},{""event"":""blur"",""trial"":20,""time"":173105},{""event"":""focus"",""trial"":20,""time"":173210},{""event"":""blur"",""trial"":21,""time"":192930},{""event"":""focus"",""trial"":21,""time"":193055}]",NA,2694.79999999702,static/audio/instructions11.wav,NA,0,NA,NA,NA,NA,NA,NA,NA,NA,NA,NA,NA,NA,NA,NA,NA,NA,NA,NA,NA,NA,NA,NA,NA,NA,NA
fcp-trial,23,223605,0.0-6.0-4.0,voc_e2,12107,"[{""event"":""fullscreenenter"",""trial"":1,""time"":5114},{""event"":""blur"",""trial"":19,""time"":154911},{""event"":""focus"",""trial"":19,""time"":155010},{""event"":""blur"",""trial"":20,""time"":163905},{""event"":""focus"",""trial"":20,""time"":164008},{""event"":""blur"",""trial"":20,""time"":169603},{""event"":""focus"",""trial"":20,""time"":169714},{""event"":""blur"",""trial"":20,""time"":173105},{""event"":""focus"",""trial"":20,""time"":173210},{""event"":""blur"",""trial"":21,""time"":192930},{""event"":""focus"",""trial"":21,""time"":193055}]",NA,NA,NA,NA,NA,6,#EDC948,#46d3c8,10,10,1,40,0,958.9000000059605,37,1,895.7000000029802,10,1,practice,NA,NA,NA,NA,NA,NA,NA,NA,NA,NA
audio-instructions,24,242867,0.0-6.0-5.0,voc_e2,12107,"[{""event"":""fullscreenenter"",""trial"":1,""time"":5114},{""event"":""blur"",""trial"":19,""time"":154911},{""event"":""focus"",""trial"":19,""time"":155010},{""event"":""blur"",""trial"":20,""time"":163905},{""event"":""focus"",""trial"":20,""time"":164008},{""event"":""blur"",""trial"":20,""time"":169603},{""event"":""focus"",""trial"":20,""time"":169714},{""event"":""blur"",""trial"":20,""time"":173105},{""event"":""focus"",""trial"":20,""time"":173210},{""event"":""blur"",""trial"":21,""time"":192930},{""event"":""focus"",""trial"":21,""time"":193055}]",NA,572.2000000029802,static/audio/instructions12.wav,NA,0,NA,NA,NA,NA,NA,NA,NA,NA,NA,NA,NA,NA,NA,NA,NA,NA,NA,NA,NA,NA,NA,NA,NA,NA,NA
audio-instructions,25,251052,0.0-6.0-6.0,voc_e2,12107,"[{""event"":""fullscreenenter"",""trial"":1,""time"":5114},{""event"":""blur"",""trial"":19,""time"":154911},{""event"":""focus"",""trial"":19,""time"":155010},{""event"":""blur"",""trial"":20,""time"":163905},{""event"":""focus"",""trial"":20,""time"":164008},{""event"":""blur"",""trial"":20,""time"":169603},{""event"":""focus"",""trial"":20,""time"":169714},{""event"":""blur"",""trial"":20,""time"":173105},{""event"":""focus"",""trial"":20,""time"":173210},{""event"":""blur"",""trial"":21,""time"":192930},{""event"":""focus"",""trial"":21,""time"":193055}]",NA,588.6999999880791,static/audio/instructions13.wav,NA,0,NA,NA,NA,NA,NA,NA,NA,NA,NA,NA,NA,NA,NA,NA,NA,NA,NA,NA,NA,NA,NA,NA,NA,NA,NA
audio-instructions,26,261017,0.0-6.0-7.0,voc_e2,12107,"[{""event"":""fullscreenenter"",""trial"":1,""time"":5114},{""event"":""blur"",""trial"":19,""time"":154911},{""event"":""focus"",""trial"":19,""time"":155010},{""event"":""blur"",""trial"":20,""time"":163905},{""event"":""focus"",""trial"":20,""time"":164008},{""event"":""blur"",""trial"":20,""time"":169603},{""event"":""focus"",""trial"":20,""time"":169714},{""event"":""blur"",""trial"":20,""time"":173105},{""event"":""focus"",""trial"":20,""time"":173210},{""event"":""blur"",""trial"":21,""time"":192930},{""event"":""focus"",""trial"":21,""time"":193055}]",NA,1514.2999999970198,static/audio/instructions14.wav,NA,0,NA,NA,NA,NA,NA,NA,NA,NA,NA,NA,NA,NA,NA,NA,NA,NA,NA,NA,NA,NA,NA,NA,NA,NA,NA
audio-instructions,27,269450,0.0-7.0-0.0,voc_e2,12107,"[{""event"":""fullscreenenter"",""trial"":1,""time"":5114},{""event"":""blur"",""trial"":19,""time"":154911},{""event"":""focus"",""trial"":19,""time"":155010},{""event"":""blur"",""trial"":20,""time"":163905},{""event"":""focus"",""trial"":20,""time"":164008},{""event"":""blur"",""trial"":20,""time"":169603},{""event"":""focus"",""trial"":20,""time"":169714},{""event"":""blur"",""trial"":20,""time"":173105},{""event"":""focus"",""trial"":20,""time"":173210},{""event"":""blur"",""trial"":21,""time"":192930},{""event"":""focus"",""trial"":21,""time"":193055}]",NA,1524.5999999940395,static/audio/instructions15.wav,NA,0,NA,NA,NA,NA,NA,NA,NA,NA,NA,NA,NA,NA,NA,NA,NA,NA,NA,NA,NA,NA,NA,NA,NA,NA,NA
audio-instructions,28,276675,0.0-7.0-1.0,voc_e2,12107,"[{""event"":""fullscreenenter"",""trial"":1,""time"":5114},{""event"":""blur"",""trial"":19,""time"":154911},{""event"":""focus"",""trial"":19,""time"":155010},{""event"":""blur"",""trial"":20,""time"":163905},{""event"":""focus"",""trial"":20,""time"":164008},{""event"":""blur"",""trial"":20,""time"":169603},{""event"":""focus"",""trial"":20,""time"":169714},{""event"":""blur"",""trial"":20,""time"":173105},{""event"":""focus"",""trial"":20,""time"":173210},{""event"":""blur"",""trial"":21,""time"":192930},{""event"":""focus"",""trial"":21,""time"":193055}]",NA,401.59999999403954,static/audio/instructions16.wav,NA,0,NA,NA,NA,NA,NA,NA,NA,NA,NA,NA,NA,NA,NA,NA,NA,NA,NA,NA,NA,NA,NA,NA,NA,NA,NA
audio-instructions,29,285016,0.0-7.0-2.0,voc_e2,12107,"[{""event"":""fullscreenenter"",""trial"":1,""time"":5114},{""event"":""blur"",""trial"":19,""time"":154911},{""event"":""focus"",""trial"":19,""time"":155010},{""event"":""blur"",""trial"":20,""time"":163905},{""event"":""focus"",""trial"":20,""time"":164008},{""event"":""blur"",""trial"":20,""time"":169603},{""event"":""focus"",""trial"":20,""time"":169714},{""event"":""blur"",""trial"":20,""time"":173105},{""event"":""focus"",""trial"":20,""time"":173210},{""event"":""blur"",""trial"":21,""time"":192930},{""event"":""focus"",""trial"":21,""time"":193055}]",NA,660.7999999970198,static/audio/instructions17.wav,NA,0,NA,NA,NA,NA,NA,NA,NA,NA,NA,NA,NA,NA,NA,NA,NA,NA,NA,NA,NA,NA,NA,NA,NA,NA,NA
audio-instructions,30,294136,0.0-7.0-3.0,voc_e2,12107,"[{""event"":""fullscreenenter"",""trial"":1,""time"":5114},{""event"":""blur"",""trial"":19,""time"":154911},{""event"":""focus"",""trial"":19,""time"":155010},{""event"":""blur"",""trial"":20,""time"":163905},{""event"":""focus"",""trial"":20,""time"":164008},{""event"":""blur"",""trial"":20,""time"":169603},{""event"":""focus"",""trial"":20,""time"":169714},{""event"":""blur"",""trial"":20,""time"":173105},{""event"":""focus"",""trial"":20,""time"":173210},{""event"":""blur"",""trial"":21,""time"":192930},{""event"":""focus"",""trial"":21,""time"":193055}]",NA,1350.9000000059605,static/audio/instructions18.wav,NA,0,NA,NA,NA,NA,NA,NA,NA,NA,NA,NA,NA,NA,NA,NA,NA,NA,NA,NA,NA,NA,NA,NA,NA,NA,NA
audio-instructions,31,303358,0.0-7.0-4.0,voc_e2,12107,"[{""event"":""fullscreenenter"",""trial"":1,""time"":5114},{""event"":""blur"",""trial"":19,""time"":154911},{""event"":""focus"",""trial"":19,""time"":155010},{""event"":""blur"",""trial"":20,""time"":163905},{""event"":""focus"",""trial"":20,""time"":164008},{""event"":""blur"",""trial"":20,""time"":169603},{""event"":""focus"",""trial"":20,""time"":169714},{""event"":""blur"",""trial"":20,""time"":173105},{""event"":""focus"",""trial"":20,""time"":173210},{""event"":""blur"",""trial"":21,""time"":192930},{""event"":""focus"",""trial"":21,""time"":193055}]",NA,2482.9000000059605,static/audio/instructions19.wav,NA,0,NA,NA,NA,NA,NA,NA,NA,NA,NA,NA,NA,NA,NA,NA,NA,NA,NA,NA,NA,NA,NA,NA,NA,NA,NA
fcp-comprehension,32,333084,0.0-7.0-5.0,voc_e2,12107,"[{""event"":""fullscreenenter"",""trial"":1,""time"":5114},{""event"":""blur"",""trial"":19,""time"":154911},{""event"":""focus"",""trial"":19,""time"":155010},{""event"":""blur"",""trial"":20,""time"":163905},{""event"":""focus"",""trial"":20,""time"":164008},{""event"":""blur"",""trial"":20,""time"":169603},{""event"":""focus"",""trial"":20,""time"":169714},{""event"":""blur"",""trial"":20,""time"":173105},{""event"":""focus"",""trial"":20,""time"":173210},{""event"":""blur"",""trial"":21,""time"":192930},{""event"":""focus"",""trial"":21,""time"":193055}]",NA,29725.29999999702,NA,NA,NA,NA,NA,NA,NA,NA,NA,NA,NA,NA,NA,NA,NA,NA,NA,NA,"false,false,false,true",0,NA,NA,NA,NA,NA,NA,NA,NA
audio-instructions,33,344003,0.0-8.0,voc_e2,12107,"[{""event"":""fullscreenenter"",""trial"":1,""time"":5114},{""event"":""blur"",""trial"":19,""time"":154911},{""event"":""focus"",""trial"":19,""time"":155010},{""event"":""blur"",""trial"":20,""time"":163905},{""event"":""focus"",""trial"":20,""time"":164008},{""event"":""blur"",""trial"":20,""time"":169603},{""event"":""focus"",""trial"":20,""time"":169714},{""event"":""blur"",""trial"":20,""time"":173105},{""event"":""focus"",""trial"":20,""time"":173210},{""event"":""blur"",""trial"":21,""time"":192930},{""event"":""focus"",""trial"":21,""time"":193055}]",NA,1709.6000000089407,static/audio/ready.wav,NA,0,NA,NA,NA,NA,NA,NA,NA,NA,NA,NA,NA,NA,NA,NA,NA,NA,NA,NA,NA,NA,NA,NA,NA,NA,NA
fcp-trial,34,347914,0.0-9.0-0.0,voc_e2,12107,"[{""event"":""fullscreenenter"",""trial"":1,""time"":5114},{""event"":""blur"",""trial"":19,""time"":154911},{""event"":""focus"",""trial"":19,""time"":155010},{""event"":""blur"",""trial"":20,""time"":163905},{""event"":""focus"",""trial"":20,""time"":164008},{""event"":""blur"",""trial"":20,""time"":169603},{""event"":""focus"",""trial"":20,""time"":169714},{""event"":""blur"",""trial"":20,""time"":173105},{""event"":""focus"",""trial"":20,""time"":173210},{""event"":""blur"",""trial"":21,""time"":192930},{""event"":""focus"",""trial"":21,""time"":193055}]",NA,NA,NA,NA,NA,4,#D8271C,#741CD8,10,10,1,40,0,1579,37,1,816.0999999940395,10,1,experiment,NA,NA,0,0.9,0.1,0,1,1,1,NA
fcp-trial,35,351928,0.0-10.0-0.0,voc_e2,12107,"[{""event"":""fullscreenenter"",""trial"":1,""time"":5114},{""event"":""blur"",""trial"":19,""time"":154911},{""event"":""focus"",""trial"":19,""time"":155010},{""event"":""blur"",""trial"":20,""time"":163905},{""event"":""focus"",""trial"":20,""time"":164008},{""event"":""blur"",""trial"":20,""time"":169603},{""event"":""focus"",""trial"":20,""time"":169714},{""event"":""blur"",""trial"":20,""time"":173105},{""event"":""focus"",""trial"":20,""time"":173210},{""event"":""blur"",""trial"":21,""time"":192930},{""event"":""focus"",""trial"":21,""time"":193055}]",NA,NA,NA,NA,NA,2,#3386FF,#D89F1C,0,0,0,40,0,1704.5,37,1,794.5,0,0,experiment,NA,NA,1,0.3,0.7,3,2,2,1,NA
fcp-trial,36,356671,0.0-11.0-0.0,voc_e2,12107,"[{""event"":""fullscreenenter"",""trial"":1,""time"":5114},{""event"":""blur"",""trial"":19,""time"":154911},{""event"":""focus"",""trial"":19,""time"":155010},{""event"":""blur"",""trial"":20,""time"":163905},{""event"":""focus"",""trial"":20,""time"":164008},{""event"":""blur"",""trial"":20,""time"":169603},{""event"":""focus"",""trial"":20,""time"":169714},{""event"":""blur"",""trial"":20,""time"":173105},{""event"":""focus"",""trial"":20,""time"":173210},{""event"":""blur"",""trial"":21,""time"":192930},{""event"":""focus"",""trial"":21,""time"":193055}]",NA,NA,NA,NA,NA,0,#1CD855,#FA92F8,10,10,1,38,1,1740.5,39,0,1482.7999999970198,10,0,experiment,NA,NA,2,0.5,0.5,4,5,3,1,NA
fcp-trial,37,361018,0.0-12.0-0.0,voc_e2,12107,"[{""event"":""fullscreenenter"",""trial"":1,""time"":5114},{""event"":""blur"",""trial"":19,""time"":154911},{""event"":""focus"",""trial"":19,""time"":155010},{""event"":""blur"",""trial"":20,""time"":163905},{""event"":""focus"",""trial"":20,""time"":164008},{""event"":""blur"",""trial"":20,""time"":169603},{""event"":""focus"",""trial"":20,""time"":169714},{""event"":""blur"",""trial"":20,""time"":173105},{""event"":""focus"",""trial"":20,""time"":173210},{""event"":""blur"",""trial"":21,""time"":192930},{""event"":""focus"",""trial"":21,""time"":193055}]",NA,NA,NA,NA,NA,6,#D89F1C,#3386FF,10,0,1,38,1,1717.7000000029802,37,1,1107.8999999910593,10,1,experiment,NA,NA,1,0.7,0.3,2,3,4,1,NA
fcp-trial,38,365291,0.0-13.0-0.0,voc_e2,12107,"[{""event"":""fullscreenenter"",""trial"":1,""time"":5114},{""event"":""blur"",""trial"":19,""time"":154911},{""event"":""focus"",""trial"":19,""time"":155010},{""event"":""blur"",""trial"":20,""time"":163905},{""event"":""focus"",""trial"":20,""time"":164008},{""event"":""blur"",""trial"":20,""time"":169603},{""event"":""focus"",""trial"":20,""time"":169714},{""event"":""blur"",""trial"":20,""time"":173105},{""event"":""focus"",""trial"":20,""time"":173210},{""event"":""blur"",""trial"":21,""time"":192930},{""event"":""focus"",""trial"":21,""time"":193055}]",NA,NA,NA,NA,NA,5,#D8271C,#741CD8,10,0,1,40,0,1435.2000000029802,37,1,1325.0999999940395,10,1,experiment,NA,NA,0,0.9,0.1,0,1,5,1,NA
fcp-trial,39,370113,0.0-14.0-0.0,voc_e2,12107,"[{""event"":""fullscreenenter"",""trial"":1,""time"":5114},{""event"":""blur"",""trial"":19,""time"":154911},{""event"":""focus"",""trial"":19,""time"":155010},{""event"":""blur"",""trial"":20,""time"":163905},{""event"":""focus"",""trial"":20,""time"":164008},{""event"":""blur"",""trial"":20,""time"":169603},{""event"":""focus"",""trial"":20,""time"":169714},{""event"":""blur"",""trial"":20,""time"":173105},{""event"":""focus"",""trial"":20,""time"":173210},{""event"":""blur"",""trial"":21,""time"":192930},{""event"":""focus"",""trial"":21,""time"":193055}]",NA,NA,NA,NA,NA,6,#741CD8,#D8271C,0,10,0,40,0,1174.2000000029802,37,1,2131.9000000059605,0,0,experiment,NA,NA,0,0.1,0.9,1,0,6,1,NA
fcp-trial,40,374486,0.0-15.0-0.0,voc_e2,12107,"[{""event"":""fullscreenenter"",""trial"":1,""time"":5114},{""event"":""blur"",""trial"":19,""time"":154911},{""event"":""focus"",""trial"":19,""time"":155010},{""event"":""blur"",""trial"":20,""time"":163905},{""event"":""focus"",""trial"":20,""time"":164008},{""event"":""blur"",""trial"":20,""time"":169603},{""event"":""focus"",""trial"":20,""time"":169714},{""event"":""blur"",""trial"":20,""time"":173105},{""event"":""focus"",""trial"":20,""time"":173210},{""event"":""blur"",""trial"":21,""time"":192930},{""event"":""focus"",""trial"":21,""time"":193055}]",NA,NA,NA,NA,NA,0,#3386FF,#D89F1C,0,0,0,38,1,1244.9000000059605,39,0,1620.300000011921,0,1,experiment,NA,NA,1,0.3,0.7,3,2,7,1,NA
fcp-trial,41,379118,0.0-16.0-0.0,voc_e2,12107,"[{""event"":""fullscreenenter"",""trial"":1,""time"":5114},{""event"":""blur"",""trial"":19,""time"":154911},{""event"":""focus"",""trial"":19,""time"":155010},{""event"":""blur"",""trial"":20,""time"":163905},{""event"":""focus"",""trial"":20,""time"":164008},{""event"":""blur"",""trial"":20,""time"":169603},{""event"":""focus"",""trial"":20,""time"":169714},{""event"":""blur"",""trial"":20,""time"":173105},{""event"":""focus"",""trial"":20,""time"":173210},{""event"":""blur"",""trial"":21,""time"":192930},{""event"":""focus"",""trial"":21,""time"":193055}]",NA,NA,NA,NA,NA,5,#1CD855,#FA92F8,10,10,1,38,1,1956.699999988079,39,0,1167.7999999970198,10,0,experiment,NA,NA,2,0.5,0.5,4,5,8,1,NA
fcp-trial,42,383543,0.0-17.0-0.0,voc_e2,12107,"[{""event"":""fullscreenenter"",""trial"":1,""time"":5114},{""event"":""blur"",""trial"":19,""time"":154911},{""event"":""focus"",""trial"":19,""time"":155010},{""event"":""blur"",""trial"":20,""time"":163905},{""event"":""focus"",""trial"":20,""time"":164008},{""event"":""blur"",""trial"":20,""time"":169603},{""event"":""focus"",""trial"":20,""time"":169714},{""event"":""blur"",""trial"":20,""time"":173105},{""event"":""focus"",""trial"":20,""time"":173210},{""event"":""blur"",""trial"":21,""time"":192930},{""event"":""focus"",""trial"":21,""time"":193055}]",NA,NA,NA,NA,NA,0,#D8271C,#741CD8,10,0,1,38,1,2213.2999999970198,37,1,697.5,10,1,experiment,NA,NA,0,0.9,0.1,0,1,9,1,NA
fcp-trial,43,387655,0.0-18.0-0.0,voc_e2,12107,"[{""event"":""fullscreenenter"",""trial"":1,""time"":5114},{""event"":""blur"",""trial"":19,""time"":154911},{""event"":""focus"",""trial"":19,""time"":155010},{""event"":""blur"",""trial"":20,""time"":163905},{""event"":""focus"",""trial"":20,""time"":164008},{""event"":""blur"",""trial"":20,""time"":169603},{""event"":""focus"",""trial"":20,""time"":169714},{""event"":""blur"",""trial"":20,""time"":173105},{""event"":""focus"",""trial"":20,""time"":173210},{""event"":""blur"",""trial"":21,""time"":192930},{""event"":""focus"",""trial"":21,""time"":193055}]",NA,NA,NA,NA,NA,1,#1CD855,#FA92F8,0,10,1,40,0,1913,37,1,687.4000000059605,0,1,experiment,NA,NA,2,0.5,0.5,4,5,10,1,NA
fcp-trial,44,391191,0.0-19.0-0.0,voc_e2,12107,"[{""event"":""fullscreenenter"",""trial"":1,""time"":5114},{""event"":""blur"",""trial"":19,""time"":154911},{""event"":""focus"",""trial"":19,""time"":155010},{""event"":""blur"",""trial"":20,""time"":163905},{""event"":""focus"",""trial"":20,""time"":164008},{""event"":""blur"",""trial"":20,""time"":169603},{""event"":""focus"",""trial"":20,""time"":169714},{""event"":""blur"",""trial"":20,""time"":173105},{""event"":""focus"",""trial"":20,""time"":173210},{""event"":""blur"",""trial"":21,""time"":192930},{""event"":""focus"",""trial"":21,""time"":193055}]",NA,NA,NA,NA,NA,2,#D8271C,#741CD8,10,0,1,38,1,1046.9000000059605,39,0,982.7000000029802,0,0,experiment,NA,NA,0,0.9,0.1,0,1,11,1,NA
fcp-trial,45,395117,0.0-20.0-0.0,voc_e2,12107,"[{""event"":""fullscreenenter"",""trial"":1,""time"":5114},{""event"":""blur"",""trial"":19,""time"":154911},{""event"":""focus"",""trial"":19,""time"":155010},{""event"":""blur"",""trial"":20,""time"":163905},{""event"":""focus"",""trial"":20,""time"":164008},{""event"":""blur"",""trial"":20,""time"":169603},{""event"":""focus"",""trial"":20,""time"":169714},{""event"":""blur"",""trial"":20,""time"":173105},{""event"":""focus"",""trial"":20,""time"":173210},{""event"":""blur"",""trial"":21,""time"":192930},{""event"":""focus"",""trial"":21,""time"":193055}]",NA,NA,NA,NA,NA,4,#3386FF,#D89F1C,10,10,0,38,1,1360.5,39,0,1055,10,1,experiment,NA,NA,1,0.3,0.7,3,2,12,1,NA
fcp-trial,46,398605,0.0-21.0-0.0,voc_e2,12107,"[{""event"":""fullscreenenter"",""trial"":1,""time"":5114},{""event"":""blur"",""trial"":19,""time"":154911},{""event"":""focus"",""trial"":19,""time"":155010},{""event"":""blur"",""trial"":20,""time"":163905},{""event"":""focus"",""trial"":20,""time"":164008},{""event"":""blur"",""trial"":20,""time"":169603},{""event"":""focus"",""trial"":20,""time"":169714},{""event"":""blur"",""trial"":20,""time"":173105},{""event"":""focus"",""trial"":20,""time"":173210},{""event"":""blur"",""trial"":21,""time"":192930},{""event"":""focus"",""trial"":21,""time"":193055}]",NA,NA,NA,NA,NA,6,#FA92F8,#1CD855,0,10,0,40,0,1214.7000000029802,37,1,767.9000000059605,0,0,experiment,NA,NA,2,0.5,0.5,5,4,13,1,NA
fcp-trial,47,401775,0.0-22.0-0.0,voc_e2,12107,"[{""event"":""fullscreenenter"",""trial"":1,""time"":5114},{""event"":""blur"",""trial"":19,""time"":154911},{""event"":""focus"",""trial"":19,""time"":155010},{""event"":""blur"",""trial"":20,""time"":163905},{""event"":""focus"",""trial"":20,""time"":164008},{""event"":""blur"",""trial"":20,""time"":169603},{""event"":""focus"",""trial"":20,""time"":169714},{""event"":""blur"",""trial"":20,""time"":173105},{""event"":""focus"",""trial"":20,""time"":173210},{""event"":""blur"",""trial"":21,""time"":192930},{""event"":""focus"",""trial"":21,""time"":193055}]",NA,NA,NA,NA,NA,2,#1CD855,#FA92F8,0,0,1,40,0,1039.5,39,0,625,0,0,experiment,NA,NA,2,0.5,0.5,4,5,14,1,NA
fcp-trial,48,404567,0.0-23.0-0.0,voc_e2,12107,"[{""event"":""fullscreenenter"",""trial"":1,""time"":5114},{""event"":""blur"",""trial"":19,""time"":154911},{""event"":""focus"",""trial"":19,""time"":155010},{""event"":""blur"",""trial"":20,""time"":163905},{""event"":""focus"",""trial"":20,""time"":164008},{""event"":""blur"",""trial"":20,""time"":169603},{""event"":""focus"",""trial"":20,""time"":169714},{""event"":""blur"",""trial"":20,""time"":173105},{""event"":""focus"",""trial"":20,""time"":173210},{""event"":""blur"",""trial"":21,""time"":192930},{""event"":""focus"",""trial"":21,""time"":193055}]",NA,NA,NA,NA,NA,1,#741CD8,#D8271C,10,10,0,38,1,533.8000000119209,37,1,745.5999999940395,10,0,experiment,NA,NA,0,0.1,0.9,1,0,15,1,NA
fcp-trial,49,408541,0.0-24.0-0.0,voc_e2,12107,"[{""event"":""fullscreenenter"",""trial"":1,""time"":5114},{""event"":""blur"",""trial"":19,""time"":154911},{""event"":""focus"",""trial"":19,""time"":155010},{""event"":""blur"",""trial"":20,""time"":163905},{""event"":""focus"",""trial"":20,""time"":164008},{""event"":""blur"",""trial"":20,""time"":169603},{""event"":""focus"",""trial"":20,""time"":169714},{""event"":""blur"",""trial"":20,""time"":173105},{""event"":""focus"",""trial"":20,""time"":173210},{""event"":""blur"",""trial"":21,""time"":192930},{""event"":""focus"",""trial"":21,""time"":193055}]",NA,NA,NA,NA,NA,3,#3386FF,#D89F1C,10,10,0,38,1,1316.7999999970198,39,0,1143.2999999970198,10,1,experiment,NA,NA,1,0.3,0.7,3,2,16,1,NA
fcp-trial,50,413077,0.0-25.0-0.0,voc_e2,12107,"[{""event"":""fullscreenenter"",""trial"":1,""time"":5114},{""event"":""blur"",""trial"":19,""time"":154911},{""event"":""focus"",""trial"":19,""time"":155010},{""event"":""blur"",""trial"":20,""time"":163905},{""event"":""focus"",""trial"":20,""time"":164008},{""event"":""blur"",""trial"":20,""time"":169603},{""event"":""focus"",""trial"":20,""time"":169714},{""event"":""blur"",""trial"":20,""time"":173105},{""event"":""focus"",""trial"":20,""time"":173210},{""event"":""blur"",""trial"":21,""time"":192930},{""event"":""focus"",""trial"":21,""time"":193055}]",NA,NA,NA,NA,NA,3,#D8271C,#741CD8,10,0,1,38,1,1596.5999999940395,39,0,1430.5999999940395,0,0,experiment,NA,NA,0,0.9,0.1,0,1,17,1,NA
fcp-trial,51,416556,0.0-26.0-0.0,voc_e2,12107,"[{""event"":""fullscreenenter"",""trial"":1,""time"":5114},{""event"":""blur"",""trial"":19,""time"":154911},{""event"":""focus"",""trial"":19,""time"":155010},{""event"":""blur"",""trial"":20,""time"":163905},{""event"":""focus"",""trial"":20,""time"":164008},{""event"":""blur"",""trial"":20,""time"":169603},{""event"":""focus"",""trial"":20,""time"":169714},{""event"":""blur"",""trial"":20,""time"":173105},{""event"":""focus"",""trial"":20,""time"":173210},{""event"":""blur"",""trial"":21,""time"":192930},{""event"":""focus"",""trial"":21,""time"":193055}]",NA,NA,NA,NA,NA,1,#D89F1C,#3386FF,0,0,1,38,1,1157.1000000089407,37,1,813.9000000059605,0,1,experiment,NA,NA,1,0.7,0.3,2,3,18,1,NA
fcp-trial,52,419772,0.0-27.0-0.0,voc_e2,12107,"[{""event"":""fullscreenenter"",""trial"":1,""time"":5114},{""event"":""blur"",""trial"":19,""time"":154911},{""event"":""focus"",""trial"":19,""time"":155010},{""event"":""blur"",""trial"":20,""time"":163905},{""event"":""focus"",""trial"":20,""time"":164008},{""event"":""blur"",""trial"":20,""time"":169603},{""event"":""focus"",""trial"":20,""time"":169714},{""event"":""blur"",""trial"":20,""time"":173105},{""event"":""focus"",""trial"":20,""time"":173210},{""event"":""blur"",""trial"":21,""time"":192930},{""event"":""focus"",""trial"":21,""time"":193055}]",NA,NA,NA,NA,NA,3,#FA92F8,#1CD855,10,10,0,38,1,1021.3999999910593,39,0,685.5,10,1,experiment,NA,NA,2,0.5,0.5,5,4,19,1,NA
fcp-trial,53,423257,0.0-28.0-0.0,voc_e2,12107,"[{""event"":""fullscreenenter"",""trial"":1,""time"":5114},{""event"":""blur"",""trial"":19,""time"":154911},{""event"":""focus"",""trial"":19,""time"":155010},{""event"":""blur"",""trial"":20,""time"":163905},{""event"":""focus"",""trial"":20,""time"":164008},{""event"":""blur"",""trial"":20,""time"":169603},{""event"":""focus"",""trial"":20,""time"":169714},{""event"":""blur"",""trial"":20,""time"":173105},{""event"":""focus"",""trial"":20,""time"":173210},{""event"":""blur"",""trial"":21,""time"":192930},{""event"":""focus"",""trial"":21,""time"":193055}]",NA,NA,NA,NA,NA,4,#FA92F8,#1CD855,0,0,0,38,1,1094.9000000059605,37,1,882.9000000059605,0,0,experiment,NA,NA,2,0.5,0.5,5,4,20,1,NA
fcp-trial,54,426270,0.0-29.0-0.0,voc_e2,12107,"[{""event"":""fullscreenenter"",""trial"":1,""time"":5114},{""event"":""blur"",""trial"":19,""time"":154911},{""event"":""focus"",""trial"":19,""time"":155010},{""event"":""blur"",""trial"":20,""time"":163905},{""event"":""focus"",""trial"":20,""time"":164008},{""event"":""blur"",""trial"":20,""time"":169603},{""event"":""focus"",""trial"":20,""time"":169714},{""event"":""blur"",""trial"":20,""time"":173105},{""event"":""focus"",""trial"":20,""time"":173210},{""event"":""blur"",""trial"":21,""time"":192930},{""event"":""focus"",""trial"":21,""time"":193055}]",NA,NA,NA,NA,NA,5,#D89F1C,#3386FF,0,0,1,38,1,972.7999999970198,37,1,526.5,0,1,experiment,NA,NA,1,0.7,0.3,2,3,21,1,NA
fcp-trial,55,429581,0.0-30.0-0.0,voc_e2,12107,"[{""event"":""fullscreenenter"",""trial"":1,""time"":5114},{""event"":""blur"",""trial"":19,""time"":154911},{""event"":""focus"",""trial"":19,""time"":155010},{""event"":""blur"",""trial"":20,""time"":163905},{""event"":""focus"",""trial"":20,""time"":164008},{""event"":""blur"",""trial"":20,""time"":169603},{""event"":""focus"",""trial"":20,""time"":169714},{""event"":""blur"",""trial"":20,""time"":173105},{""event"":""focus"",""trial"":20,""time"":173210},{""event"":""blur"",""trial"":21,""time"":192930},{""event"":""focus"",""trial"":21,""time"":193055}]",NA,NA,NA,NA,NA,4,#FA92F8,#1CD855,0,0,0,38,1,643,39,0,1151.9000000059605,0,1,experiment,NA,NA,2,0.5,0.5,5,4,22,1,NA
fcp-trial,56,432589,0.0-31.0-0.0,voc_e2,12107,"[{""event"":""fullscreenenter"",""trial"":1,""time"":5114},{""event"":""blur"",""trial"":19,""time"":154911},{""event"":""focus"",""trial"":19,""time"":155010},{""event"":""blur"",""trial"":20,""time"":163905},{""event"":""focus"",""trial"":20,""time"":164008},{""event"":""blur"",""trial"":20,""time"":169603},{""event"":""focus"",""trial"":20,""time"":169714},{""event"":""blur"",""trial"":20,""time"":173105},{""event"":""focus"",""trial"":20,""time"":173210},{""event"":""blur"",""trial"":21,""time"":192930},{""event"":""focus"",""trial"":21,""time"":193055}]",NA,NA,NA,NA,NA,2,#FA92F8,#1CD855,0,0,0,38,1,914.6999999880791,37,1,584.1000000089407,0,0,experiment,NA,NA,2,0.5,0.5,5,4,23,1,NA
fcp-trial,57,435654,0.0-32.0-0.0,voc_e2,12107,"[{""event"":""fullscreenenter"",""trial"":1,""time"":5114},{""event"":""blur"",""trial"":19,""time"":154911},{""event"":""focus"",""trial"":19,""time"":155010},{""event"":""blur"",""trial"":20,""time"":163905},{""event"":""focus"",""trial"":20,""time"":164008},{""event"":""blur"",""trial"":20,""time"":169603},{""event"":""focus"",""trial"":20,""time"":169714},{""event"":""blur"",""trial"":20,""time"":173105},{""event"":""focus"",""trial"":20,""time"":173210},{""event"":""blur"",""trial"":21,""time"":192930},{""event"":""focus"",""trial"":21,""time"":193055}]",NA,NA,NA,NA,NA,5,#3386FF,#D89F1C,10,10,0,38,1,1022.2999999970198,39,0,526.5999999940395,10,1,experiment,NA,NA,1,0.3,0.7,3,2,24,1,NA
fcp-trial,58,438607,0.0-33.0-0.0,voc_e2,12107,"[{""event"":""fullscreenenter"",""trial"":1,""time"":5114},{""event"":""blur"",""trial"":19,""time"":154911},{""event"":""focus"",""trial"":19,""time"":155010},{""event"":""blur"",""trial"":20,""time"":163905},{""event"":""focus"",""trial"":20,""time"":164008},{""event"":""blur"",""trial"":20,""time"":169603},{""event"":""focus"",""trial"":20,""time"":169714},{""event"":""blur"",""trial"":20,""time"":173105},{""event"":""focus"",""trial"":20,""time"":173210},{""event"":""blur"",""trial"":21,""time"":192930},{""event"":""focus"",""trial"":21,""time"":193055}]",NA,NA,NA,NA,NA,1,#D8271C,#741CD8,10,0,1,38,1,912.2999999970198,39,0,535.5,0,0,experiment,NA,NA,0,0.9,0.1,0,1,25,1,NA
fcp-trial,59,441342,0.0-34.0-0.0,voc_e2,12107,"[{""event"":""fullscreenenter"",""trial"":1,""time"":5114},{""event"":""blur"",""trial"":19,""time"":154911},{""event"":""focus"",""trial"":19,""time"":155010},{""event"":""blur"",""trial"":20,""time"":163905},{""event"":""focus"",""trial"":20,""time"":164008},{""event"":""blur"",""trial"":20,""time"":169603},{""event"":""focus"",""trial"":20,""time"":169714},{""event"":""blur"",""trial"":20,""time"":173105},{""event"":""focus"",""trial"":20,""time"":173210},{""event"":""blur"",""trial"":21,""time"":192930},{""event"":""focus"",""trial"":21,""time"":193055}]",NA,NA,NA,NA,NA,2,#D8271C,#741CD8,10,0,1,38,1,755.2999999970198,37,1,470.29999999701977,10,1,experiment,NA,NA,0,0.9,0.1,0,1,26,1,NA
fcp-trial,60,444110,0.0-35.0-0.0,voc_e2,12107,"[{""event"":""fullscreenenter"",""trial"":1,""time"":5114},{""event"":""blur"",""trial"":19,""time"":154911},{""event"":""focus"",""trial"":19,""time"":155010},{""event"":""blur"",""trial"":20,""time"":163905},{""event"":""focus"",""trial"":20,""time"":164008},{""event"":""blur"",""trial"":20,""time"":169603},{""event"":""focus"",""trial"":20,""time"":169714},{""event"":""blur"",""trial"":20,""time"":173105},{""event"":""focus"",""trial"":20,""time"":173210},{""event"":""blur"",""trial"":21,""time"":192930},{""event"":""focus"",""trial"":21,""time"":193055}]",NA,NA,NA,NA,NA,0,#1CD855,#FA92F8,10,10,1,40,0,671.5,39,0,590.6000000089407,10,0,experiment,NA,NA,2,0.5,0.5,4,5,27,1,NA
fcp-trial,61,447672,0.0-36.0-0.0,voc_e2,12107,"[{""event"":""fullscreenenter"",""trial"":1,""time"":5114},{""event"":""blur"",""trial"":19,""time"":154911},{""event"":""focus"",""trial"":19,""time"":155010},{""event"":""blur"",""trial"":20,""time"":163905},{""event"":""focus"",""trial"":20,""time"":164008},{""event"":""blur"",""trial"":20,""time"":169603},{""event"":""focus"",""trial"":20,""time"":169714},{""event"":""blur"",""trial"":20,""time"":173105},{""event"":""focus"",""trial"":20,""time"":173210},{""event"":""blur"",""trial"":21,""time"":192930},{""event"":""focus"",""trial"":21,""time"":193055}]",NA,NA,NA,NA,NA,0,#3386FF,#D89F1C,10,10,0,38,1,1304,37,1,744,10,0,experiment,NA,NA,1,0.3,0.7,3,2,28,1,NA
fcp-trial,62,451287,0.0-37.0-0.0,voc_e2,12107,"[{""event"":""fullscreenenter"",""trial"":1,""time"":5114},{""event"":""blur"",""trial"":19,""time"":154911},{""event"":""focus"",""trial"":19,""time"":155010},{""event"":""blur"",""trial"":20,""time"":163905},{""event"":""focus"",""trial"":20,""time"":164008},{""event"":""blur"",""trial"":20,""time"":169603},{""event"":""focus"",""trial"":20,""time"":169714},{""event"":""blur"",""trial"":20,""time"":173105},{""event"":""focus"",""trial"":20,""time"":173210},{""event"":""blur"",""trial"":21,""time"":192930},{""event"":""focus"",""trial"":21,""time"":193055}]",NA,NA,NA,NA,NA,1,#D89F1C,#3386FF,0,10,1,38,1,962.7999999970198,37,1,1144.7999999970198,0,1,experiment,NA,NA,1,0.7,0.3,2,3,29,1,NA
fcp-trial,63,454534,0.0-38.0-0.0,voc_e2,12107,"[{""event"":""fullscreenenter"",""trial"":1,""time"":5114},{""event"":""blur"",""trial"":19,""time"":154911},{""event"":""focus"",""trial"":19,""time"":155010},{""event"":""blur"",""trial"":20,""time"":163905},{""event"":""focus"",""trial"":20,""time"":164008},{""event"":""blur"",""trial"":20,""time"":169603},{""event"":""focus"",""trial"":20,""time"":169714},{""event"":""blur"",""trial"":20,""time"":173105},{""event"":""focus"",""trial"":20,""time"":173210},{""event"":""blur"",""trial"":21,""time"":192930},{""event"":""focus"",""trial"":21,""time"":193055}]",NA,NA,NA,NA,NA,1,#FA92F8,#1CD855,10,10,0,38,1,739.6000000089407,37,1,991.5,10,0,experiment,NA,NA,2,0.5,0.5,5,4,30,1,NA
fcp-trial,64,457424,0.0-39.0-0.0,voc_e2,12107,"[{""event"":""fullscreenenter"",""trial"":1,""time"":5114},{""event"":""blur"",""trial"":19,""time"":154911},{""event"":""focus"",""trial"":19,""time"":155010},{""event"":""blur"",""trial"":20,""time"":163905},{""event"":""focus"",""trial"":20,""time"":164008},{""event"":""blur"",""trial"":20,""time"":169603},{""event"":""focus"",""trial"":20,""time"":169714},{""event"":""blur"",""trial"":20,""time"":173105},{""event"":""focus"",""trial"":20,""time"":173210},{""event"":""blur"",""trial"":21,""time"":192930},{""event"":""focus"",""trial"":21,""time"":193055}]",NA,NA,NA,NA,NA,4,#D8271C,#741CD8,10,0,1,38,1,801.5,39,0,582,0,0,experiment,NA,NA,0,0.9,0.1,0,1,31,1,NA
fcp-trial,65,460527,0.0-40.0-0.0,voc_e2,12107,"[{""event"":""fullscreenenter"",""trial"":1,""time"":5114},{""event"":""blur"",""trial"":19,""time"":154911},{""event"":""focus"",""trial"":19,""time"":155010},{""event"":""blur"",""trial"":20,""time"":163905},{""event"":""focus"",""trial"":20,""time"":164008},{""event"":""blur"",""trial"":20,""time"":169603},{""event"":""focus"",""trial"":20,""time"":169714},{""event"":""blur"",""trial"":20,""time"":173105},{""event"":""focus"",""trial"":20,""time"":173210},{""event"":""blur"",""trial"":21,""time"":192930},{""event"":""focus"",""trial"":21,""time"":193055}]",NA,NA,NA,NA,NA,6,#1CD855,#FA92F8,10,10,1,38,1,1055.7000000029802,39,0,541.2999999970198,10,0,experiment,NA,NA,2,0.5,0.5,4,5,32,1,NA
fcp-trial,66,463280,0.0-41.0-0.0,voc_e2,12107,"[{""event"":""fullscreenenter"",""trial"":1,""time"":5114},{""event"":""blur"",""trial"":19,""time"":154911},{""event"":""focus"",""trial"":19,""time"":155010},{""event"":""blur"",""trial"":20,""time"":163905},{""event"":""focus"",""trial"":20,""time"":164008},{""event"":""blur"",""trial"":20,""time"":169603},{""event"":""focus"",""trial"":20,""time"":169714},{""event"":""blur"",""trial"":20,""time"":173105},{""event"":""focus"",""trial"":20,""time"":173210},{""event"":""blur"",""trial"":21,""time"":192930},{""event"":""focus"",""trial"":21,""time"":193055}]",NA,NA,NA,NA,NA,6,#3386FF,#D89F1C,0,0,0,38,1,917.4000000059605,39,0,326.79999999701977,0,1,experiment,NA,NA,1,0.3,0.7,3,2,33,1,NA
fcp-trial,67,466485,0.0-42.0-0.0,voc_e2,12107,"[{""event"":""fullscreenenter"",""trial"":1,""time"":5114},{""event"":""blur"",""trial"":19,""time"":154911},{""event"":""focus"",""trial"":19,""time"":155010},{""event"":""blur"",""trial"":20,""time"":163905},{""event"":""focus"",""trial"":20,""time"":164008},{""event"":""blur"",""trial"":20,""time"":169603},{""event"":""focus"",""trial"":20,""time"":169714},{""event"":""blur"",""trial"":20,""time"":173105},{""event"":""focus"",""trial"":20,""time"":173210},{""event"":""blur"",""trial"":21,""time"":192930},{""event"":""focus"",""trial"":21,""time"":193055}]",NA,NA,NA,NA,NA,6,#741CD8,#D8271C,0,10,0,38,1,964.6000000089407,37,1,724.8000000119209,0,0,experiment,NA,NA,0,0.1,0.9,1,0,34,1,NA
fcp-trial,68,469065,0.0-43.0-0.0,voc_e2,12107,"[{""event"":""fullscreenenter"",""trial"":1,""time"":5114},{""event"":""blur"",""trial"":19,""time"":154911},{""event"":""focus"",""trial"":19,""time"":155010},{""event"":""blur"",""trial"":20,""time"":163905},{""event"":""focus"",""trial"":20,""time"":164008},{""event"":""blur"",""trial"":20,""time"":169603},{""event"":""focus"",""trial"":20,""time"":169714},{""event"":""blur"",""trial"":20,""time"":173105},{""event"":""focus"",""trial"":20,""time"":173210},{""event"":""blur"",""trial"":21,""time"":192930},{""event"":""focus"",""trial"":21,""time"":193055}]",NA,NA,NA,NA,NA,3,#1CD855,#FA92F8,10,0,1,40,0,431.09999999403954,39,0,643.2999999970198,0,0,experiment,NA,NA,2,0.5,0.5,4,5,35,1,NA
fcp-trial,69,472415,0.0-44.0-0.0,voc_e2,12107,"[{""event"":""fullscreenenter"",""trial"":1,""time"":5114},{""event"":""blur"",""trial"":19,""time"":154911},{""event"":""focus"",""trial"":19,""time"":155010},{""event"":""blur"",""trial"":20,""time"":163905},{""event"":""focus"",""trial"":20,""time"":164008},{""event"":""blur"",""trial"":20,""time"":169603},{""event"":""focus"",""trial"":20,""time"":169714},{""event"":""blur"",""trial"":20,""time"":173105},{""event"":""focus"",""trial"":20,""time"":173210},{""event"":""blur"",""trial"":21,""time"":192930},{""event"":""focus"",""trial"":21,""time"":193055}]",NA,NA,NA,NA,NA,4,#D89F1C,#3386FF,0,0,1,40,0,896.6000000089407,39,0,937.4000000059605,0,0,experiment,NA,NA,1,0.7,0.3,2,3,36,1,NA
fcp-trial,70,474981,0.0-45.0-0.0,voc_e2,12107,"[{""event"":""fullscreenenter"",""trial"":1,""time"":5114},{""event"":""blur"",""trial"":19,""time"":154911},{""event"":""focus"",""trial"":19,""time"":155010},{""event"":""blur"",""trial"":20,""time"":163905},{""event"":""focus"",""trial"":20,""time"":164008},{""event"":""blur"",""trial"":20,""time"":169603},{""event"":""focus"",""trial"":20,""time"":169714},{""event"":""blur"",""trial"":20,""time"":173105},{""event"":""focus"",""trial"":20,""time"":173210},{""event"":""blur"",""trial"":21,""time"":192930},{""event"":""focus"",""trial"":21,""time"":193055}]",NA,NA,NA,NA,NA,3,#D89F1C,#3386FF,0,0,1,38,1,572.5,37,1,486.59999999403954,0,1,experiment,NA,NA,1,0.7,0.3,2,3,37,1,NA
fcp-trial,71,478430,0.0-46.0-0.0,voc_e2,12107,"[{""event"":""fullscreenenter"",""trial"":1,""time"":5114},{""event"":""blur"",""trial"":19,""time"":154911},{""event"":""focus"",""trial"":19,""time"":155010},{""event"":""blur"",""trial"":20,""time"":163905},{""event"":""focus"",""trial"":20,""time"":164008},{""event"":""blur"",""trial"":20,""time"":169603},{""event"":""focus"",""trial"":20,""time"":169714},{""event"":""blur"",""trial"":20,""time"":173105},{""event"":""focus"",""trial"":20,""time"":173210},{""event"":""blur"",""trial"":21,""time"":192930},{""event"":""focus"",""trial"":21,""time"":193055}]",NA,NA,NA,NA,NA,5,#FA92F8,#1CD855,10,10,0,38,1,857.0999999940395,39,0,1084.8999999910593,10,1,experiment,NA,NA,2,0.5,0.5,5,4,38,1,NA
fcp-trial,72,481742,0.0-47.0-0.0,voc_e2,12107,"[{""event"":""fullscreenenter"",""trial"":1,""time"":5114},{""event"":""blur"",""trial"":19,""time"":154911},{""event"":""focus"",""trial"":19,""time"":155010},{""event"":""blur"",""trial"":20,""time"":163905},{""event"":""focus"",""trial"":20,""time"":164008},{""event"":""blur"",""trial"":20,""time"":169603},{""event"":""focus"",""trial"":20,""time"":169714},{""event"":""blur"",""trial"":20,""time"":173105},{""event"":""focus"",""trial"":20,""time"":173210},{""event"":""blur"",""trial"":21,""time"":192930},{""event"":""focus"",""trial"":21,""time"":193055}]",NA,NA,NA,NA,NA,0,#D8271C,#741CD8,10,0,1,38,1,1098.2999999970198,37,1,703.2999999970198,10,1,experiment,NA,NA,0,0.9,0.1,0,1,39,1,NA
fcp-trial,73,484945,0.0-48.0-0.0,voc_e2,12107,"[{""event"":""fullscreenenter"",""trial"":1,""time"":5114},{""event"":""blur"",""trial"":19,""time"":154911},{""event"":""focus"",""trial"":19,""time"":155010},{""event"":""blur"",""trial"":20,""time"":163905},{""event"":""focus"",""trial"":20,""time"":164008},{""event"":""blur"",""trial"":20,""time"":169603},{""event"":""focus"",""trial"":20,""time"":169714},{""event"":""blur"",""trial"":20,""time"":173105},{""event"":""focus"",""trial"":20,""time"":173210},{""event"":""blur"",""trial"":21,""time"":192930},{""event"":""focus"",""trial"":21,""time"":193055}]",NA,NA,NA,NA,NA,2,#D89F1C,#3386FF,10,0,1,38,1,893.6000000089407,39,0,801.5,0,0,experiment,NA,NA,1,0.7,0.3,2,3,40,1,NA
fcp-trial,74,488310,0.0-49.0-0.0,voc_e2,12107,"[{""event"":""fullscreenenter"",""trial"":1,""time"":5114},{""event"":""blur"",""trial"":19,""time"":154911},{""event"":""focus"",""trial"":19,""time"":155010},{""event"":""blur"",""trial"":20,""time"":163905},{""event"":""focus"",""trial"":20,""time"":164008},{""event"":""blur"",""trial"":20,""time"":169603},{""event"":""focus"",""trial"":20,""time"":169714},{""event"":""blur"",""trial"":20,""time"":173105},{""event"":""focus"",""trial"":20,""time"":173210},{""event"":""blur"",""trial"":21,""time"":192930},{""event"":""focus"",""trial"":21,""time"":193055}]",NA,NA,NA,NA,NA,5,#D8271C,#741CD8,10,0,1,38,1,892.7999999970198,39,0,966.1999999880791,0,0,experiment,NA,NA,0,0.9,0.1,0,1,41,1,NA
fcp-trial,75,491118,0.0-50.0-0.0,voc_e2,12107,"[{""event"":""fullscreenenter"",""trial"":1,""time"":5114},{""event"":""blur"",""trial"":19,""time"":154911},{""event"":""focus"",""trial"":19,""time"":155010},{""event"":""blur"",""trial"":20,""time"":163905},{""event"":""focus"",""trial"":20,""time"":164008},{""event"":""blur"",""trial"":20,""time"":169603},{""event"":""focus"",""trial"":20,""time"":169714},{""event"":""blur"",""trial"":20,""time"":173105},{""event"":""focus"",""trial"":20,""time"":173210},{""event"":""blur"",""trial"":21,""time"":192930},{""event"":""focus"",""trial"":21,""time"":193055}]",NA,NA,NA,NA,NA,3,#741CD8,#D8271C,0,10,0,38,1,722.7999999970198,37,1,572.8999999910593,0,0,experiment,NA,NA,0,0.1,0.9,1,0,42,1,NA
fcp-trial,76,494150,0.0-51.0-0.0,voc_e2,12107,"[{""event"":""fullscreenenter"",""trial"":1,""time"":5114},{""event"":""blur"",""trial"":19,""time"":154911},{""event"":""focus"",""trial"":19,""time"":155010},{""event"":""blur"",""trial"":20,""time"":163905},{""event"":""focus"",""trial"":20,""time"":164008},{""event"":""blur"",""trial"":20,""time"":169603},{""event"":""focus"",""trial"":20,""time"":169714},{""event"":""blur"",""trial"":20,""time"":173105},{""event"":""focus"",""trial"":20,""time"":173210},{""event"":""blur"",""trial"":21,""time"":192930},{""event"":""focus"",""trial"":21,""time"":193055}]",NA,NA,NA,NA,NA,2,#741CD8,#D8271C,10,10,0,38,1,975,37,1,549.1000000089407,10,0,experiment,NA,NA,0,0.1,0.9,1,0,43,1,NA
fcp-trial,77,497006,0.0-52.0-0.0,voc_e2,12107,"[{""event"":""fullscreenenter"",""trial"":1,""time"":5114},{""event"":""blur"",""trial"":19,""time"":154911},{""event"":""focus"",""trial"":19,""time"":155010},{""event"":""blur"",""trial"":20,""time"":163905},{""event"":""focus"",""trial"":20,""time"":164008},{""event"":""blur"",""trial"":20,""time"":169603},{""event"":""focus"",""trial"":20,""time"":169714},{""event"":""blur"",""trial"":20,""time"":173105},{""event"":""focus"",""trial"":20,""time"":173210},{""event"":""blur"",""trial"":21,""time"":192930},{""event"":""focus"",""trial"":21,""time"":193055}]",NA,NA,NA,NA,NA,1,#3386FF,#D89F1C,0,10,0,38,1,485.09999999403954,39,0,856.1999999880791,10,1,experiment,NA,NA,1,0.3,0.7,3,2,44,1,NA
fcp-trial,78,500125,0.0-53.0-0.0,voc_e2,12107,"[{""event"":""fullscreenenter"",""trial"":1,""time"":5114},{""event"":""blur"",""trial"":19,""time"":154911},{""event"":""focus"",""trial"":19,""time"":155010},{""event"":""blur"",""trial"":20,""time"":163905},{""event"":""focus"",""trial"":20,""time"":164008},{""event"":""blur"",""trial"":20,""time"":169603},{""event"":""focus"",""trial"":20,""time"":169714},{""event"":""blur"",""trial"":20,""time"":173105},{""event"":""focus"",""trial"":20,""time"":173210},{""event"":""blur"",""trial"":21,""time"":192930},{""event"":""focus"",""trial"":21,""time"":193055}]",NA,NA,NA,NA,NA,0,#D89F1C,#3386FF,0,0,1,40,0,947.0999999940395,39,0,661.7999999970198,0,0,experiment,NA,NA,1,0.7,0.3,2,3,45,1,NA
fcp-trial,79,503637,0.0-54.0-0.0,voc_e2,12107,"[{""event"":""fullscreenenter"",""trial"":1,""time"":5114},{""event"":""blur"",""trial"":19,""time"":154911},{""event"":""focus"",""trial"":19,""time"":155010},{""event"":""blur"",""trial"":20,""time"":163905},{""event"":""focus"",""trial"":20,""time"":164008},{""event"":""blur"",""trial"":20,""time"":169603},{""event"":""focus"",""trial"":20,""time"":169714},{""event"":""blur"",""trial"":20,""time"":173105},{""event"":""focus"",""trial"":20,""time"":173210},{""event"":""blur"",""trial"":21,""time"":192930},{""event"":""focus"",""trial"":21,""time"":193055}]",NA,NA,NA,NA,NA,6,#1CD855,#FA92F8,0,0,1,38,1,968.3999999910593,37,1,1036.2000000029802,0,1,experiment,NA,NA,2,0.5,0.5,4,5,46,2,NA
fcp-trial,80,507400,0.0-55.0-0.0,voc_e2,12107,"[{""event"":""fullscreenenter"",""trial"":1,""time"":5114},{""event"":""blur"",""trial"":19,""time"":154911},{""event"":""focus"",""trial"":19,""time"":155010},{""event"":""blur"",""trial"":20,""time"":163905},{""event"":""focus"",""trial"":20,""time"":164008},{""event"":""blur"",""trial"":20,""time"":169603},{""event"":""focus"",""trial"":20,""time"":169714},{""event"":""blur"",""trial"":20,""time"":173105},{""event"":""focus"",""trial"":20,""time"":173210},{""event"":""blur"",""trial"":21,""time"":192930},{""event"":""focus"",""trial"":21,""time"":193055}]",NA,NA,NA,NA,NA,6,#D8271C,#741CD8,0,0,1,38,1,901.7000000029802,39,0,1352.5,0,0,experiment,NA,NA,0,0.9,0.1,0,1,47,2,NA
fcp-trial,81,510614,0.0-56.0-0.0,voc_e2,12107,"[{""event"":""fullscreenenter"",""trial"":1,""time"":5114},{""event"":""blur"",""trial"":19,""time"":154911},{""event"":""focus"",""trial"":19,""time"":155010},{""event"":""blur"",""trial"":20,""time"":163905},{""event"":""focus"",""trial"":20,""time"":164008},{""event"":""blur"",""trial"":20,""time"":169603},{""event"":""focus"",""trial"":20,""time"":169714},{""event"":""blur"",""trial"":20,""time"":173105},{""event"":""focus"",""trial"":20,""time"":173210},{""event"":""blur"",""trial"":21,""time"":192930},{""event"":""focus"",""trial"":21,""time"":193055}]",NA,NA,NA,NA,NA,0,#D8271C,#741CD8,10,0,1,38,1,1022.5,39,0,680.5,0,0,experiment,NA,NA,0,0.9,0.1,0,1,48,2,NA
fcp-trial,82,513668,0.0-57.0-0.0,voc_e2,12107,"[{""event"":""fullscreenenter"",""trial"":1,""time"":5114},{""event"":""blur"",""trial"":19,""time"":154911},{""event"":""focus"",""trial"":19,""time"":155010},{""event"":""blur"",""trial"":20,""time"":163905},{""event"":""focus"",""trial"":20,""time"":164008},{""event"":""blur"",""trial"":20,""time"":169603},{""event"":""focus"",""trial"":20,""time"":169714},{""event"":""blur"",""trial"":20,""time"":173105},{""event"":""focus"",""trial"":20,""time"":173210},{""event"":""blur"",""trial"":21,""time"":192930},{""event"":""focus"",""trial"":21,""time"":193055}]",NA,NA,NA,NA,NA,1,#FA92F8,#1CD855,10,10,0,38,1,468.6000000089407,39,0,1076.9000000059605,10,1,experiment,NA,NA,2,0.5,0.5,5,4,49,2,NA
fcp-trial,83,517040,0.0-58.0-0.0,voc_e2,12107,"[{""event"":""fullscreenenter"",""trial"":1,""time"":5114},{""event"":""blur"",""trial"":19,""time"":154911},{""event"":""focus"",""trial"":19,""time"":155010},{""event"":""blur"",""trial"":20,""time"":163905},{""event"":""focus"",""trial"":20,""time"":164008},{""event"":""blur"",""trial"":20,""time"":169603},{""event"":""focus"",""trial"":20,""time"":169714},{""event"":""blur"",""trial"":20,""time"":173105},{""event"":""focus"",""trial"":20,""time"":173210},{""event"":""blur"",""trial"":21,""time"":192930},{""event"":""focus"",""trial"":21,""time"":193055}]",NA,NA,NA,NA,NA,3,#D89F1C,#3386FF,10,0,1,38,1,1000.2999999970198,37,1,867.5,10,1,experiment,NA,NA,1,0.7,0.3,2,3,50,2,NA
fcp-trial,84,519870,0.0-59.0-0.0,voc_e2,12107,"[{""event"":""fullscreenenter"",""trial"":1,""time"":5114},{""event"":""blur"",""trial"":19,""time"":154911},{""event"":""focus"",""trial"":19,""time"":155010},{""event"":""blur"",""trial"":20,""time"":163905},{""event"":""focus"",""trial"":20,""time"":164008},{""event"":""blur"",""trial"":20,""time"":169603},{""event"":""focus"",""trial"":20,""time"":169714},{""event"":""blur"",""trial"":20,""time"":173105},{""event"":""focus"",""trial"":20,""time"":173210},{""event"":""blur"",""trial"":21,""time"":192930},{""event"":""focus"",""trial"":21,""time"":193055}]",NA,NA,NA,NA,NA,3,#741CD8,#D8271C,0,10,0,38,1,833.5,37,1,486.5,0,0,experiment,NA,NA,0,0.1,0.9,1,0,51,2,NA
fcp-trial,85,523517,0.0-60.0-0.0,voc_e2,12107,"[{""event"":""fullscreenenter"",""trial"":1,""time"":5114},{""event"":""blur"",""trial"":19,""time"":154911},{""event"":""focus"",""trial"":19,""time"":155010},{""event"":""blur"",""trial"":20,""time"":163905},{""event"":""focus"",""trial"":20,""time"":164008},{""event"":""blur"",""trial"":20,""time"":169603},{""event"":""focus"",""trial"":20,""time"":169714},{""event"":""blur"",""trial"":20,""time"":173105},{""event"":""focus"",""trial"":20,""time"":173210},{""event"":""blur"",""trial"":21,""time"":192930},{""event"":""focus"",""trial"":21,""time"":193055}]",NA,NA,NA,NA,NA,3,#FA92F8,#1CD855,10,10,0,38,1,1469.1000000089407,39,0,661.5,10,1,experiment,NA,NA,2,0.5,0.5,5,4,52,2,NA
fcp-trial,86,526623,0.0-61.0-0.0,voc_e2,12107,"[{""event"":""fullscreenenter"",""trial"":1,""time"":5114},{""event"":""blur"",""trial"":19,""time"":154911},{""event"":""focus"",""trial"":19,""time"":155010},{""event"":""blur"",""trial"":20,""time"":163905},{""event"":""focus"",""trial"":20,""time"":164008},{""event"":""blur"",""trial"":20,""time"":169603},{""event"":""focus"",""trial"":20,""time"":169714},{""event"":""blur"",""trial"":20,""time"":173105},{""event"":""focus"",""trial"":20,""time"":173210},{""event"":""blur"",""trial"":21,""time"":192930},{""event"":""focus"",""trial"":21,""time"":193055}]",NA,NA,NA,NA,NA,1,#D8271C,#741CD8,10,0,1,38,1,966.5999999940395,39,0,624.5,0,0,experiment,NA,NA,0,0.9,0.1,0,1,53,2,NA
fcp-trial,87,530165,0.0-62.0-0.0,voc_e2,12107,"[{""event"":""fullscreenenter"",""trial"":1,""time"":5114},{""event"":""blur"",""trial"":19,""time"":154911},{""event"":""focus"",""trial"":19,""time"":155010},{""event"":""blur"",""trial"":20,""time"":163905},{""event"":""focus"",""trial"":20,""time"":164008},{""event"":""blur"",""trial"":20,""time"":169603},{""event"":""focus"",""trial"":20,""time"":169714},{""event"":""blur"",""trial"":20,""time"":173105},{""event"":""focus"",""trial"":20,""time"":173210},{""event"":""blur"",""trial"":21,""time"":192930},{""event"":""focus"",""trial"":21,""time"":193055}]",NA,NA,NA,NA,NA,0,#FA92F8,#1CD855,10,10,0,38,1,1059.6000000089407,39,0,974.4000000059605,10,1,experiment,NA,NA,2,0.5,0.5,5,4,54,2,NA
fcp-trial,88,534894,0.0-63.0-0.0,voc_e2,12107,"[{""event"":""fullscreenenter"",""trial"":1,""time"":5114},{""event"":""blur"",""trial"":19,""time"":154911},{""event"":""focus"",""trial"":19,""time"":155010},{""event"":""blur"",""trial"":20,""time"":163905},{""event"":""focus"",""trial"":20,""time"":164008},{""event"":""blur"",""trial"":20,""time"":169603},{""event"":""focus"",""trial"":20,""time"":169714},{""event"":""blur"",""trial"":20,""time"":173105},{""event"":""focus"",""trial"":20,""time"":173210},{""event"":""blur"",""trial"":21,""time"":192930},{""event"":""focus"",""trial"":21,""time"":193055}]",NA,NA,NA,NA,NA,4,#3386FF,#D89F1C,10,10,0,38,1,1695.7999999970198,39,0,1518.5999999940395,10,1,experiment,NA,NA,1,0.3,0.7,3,2,55,2,NA
fcp-trial,89,538594,0.0-64.0-0.0,voc_e2,12107,"[{""event"":""fullscreenenter"",""trial"":1,""time"":5114},{""event"":""blur"",""trial"":19,""time"":154911},{""event"":""focus"",""trial"":19,""time"":155010},{""event"":""blur"",""trial"":20,""time"":163905},{""event"":""focus"",""trial"":20,""time"":164008},{""event"":""blur"",""trial"":20,""time"":169603},{""event"":""focus"",""trial"":20,""time"":169714},{""event"":""blur"",""trial"":20,""time"":173105},{""event"":""focus"",""trial"":20,""time"":173210},{""event"":""blur"",""trial"":21,""time"":192930},{""event"":""focus"",""trial"":21,""time"":193055}]",NA,NA,NA,NA,NA,4,#741CD8,#D8271C,0,10,0,38,1,763.1000000089407,39,0,1428.7000000029802,10,1,experiment,NA,NA,0,0.1,0.9,1,0,56,2,NA
fcp-trial,90,542445,0.0-65.0-0.0,voc_e2,12107,"[{""event"":""fullscreenenter"",""trial"":1,""time"":5114},{""event"":""blur"",""trial"":19,""time"":154911},{""event"":""focus"",""trial"":19,""time"":155010},{""event"":""blur"",""trial"":20,""time"":163905},{""event"":""focus"",""trial"":20,""time"":164008},{""event"":""blur"",""trial"":20,""time"":169603},{""event"":""focus"",""trial"":20,""time"":169714},{""event"":""blur"",""trial"":20,""time"":173105},{""event"":""focus"",""trial"":20,""time"":173210},{""event"":""blur"",""trial"":21,""time"":192930},{""event"":""focus"",""trial"":21,""time"":193055}]",NA,NA,NA,NA,NA,5,#3386FF,#D89F1C,0,10,0,38,1,1753,39,0,589.8000000119209,10,1,experiment,NA,NA,1,0.3,0.7,3,2,57,2,NA
fcp-trial,91,548101,0.0-66.0-0.0,voc_e2,12107,"[{""event"":""fullscreenenter"",""trial"":1,""time"":5114},{""event"":""blur"",""trial"":19,""time"":154911},{""event"":""focus"",""trial"":19,""time"":155010},{""event"":""blur"",""trial"":20,""time"":163905},{""event"":""focus"",""trial"":20,""time"":164008},{""event"":""blur"",""trial"":20,""time"":169603},{""event"":""focus"",""trial"":20,""time"":169714},{""event"":""blur"",""trial"":20,""time"":173105},{""event"":""focus"",""trial"":20,""time"":173210},{""event"":""blur"",""trial"":21,""time"":192930},{""event"":""focus"",""trial"":21,""time"":193055}]",NA,NA,NA,NA,NA,4,#FA92F8,#1CD855,10,10,0,40,0,2866.5,39,0,1280.2999999970198,10,1,experiment,NA,NA,2,0.5,0.5,5,4,58,2,NA
fcp-trial,92,552238,0.0-67.0-0.0,voc_e2,12107,"[{""event"":""fullscreenenter"",""trial"":1,""time"":5114},{""event"":""blur"",""trial"":19,""time"":154911},{""event"":""focus"",""trial"":19,""time"":155010},{""event"":""blur"",""trial"":20,""time"":163905},{""event"":""focus"",""trial"":20,""time"":164008},{""event"":""blur"",""trial"":20,""time"":169603},{""event"":""focus"",""trial"":20,""time"":169714},{""event"":""blur"",""trial"":20,""time"":173105},{""event"":""focus"",""trial"":20,""time"":173210},{""event"":""blur"",""trial"":21,""time"":192930},{""event"":""focus"",""trial"":21,""time"":193055}]",NA,NA,NA,NA,NA,5,#FA92F8,#1CD855,10,10,0,38,1,1203.2000000029802,39,0,1423.7999999970198,10,1,experiment,NA,NA,2,0.5,0.5,5,4,59,2,NA
fcp-trial,93,556694,0.0-68.0-0.0,voc_e2,12107,"[{""event"":""fullscreenenter"",""trial"":1,""time"":5114},{""event"":""blur"",""trial"":19,""time"":154911},{""event"":""focus"",""trial"":19,""time"":155010},{""event"":""blur"",""trial"":20,""time"":163905},{""event"":""focus"",""trial"":20,""time"":164008},{""event"":""blur"",""trial"":20,""time"":169603},{""event"":""focus"",""trial"":20,""time"":169714},{""event"":""blur"",""trial"":20,""time"":173105},{""event"":""focus"",""trial"":20,""time"":173210},{""event"":""blur"",""trial"":21,""time"":192930},{""event"":""focus"",""trial"":21,""time"":193055}]",NA,NA,NA,NA,NA,6,#3386FF,#D89F1C,0,10,0,40,0,1023.3000000119209,39,0,1920.5999999940395,10,1,experiment,NA,NA,1,0.3,0.7,3,2,60,2,NA
fcp-trial,94,560647,0.0-69.0-0.0,voc_e2,12107,"[{""event"":""fullscreenenter"",""trial"":1,""time"":5114},{""event"":""blur"",""trial"":19,""time"":154911},{""event"":""focus"",""trial"":19,""time"":155010},{""event"":""blur"",""trial"":20,""time"":163905},{""event"":""focus"",""trial"":20,""time"":164008},{""event"":""blur"",""trial"":20,""time"":169603},{""event"":""focus"",""trial"":20,""time"":169714},{""event"":""blur"",""trial"":20,""time"":173105},{""event"":""focus"",""trial"":20,""time"":173210},{""event"":""blur"",""trial"":21,""time"":192930},{""event"":""focus"",""trial"":21,""time"":193055}]",NA,NA,NA,NA,NA,5,#741CD8,#D8271C,0,10,0,38,1,1855,37,1,590.7999999970198,0,0,experiment,NA,NA,0,0.1,0.9,1,0,61,2,NA
fcp-trial,95,563773,0.0-70.0-0.0,voc_e2,12107,"[{""event"":""fullscreenenter"",""trial"":1,""time"":5114},{""event"":""blur"",""trial"":19,""time"":154911},{""event"":""focus"",""trial"":19,""time"":155010},{""event"":""blur"",""trial"":20,""time"":163905},{""event"":""focus"",""trial"":20,""time"":164008},{""event"":""blur"",""trial"":20,""time"":169603},{""event"":""focus"",""trial"":20,""time"":169714},{""event"":""blur"",""trial"":20,""time"":173105},{""event"":""focus"",""trial"":20,""time"":173210},{""event"":""blur"",""trial"":21,""time"":192930},{""event"":""focus"",""trial"":21,""time"":193055}]",NA,NA,NA,NA,NA,2,#3386FF,#D89F1C,0,10,0,38,1,957.2999999970198,39,0,663.7999999970198,10,1,experiment,NA,NA,1,0.3,0.7,3,2,62,2,NA
fcp-trial,96,567358,0.0-71.0-0.0,voc_e2,12107,"[{""event"":""fullscreenenter"",""trial"":1,""time"":5114},{""event"":""blur"",""trial"":19,""time"":154911},{""event"":""focus"",""trial"":19,""time"":155010},{""event"":""blur"",""trial"":20,""time"":163905},{""event"":""focus"",""trial"":20,""time"":164008},{""event"":""blur"",""trial"":20,""time"":169603},{""event"":""focus"",""trial"":20,""time"":169714},{""event"":""blur"",""trial"":20,""time"":173105},{""event"":""focus"",""trial"":20,""time"":173210},{""event"":""blur"",""trial"":21,""time"":192930},{""event"":""focus"",""trial"":21,""time"":193055}]",NA,NA,NA,NA,NA,2,#FA92F8,#1CD855,10,0,0,40,0,767.8999999910593,39,0,1304.7999999970198,0,1,experiment,NA,NA,2,0.5,0.5,5,4,63,2,NA
fcp-trial,97,570836,0.0-72.0-0.0,voc_e2,12107,"[{""event"":""fullscreenenter"",""trial"":1,""time"":5114},{""event"":""blur"",""trial"":19,""time"":154911},{""event"":""focus"",""trial"":19,""time"":155010},{""event"":""blur"",""trial"":20,""time"":163905},{""event"":""focus"",""trial"":20,""time"":164008},{""event"":""blur"",""trial"":20,""time"":169603},{""event"":""focus"",""trial"":20,""time"":169714},{""event"":""blur"",""trial"":20,""time"":173105},{""event"":""focus"",""trial"":20,""time"":173210},{""event"":""blur"",""trial"":21,""time"":192930},{""event"":""focus"",""trial"":21,""time"":193055}]",NA,NA,NA,NA,NA,4,#741CD8,#D8271C,0,10,0,38,1,1352.5,37,1,613.2999999970198,0,0,experiment,NA,NA,0,0.1,0.9,1,0,64,2,NA
fcp-trial,98,574629,0.0-73.0-0.0,voc_e2,12107,"[{""event"":""fullscreenenter"",""trial"":1,""time"":5114},{""event"":""blur"",""trial"":19,""time"":154911},{""event"":""focus"",""trial"":19,""time"":155010},{""event"":""blur"",""trial"":20,""time"":163905},{""event"":""focus"",""trial"":20,""time"":164008},{""event"":""blur"",""trial"":20,""time"":169603},{""event"":""focus"",""trial"":20,""time"":169714},{""event"":""blur"",""trial"":20,""time"":173105},{""event"":""focus"",""trial"":20,""time"":173210},{""event"":""blur"",""trial"":21,""time"":192930},{""event"":""focus"",""trial"":21,""time"":193055}]",NA,NA,NA,NA,NA,1,#3386FF,#D89F1C,0,0,0,38,1,1538.800000011921,39,0,741,0,1,experiment,NA,NA,1,0.3,0.7,3,2,65,2,NA
fcp-trial,99,577565,0.0-74.0-0.0,voc_e2,12107,"[{""event"":""fullscreenenter"",""trial"":1,""time"":5114},{""event"":""blur"",""trial"":19,""time"":154911},{""event"":""focus"",""trial"":19,""time"":155010},{""event"":""blur"",""trial"":20,""time"":163905},{""event"":""focus"",""trial"":20,""time"":164008},{""event"":""blur"",""trial"":20,""time"":169603},{""event"":""focus"",""trial"":20,""time"":169714},{""event"":""blur"",""trial"":20,""time"":173105},{""event"":""focus"",""trial"":20,""time"":173210},{""event"":""blur"",""trial"":21,""time"":192930},{""event"":""focus"",""trial"":21,""time"":193055}]",NA,NA,NA,NA,NA,3,#D8271C,#741CD8,10,0,1,40,0,669.8999999910593,37,1,760.2000000029802,10,1,experiment,NA,NA,0,0.9,0.1,0,1,66,2,NA
fcp-trial,100,581621,0.0-75.0-0.0,voc_e2,12107,"[{""event"":""fullscreenenter"",""trial"":1,""time"":5114},{""event"":""blur"",""trial"":19,""time"":154911},{""event"":""focus"",""trial"":19,""time"":155010},{""event"":""blur"",""trial"":20,""time"":163905},{""event"":""focus"",""trial"":20,""time"":164008},{""event"":""blur"",""trial"":20,""time"":169603},{""event"":""focus"",""trial"":20,""time"":169714},{""event"":""blur"",""trial"":20,""time"":173105},{""event"":""focus"",""trial"":20,""time"":173210},{""event"":""blur"",""trial"":21,""time"":192930},{""event"":""focus"",""trial"":21,""time"":193055}]",NA,NA,NA,NA,NA,1,#1CD855,#FA92F8,10,0,1,38,1,1756.5,39,0,790.8000000119209,0,0,experiment,NA,NA,2,0.5,0.5,4,5,67,2,NA
fcp-trial,101,585830,0.0-76.0-0.0,voc_e2,12107,"[{""event"":""fullscreenenter"",""trial"":1,""time"":5114},{""event"":""blur"",""trial"":19,""time"":154911},{""event"":""focus"",""trial"":19,""time"":155010},{""event"":""blur"",""trial"":20,""time"":163905},{""event"":""focus"",""trial"":20,""time"":164008},{""event"":""blur"",""trial"":20,""time"":169603},{""event"":""focus"",""trial"":20,""time"":169714},{""event"":""blur"",""trial"":20,""time"":173105},{""event"":""focus"",""trial"":20,""time"":173210},{""event"":""blur"",""trial"":21,""time"":192930},{""event"":""focus"",""trial"":21,""time"":193055}]",NA,NA,NA,NA,NA,0,#741CD8,#D8271C,0,10,0,40,0,1845.5,37,1,856.7000000029802,0,0,experiment,NA,NA,0,0.1,0.9,1,0,68,2,NA
fcp-trial,102,588981,0.0-77.0-0.0,voc_e2,12107,"[{""event"":""fullscreenenter"",""trial"":1,""time"":5114},{""event"":""blur"",""trial"":19,""time"":154911},{""event"":""focus"",""trial"":19,""time"":155010},{""event"":""blur"",""trial"":20,""time"":163905},{""event"":""focus"",""trial"":20,""time"":164008},{""event"":""blur"",""trial"":20,""time"":169603},{""event"":""focus"",""trial"":20,""time"":169714},{""event"":""blur"",""trial"":20,""time"":173105},{""event"":""focus"",""trial"":20,""time"":173210},{""event"":""blur"",""trial"":21,""time"":192930},{""event"":""focus"",""trial"":21,""time"":193055}]",NA,NA,NA,NA,NA,6,#3386FF,#D89F1C,10,0,0,38,1,769.5,39,0,871.7000000029802,0,1,experiment,NA,NA,1,0.3,0.7,3,2,69,2,NA
fcp-trial,103,593253,0.0-78.0-0.0,voc_e2,12107,"[{""event"":""fullscreenenter"",""trial"":1,""time"":5114},{""event"":""blur"",""trial"":19,""time"":154911},{""event"":""focus"",""trial"":19,""time"":155010},{""event"":""blur"",""trial"":20,""time"":163905},{""event"":""focus"",""trial"":20,""time"":164008},{""event"":""blur"",""trial"":20,""time"":169603},{""event"":""focus"",""trial"":20,""time"":169714},{""event"":""blur"",""trial"":20,""time"":173105},{""event"":""focus"",""trial"":20,""time"":173210},{""event"":""blur"",""trial"":21,""time"":192930},{""event"":""focus"",""trial"":21,""time"":193055}]",NA,NA,NA,NA,NA,3,#1CD855,#FA92F8,0,0,1,40,0,1954.7000000029802,39,0,807.7000000029802,0,0,experiment,NA,NA,2,0.5,0.5,4,5,70,2,NA
fcp-trial,104,597351,0.0-79.0-0.0,voc_e2,12107,"[{""event"":""fullscreenenter"",""trial"":1,""time"":5114},{""event"":""blur"",""trial"":19,""time"":154911},{""event"":""focus"",""trial"":19,""time"":155010},{""event"":""blur"",""trial"":20,""time"":163905},{""event"":""focus"",""trial"":20,""time"":164008},{""event"":""blur"",""trial"":20,""time"":169603},{""event"":""focus"",""trial"":20,""time"":169714},{""event"":""blur"",""trial"":20,""time"":173105},{""event"":""focus"",""trial"":20,""time"":173210},{""event"":""blur"",""trial"":21,""time"":192930},{""event"":""focus"",""trial"":21,""time"":193055}]",NA,NA,NA,NA,NA,2,#D89F1C,#3386FF,0,0,1,38,1,1975.699999988079,37,1,607.5999999940395,0,1,experiment,NA,NA,1,0.7,0.3,2,3,71,2,NA
fcp-trial,105,601840,0.0-80.0-0.0,voc_e2,12107,"[{""event"":""fullscreenenter"",""trial"":1,""time"":5114},{""event"":""blur"",""trial"":19,""time"":154911},{""event"":""focus"",""trial"":19,""time"":155010},{""event"":""blur"",""trial"":20,""time"":163905},{""event"":""focus"",""trial"":20,""time"":164008},{""event"":""blur"",""trial"":20,""time"":169603},{""event"":""focus"",""trial"":20,""time"":169714},{""event"":""blur"",""trial"":20,""time"":173105},{""event"":""focus"",""trial"":20,""time"":173210},{""event"":""blur"",""trial"":21,""time"":192930},{""event"":""focus"",""trial"":21,""time"":193055}]",NA,NA,NA,NA,NA,5,#741CD8,#D8271C,0,10,0,40,0,2318.7999999970198,37,1,655.2000000029802,0,0,experiment,NA,NA,0,0.1,0.9,1,0,72,2,NA
fcp-trial,106,608061,0.0-81.0-0.0,voc_e2,12107,"[{""event"":""fullscreenenter"",""trial"":1,""time"":5114},{""event"":""blur"",""trial"":19,""time"":154911},{""event"":""focus"",""trial"":19,""time"":155010},{""event"":""blur"",""trial"":20,""time"":163905},{""event"":""focus"",""trial"":20,""time"":164008},{""event"":""blur"",""trial"":20,""time"":169603},{""event"":""focus"",""trial"":20,""time"":169714},{""event"":""blur"",""trial"":20,""time"":173105},{""event"":""focus"",""trial"":20,""time"":173210},{""event"":""blur"",""trial"":21,""time"":192930},{""event"":""focus"",""trial"":21,""time"":193055}]",NA,NA,NA,NA,NA,4,#1CD855,#FA92F8,10,0,1,38,1,2712.9000000059605,37,1,1997.2999999970198,10,1,experiment,NA,NA,2,0.5,0.5,4,5,73,2,NA
fcp-trial,107,611748,0.0-82.0-0.0,voc_e2,12107,"[{""event"":""fullscreenenter"",""trial"":1,""time"":5114},{""event"":""blur"",""trial"":19,""time"":154911},{""event"":""focus"",""trial"":19,""time"":155010},{""event"":""blur"",""trial"":20,""time"":163905},{""event"":""focus"",""trial"":20,""time"":164008},{""event"":""blur"",""trial"":20,""time"":169603},{""event"":""focus"",""trial"":20,""time"":169714},{""event"":""blur"",""trial"":20,""time"":173105},{""event"":""focus"",""trial"":20,""time"":173210},{""event"":""blur"",""trial"":21,""time"":192930},{""event"":""focus"",""trial"":21,""time"":193055}]",NA,NA,NA,NA,NA,3,#3386FF,#D89F1C,10,0,0,38,1,1797.4000000059605,39,0,383.8999999910593,0,1,experiment,NA,NA,1,0.3,0.7,3,2,74,2,NA
fcp-trial,108,615053,0.0-83.0-0.0,voc_e2,12107,"[{""event"":""fullscreenenter"",""trial"":1,""time"":5114},{""event"":""blur"",""trial"":19,""time"":154911},{""event"":""focus"",""trial"":19,""time"":155010},{""event"":""blur"",""trial"":20,""time"":163905},{""event"":""focus"",""trial"":20,""time"":164008},{""event"":""blur"",""trial"":20,""time"":169603},{""event"":""focus"",""trial"":20,""time"":169714},{""event"":""blur"",""trial"":20,""time"":173105},{""event"":""focus"",""trial"":20,""time"":173210},{""event"":""blur"",""trial"":21,""time"":192930},{""event"":""focus"",""trial"":21,""time"":193055}]",NA,NA,NA,NA,NA,4,#D89F1C,#3386FF,10,0,1,40,0,1325.5999999940395,37,1,471.40000000596046,10,1,experiment,NA,NA,1,0.7,0.3,2,3,75,2,NA
fcp-trial,109,618624,0.0-84.0-0.0,voc_e2,12107,"[{""event"":""fullscreenenter"",""trial"":1,""time"":5114},{""event"":""blur"",""trial"":19,""time"":154911},{""event"":""focus"",""trial"":19,""time"":155010},{""event"":""blur"",""trial"":20,""time"":163905},{""event"":""focus"",""trial"":20,""time"":164008},{""event"":""blur"",""trial"":20,""time"":169603},{""event"":""focus"",""trial"":20,""time"":169714},{""event"":""blur"",""trial"":20,""time"":173105},{""event"":""focus"",""trial"":20,""time"":173210},{""event"":""blur"",""trial"":21,""time"":192930},{""event"":""focus"",""trial"":21,""time"":193055}]",NA,NA,NA,NA,NA,6,#741CD8,#D8271C,0,10,0,40,0,1494.2000000029802,39,0,568.2999999970198,10,1,experiment,NA,NA,0,0.1,0.9,1,0,76,2,NA
fcp-trial,110,622389,0.0-85.0-0.0,voc_e2,12107,"[{""event"":""fullscreenenter"",""trial"":1,""time"":5114},{""event"":""blur"",""trial"":19,""time"":154911},{""event"":""focus"",""trial"":19,""time"":155010},{""event"":""blur"",""trial"":20,""time"":163905},{""event"":""focus"",""trial"":20,""time"":164008},{""event"":""blur"",""trial"":20,""time"":169603},{""event"":""focus"",""trial"":20,""time"":169714},{""event"":""blur"",""trial"":20,""time"":173105},{""event"":""focus"",""trial"":20,""time"":173210},{""event"":""blur"",""trial"":21,""time"":192930},{""event"":""focus"",""trial"":21,""time"":193055}]",NA,NA,NA,NA,NA,2,#741CD8,#D8271C,10,10,0,40,0,1452.4000000059605,37,1,807.3000000119209,10,0,experiment,NA,NA,0,0.1,0.9,1,0,77,2,NA
fcp-trial,111,625245,0.0-86.0-0.0,voc_e2,12107,"[{""event"":""fullscreenenter"",""trial"":1,""time"":5114},{""event"":""blur"",""trial"":19,""time"":154911},{""event"":""focus"",""trial"":19,""time"":155010},{""event"":""blur"",""trial"":20,""time"":163905},{""event"":""focus"",""trial"":20,""time"":164008},{""event"":""blur"",""trial"":20,""time"":169603},{""event"":""focus"",""trial"":20,""time"":169714},{""event"":""blur"",""trial"":20,""time"":173105},{""event"":""focus"",""trial"":20,""time"":173210},{""event"":""blur"",""trial"":21,""time"":192930},{""event"":""focus"",""trial"":21,""time"":193055}]",NA,NA,NA,NA,NA,2,#1CD855,#FA92F8,10,10,1,40,0,600.3999999910593,37,1,742.5999999940395,10,1,experiment,NA,NA,2,0.5,0.5,4,5,78,2,NA
fcp-trial,112,628287,0.0-87.0-0.0,voc_e2,12107,"[{""event"":""fullscreenenter"",""trial"":1,""time"":5114},{""event"":""blur"",""trial"":19,""time"":154911},{""event"":""focus"",""trial"":19,""time"":155010},{""event"":""blur"",""trial"":20,""time"":163905},{""event"":""focus"",""trial"":20,""time"":164008},{""event"":""blur"",""trial"":20,""time"":169603},{""event"":""focus"",""trial"":20,""time"":169714},{""event"":""blur"",""trial"":20,""time"":173105},{""event"":""focus"",""trial"":20,""time"":173210},{""event"":""blur"",""trial"":21,""time"":192930},{""event"":""focus"",""trial"":21,""time"":193055}]",NA,NA,NA,NA,NA,0,#3386FF,#D89F1C,10,10,0,40,0,654.3000000119209,39,0,870.5999999940395,10,1,experiment,NA,NA,1,0.3,0.7,3,2,79,2,NA
fcp-trial,113,631215,0.0-88.0-0.0,voc_e2,12107,"[{""event"":""fullscreenenter"",""trial"":1,""time"":5114},{""event"":""blur"",""trial"":19,""time"":154911},{""event"":""focus"",""trial"":19,""time"":155010},{""event"":""blur"",""trial"":20,""time"":163905},{""event"":""focus"",""trial"":20,""time"":164008},{""event"":""blur"",""trial"":20,""time"":169603},{""event"":""focus"",""trial"":20,""time"":169714},{""event"":""blur"",""trial"":20,""time"":173105},{""event"":""focus"",""trial"":20,""time"":173210},{""event"":""blur"",""trial"":21,""time"":192930},{""event"":""focus"",""trial"":21,""time"":193055}]",NA,NA,NA,NA,NA,6,#FA92F8,#1CD855,0,10,0,40,0,706.9000000059605,37,1,710.8000000119209,0,0,experiment,NA,NA,2,0.5,0.5,5,4,80,2,NA
fcp-trial,114,635888,0.0-89.0-0.0,voc_e2,12107,"[{""event"":""fullscreenenter"",""trial"":1,""time"":5114},{""event"":""blur"",""trial"":19,""time"":154911},{""event"":""focus"",""trial"":19,""time"":155010},{""event"":""blur"",""trial"":20,""time"":163905},{""event"":""focus"",""trial"":20,""time"":164008},{""event"":""blur"",""trial"":20,""time"":169603},{""event"":""focus"",""trial"":20,""time"":169714},{""event"":""blur"",""trial"":20,""time"":173105},{""event"":""focus"",""trial"":20,""time"":173210},{""event"":""blur"",""trial"":21,""time"":192930},{""event"":""focus"",""trial"":21,""time"":193055}]",NA,NA,NA,NA,NA,0,#1CD855,#FA92F8,10,10,1,38,1,2126.5999999940395,37,1,1031,10,1,experiment,NA,NA,2,0.5,0.5,4,5,81,2,NA
fcp-trial,115,640414,0.0-90.0-0.0,voc_e2,12107,"[{""event"":""fullscreenenter"",""trial"":1,""time"":5114},{""event"":""blur"",""trial"":19,""time"":154911},{""event"":""focus"",""trial"":19,""time"":155010},{""event"":""blur"",""trial"":20,""time"":163905},{""event"":""focus"",""trial"":20,""time"":164008},{""event"":""blur"",""trial"":20,""time"":169603},{""event"":""focus"",""trial"":20,""time"":169714},{""event"":""blur"",""trial"":20,""time"":173105},{""event"":""focus"",""trial"":20,""time"":173210},{""event"":""blur"",""trial"":21,""time"":192930},{""event"":""focus"",""trial"":21,""time"":193055}]",NA,NA,NA,NA,NA,1,#741CD8,#D8271C,0,10,0,38,1,2384,39,0,635.7999999970198,10,1,experiment,NA,NA,0,0.1,0.9,1,0,82,2,NA
fcp-trial,116,644335,0.0-91.0-0.0,voc_e2,12107,"[{""event"":""fullscreenenter"",""trial"":1,""time"":5114},{""event"":""blur"",""trial"":19,""time"":154911},{""event"":""focus"",""trial"":19,""time"":155010},{""event"":""blur"",""trial"":20,""time"":163905},{""event"":""focus"",""trial"":20,""time"":164008},{""event"":""blur"",""trial"":20,""time"":169603},{""event"":""focus"",""trial"":20,""time"":169714},{""event"":""blur"",""trial"":20,""time"":173105},{""event"":""focus"",""trial"":20,""time"":173210},{""event"":""blur"",""trial"":21,""time"":192930},{""event"":""focus"",""trial"":21,""time"":193055}]",NA,NA,NA,NA,NA,5,#1CD855,#FA92F8,0,10,1,40,0,1729.5999999940395,39,0,677.2000000029802,10,0,experiment,NA,NA,2,0.5,0.5,4,5,83,2,NA
fcp-trial,117,648254,0.0-92.0-0.0,voc_e2,12107,"[{""event"":""fullscreenenter"",""trial"":1,""time"":5114},{""event"":""blur"",""trial"":19,""time"":154911},{""event"":""focus"",""trial"":19,""time"":155010},{""event"":""blur"",""trial"":20,""time"":163905},{""event"":""focus"",""trial"":20,""time"":164008},{""event"":""blur"",""trial"":20,""time"":169603},{""event"":""focus"",""trial"":20,""time"":169714},{""event"":""blur"",""trial"":20,""time"":173105},{""event"":""focus"",""trial"":20,""time"":173210},{""event"":""blur"",""trial"":21,""time"":192930},{""event"":""focus"",""trial"":21,""time"":193055}]",NA,NA,NA,NA,NA,5,#D89F1C,#3386FF,10,10,1,40,0,1442.2000000029802,39,0,965,10,0,experiment,NA,NA,1,0.7,0.3,2,3,84,2,NA
fcp-trial,118,652662,0.0-93.0-0.0,voc_e2,12107,"[{""event"":""fullscreenenter"",""trial"":1,""time"":5114},{""event"":""blur"",""trial"":19,""time"":154911},{""event"":""focus"",""trial"":19,""time"":155010},{""event"":""blur"",""trial"":20,""time"":163905},{""event"":""focus"",""trial"":20,""time"":164008},{""event"":""blur"",""trial"":20,""time"":169603},{""event"":""focus"",""trial"":20,""time"":169714},{""event"":""blur"",""trial"":20,""time"":173105},{""event"":""focus"",""trial"":20,""time"":173210},{""event"":""blur"",""trial"":21,""time"":192930},{""event"":""focus"",""trial"":21,""time"":193055}]",NA,NA,NA,NA,NA,3,#3386FF,#D89F1C,0,0,0,38,1,2264,39,0,630.5999999940395,0,1,experiment,NA,NA,1,0.3,0.7,3,2,85,2,NA
fcp-trial,119,656589,0.0-94.0-0.0,voc_e2,12107,"[{""event"":""fullscreenenter"",""trial"":1,""time"":5114},{""event"":""blur"",""trial"":19,""time"":154911},{""event"":""focus"",""trial"":19,""time"":155010},{""event"":""blur"",""trial"":20,""time"":163905},{""event"":""focus"",""trial"":20,""time"":164008},{""event"":""blur"",""trial"":20,""time"":169603},{""event"":""focus"",""trial"":20,""time"":169714},{""event"":""blur"",""trial"":20,""time"":173105},{""event"":""focus"",""trial"":20,""time"":173210},{""event"":""blur"",""trial"":21,""time"":192930},{""event"":""focus"",""trial"":21,""time"":193055}]",NA,NA,NA,NA,NA,5,#D8271C,#741CD8,10,0,1,40,0,1732.7999999970198,37,1,686.2000000029802,10,1,experiment,NA,NA,0,0.9,0.1,0,1,86,2,NA
fcp-trial,120,660252,0.0-95.0-0.0,voc_e2,12107,"[{""event"":""fullscreenenter"",""trial"":1,""time"":5114},{""event"":""blur"",""trial"":19,""time"":154911},{""event"":""focus"",""trial"":19,""time"":155010},{""event"":""blur"",""trial"":20,""time"":163905},{""event"":""focus"",""trial"":20,""time"":164008},{""event"":""blur"",""trial"":20,""time"":169603},{""event"":""focus"",""trial"":20,""time"":169714},{""event"":""blur"",""trial"":20,""time"":173105},{""event"":""focus"",""trial"":20,""time"":173210},{""event"":""blur"",""trial"":21,""time"":192930},{""event"":""focus"",""trial"":21,""time"":193055}]",NA,NA,NA,NA,NA,2,#3386FF,#D89F1C,0,10,0,40,0,1289.0999999940395,39,0,869.2000000029802,10,1,experiment,NA,NA,1,0.3,0.7,3,2,87,2,NA
fcp-trial,121,664528,0.0-96.0-0.0,voc_e2,12107,"[{""event"":""fullscreenenter"",""trial"":1,""time"":5114},{""event"":""blur"",""trial"":19,""time"":154911},{""event"":""focus"",""trial"":19,""time"":155010},{""event"":""blur"",""trial"":20,""time"":163905},{""event"":""focus"",""trial"":20,""time"":164008},{""event"":""blur"",""trial"":20,""time"":169603},{""event"":""focus"",""trial"":20,""time"":169714},{""event"":""blur"",""trial"":20,""time"":173105},{""event"":""focus"",""trial"":20,""time"":173210},{""event"":""blur"",""trial"":21,""time"":192930},{""event"":""focus"",""trial"":21,""time"":193055}]",NA,NA,NA,NA,NA,3,#D8271C,#741CD8,10,0,1,40,0,2141.7999999970198,39,0,625.5,0,0,experiment,NA,NA,0,0.9,0.1,0,1,88,2,NA
fcp-trial,122,668532,0.0-97.0-0.0,voc_e2,12107,"[{""event"":""fullscreenenter"",""trial"":1,""time"":5114},{""event"":""blur"",""trial"":19,""time"":154911},{""event"":""focus"",""trial"":19,""time"":155010},{""event"":""blur"",""trial"":20,""time"":163905},{""event"":""focus"",""trial"":20,""time"":164008},{""event"":""blur"",""trial"":20,""time"":169603},{""event"":""focus"",""trial"":20,""time"":169714},{""event"":""blur"",""trial"":20,""time"":173105},{""event"":""focus"",""trial"":20,""time"":173210},{""event"":""blur"",""trial"":21,""time"":192930},{""event"":""focus"",""trial"":21,""time"":193055}]",NA,NA,NA,NA,NA,0,#FA92F8,#1CD855,0,10,0,38,1,1004.0999999940395,37,1,1494.5999999940395,0,0,experiment,NA,NA,2,0.5,0.5,5,4,89,2,NA
fcp-trial,123,672230,0.0-98.0-0.0,voc_e2,12107,"[{""event"":""fullscreenenter"",""trial"":1,""time"":5114},{""event"":""blur"",""trial"":19,""time"":154911},{""event"":""focus"",""trial"":19,""time"":155010},{""event"":""blur"",""trial"":20,""time"":163905},{""event"":""focus"",""trial"":20,""time"":164008},{""event"":""blur"",""trial"":20,""time"":169603},{""event"":""focus"",""trial"":20,""time"":169714},{""event"":""blur"",""trial"":20,""time"":173105},{""event"":""focus"",""trial"":20,""time"":173210},{""event"":""blur"",""trial"":21,""time"":192930},{""event"":""focus"",""trial"":21,""time"":193055}]",NA,NA,NA,NA,NA,5,#3386FF,#D89F1C,0,0,0,40,0,945.5999999940395,37,1,1247,0,0,experiment,NA,NA,1,0.3,0.7,3,2,90,2,NA
fcp-trial,124,676044,0.0-99.0-0.0,voc_e2,12107,"[{""event"":""fullscreenenter"",""trial"":1,""time"":5114},{""event"":""blur"",""trial"":19,""time"":154911},{""event"":""focus"",""trial"":19,""time"":155010},{""event"":""blur"",""trial"":20,""time"":163905},{""event"":""focus"",""trial"":20,""time"":164008},{""event"":""blur"",""trial"":20,""time"":169603},{""event"":""focus"",""trial"":20,""time"":169714},{""event"":""blur"",""trial"":20,""time"":173105},{""event"":""focus"",""trial"":20,""time"":173210},{""event"":""blur"",""trial"":21,""time"":192930},{""event"":""focus"",""trial"":21,""time"":193055}]",NA,NA,NA,NA,NA,3,#FA92F8,#1CD855,0,10,0,40,0,1481.4000000059605,37,1,821,0,0,experiment,NA,NA,2,0.5,0.5,5,4,91,3,NA
fcp-trial,125,679271,0.0-100.0-0.0,voc_e2,12107,"[{""event"":""fullscreenenter"",""trial"":1,""time"":5114},{""event"":""blur"",""trial"":19,""time"":154911},{""event"":""focus"",""trial"":19,""time"":155010},{""event"":""blur"",""trial"":20,""time"":163905},{""event"":""focus"",""trial"":20,""time"":164008},{""event"":""blur"",""trial"":20,""time"":169603},{""event"":""focus"",""trial"":20,""time"":169714},{""event"":""blur"",""trial"":20,""time"":173105},{""event"":""focus"",""trial"":20,""time"":173210},{""event"":""blur"",""trial"":21,""time"":192930},{""event"":""focus"",""trial"":21,""time"":193055}]",NA,NA,NA,NA,NA,0,#741CD8,#D8271C,0,10,0,38,1,824.5,39,0,893.8000000119209,10,1,experiment,NA,NA,0,0.1,0.9,1,0,92,3,NA
fcp-trial,126,683541,0.0-101.0-0.0,voc_e2,12107,"[{""event"":""fullscreenenter"",""trial"":1,""time"":5114},{""event"":""blur"",""trial"":19,""time"":154911},{""event"":""focus"",""trial"":19,""time"":155010},{""event"":""blur"",""trial"":20,""time"":163905},{""event"":""focus"",""trial"":20,""time"":164008},{""event"":""blur"",""trial"":20,""time"":169603},{""event"":""focus"",""trial"":20,""time"":169714},{""event"":""blur"",""trial"":20,""time"":173105},{""event"":""focus"",""trial"":20,""time"":173210},{""event"":""blur"",""trial"":21,""time"":192930},{""event"":""focus"",""trial"":21,""time"":193055}]",NA,NA,NA,NA,NA,2,#1CD855,#FA92F8,10,0,1,38,1,1677.2000000029802,37,1,1078,10,1,experiment,NA,NA,2,0.5,0.5,4,5,93,3,NA
fcp-trial,127,687507,0.0-102.0-0.0,voc_e2,12107,"[{""event"":""fullscreenenter"",""trial"":1,""time"":5114},{""event"":""blur"",""trial"":19,""time"":154911},{""event"":""focus"",""trial"":19,""time"":155010},{""event"":""blur"",""trial"":20,""time"":163905},{""event"":""focus"",""trial"":20,""time"":164008},{""event"":""blur"",""trial"":20,""time"":169603},{""event"":""focus"",""trial"":20,""time"":169714},{""event"":""blur"",""trial"":20,""time"":173105},{""event"":""focus"",""trial"":20,""time"":173210},{""event"":""blur"",""trial"":21,""time"":192930},{""event"":""focus"",""trial"":21,""time"":193055}]",NA,NA,NA,NA,NA,4,#FA92F8,#1CD855,10,0,0,40,0,1768,37,1,693.4000000059605,10,0,experiment,NA,NA,2,0.5,0.5,5,4,94,3,NA
fcp-trial,128,692671,0.0-103.0-0.0,voc_e2,12107,"[{""event"":""fullscreenenter"",""trial"":1,""time"":5114},{""event"":""blur"",""trial"":19,""time"":154911},{""event"":""focus"",""trial"":19,""time"":155010},{""event"":""blur"",""trial"":20,""time"":163905},{""event"":""focus"",""trial"":20,""time"":164008},{""event"":""blur"",""trial"":20,""time"":169603},{""event"":""focus"",""trial"":20,""time"":169714},{""event"":""blur"",""trial"":20,""time"":173105},{""event"":""focus"",""trial"":20,""time"":173210},{""event"":""blur"",""trial"":21,""time"":192930},{""event"":""focus"",""trial"":21,""time"":193055}]",NA,NA,NA,NA,NA,4,#3386FF,#D89F1C,0,0,0,40,0,2613.7999999970198,37,1,1040.2000000029802,0,0,experiment,NA,NA,1,0.3,0.7,3,2,95,3,NA
fcp-trial,129,696413,0.0-104.0-0.0,voc_e2,12107,"[{""event"":""fullscreenenter"",""trial"":1,""time"":5114},{""event"":""blur"",""trial"":19,""time"":154911},{""event"":""focus"",""trial"":19,""time"":155010},{""event"":""blur"",""trial"":20,""time"":163905},{""event"":""focus"",""trial"":20,""time"":164008},{""event"":""blur"",""trial"":20,""time"":169603},{""event"":""focus"",""trial"":20,""time"":169714},{""event"":""blur"",""trial"":20,""time"":173105},{""event"":""focus"",""trial"":20,""time"":173210},{""event"":""blur"",""trial"":21,""time"":192930},{""event"":""focus"",""trial"":21,""time"":193055}]",NA,NA,NA,NA,NA,6,#FA92F8,#1CD855,10,0,0,40,0,1611.5,39,0,622.4000000059605,0,1,experiment,NA,NA,2,0.5,0.5,5,4,96,3,NA
fcp-trial,130,701046,0.0-105.0-0.0,voc_e2,12107,"[{""event"":""fullscreenenter"",""trial"":1,""time"":5114},{""event"":""blur"",""trial"":19,""time"":154911},{""event"":""focus"",""trial"":19,""time"":155010},{""event"":""blur"",""trial"":20,""time"":163905},{""event"":""focus"",""trial"":20,""time"":164008},{""event"":""blur"",""trial"":20,""time"":169603},{""event"":""focus"",""trial"":20,""time"":169714},{""event"":""blur"",""trial"":20,""time"":173105},{""event"":""focus"",""trial"":20,""time"":173210},{""event"":""blur"",""trial"":21,""time"":192930},{""event"":""focus"",""trial"":21,""time"":193055}]",NA,NA,NA,NA,NA,1,#D8271C,#741CD8,0,0,1,38,1,1254.6000000089407,37,1,1871.0999999940395,0,1,experiment,NA,NA,0,0.9,0.1,0,1,97,3,NA
fcp-trial,131,704476,0.0-106.0-0.0,voc_e2,12107,"[{""event"":""fullscreenenter"",""trial"":1,""time"":5114},{""event"":""blur"",""trial"":19,""time"":154911},{""event"":""focus"",""trial"":19,""time"":155010},{""event"":""blur"",""trial"":20,""time"":163905},{""event"":""focus"",""trial"":20,""time"":164008},{""event"":""blur"",""trial"":20,""time"":169603},{""event"":""focus"",""trial"":20,""time"":169714},{""event"":""blur"",""trial"":20,""time"":173105},{""event"":""focus"",""trial"":20,""time"":173210},{""event"":""blur"",""trial"":21,""time"":192930},{""event"":""focus"",""trial"":21,""time"":193055}]",NA,NA,NA,NA,NA,4,#741CD8,#D8271C,0,10,0,40,0,1139.4000000059605,39,0,774.3999999910593,10,1,experiment,NA,NA,0,0.1,0.9,1,0,98,3,NA
fcp-trial,132,708640,0.0-107.0-0.0,voc_e2,12107,"[{""event"":""fullscreenenter"",""trial"":1,""time"":5114},{""event"":""blur"",""trial"":19,""time"":154911},{""event"":""focus"",""trial"":19,""time"":155010},{""event"":""blur"",""trial"":20,""time"":163905},{""event"":""focus"",""trial"":20,""time"":164008},{""event"":""blur"",""trial"":20,""time"":169603},{""event"":""focus"",""trial"":20,""time"":169714},{""event"":""blur"",""trial"":20,""time"":173105},{""event"":""focus"",""trial"":20,""time"":173210},{""event"":""blur"",""trial"":21,""time"":192930},{""event"":""focus"",""trial"":21,""time"":193055}]",NA,NA,NA,NA,NA,5,#FA92F8,#1CD855,0,10,0,38,1,1227.2000000029802,39,0,1425.2000000029802,10,1,experiment,NA,NA,2,0.5,0.5,5,4,99,3,NA
fcp-trial,133,712047,0.0-108.0-0.0,voc_e2,12107,"[{""event"":""fullscreenenter"",""trial"":1,""time"":5114},{""event"":""blur"",""trial"":19,""time"":154911},{""event"":""focus"",""trial"":19,""time"":155010},{""event"":""blur"",""trial"":20,""time"":163905},{""event"":""focus"",""trial"":20,""time"":164008},{""event"":""blur"",""trial"":20,""time"":169603},{""event"":""focus"",""trial"":20,""time"":169714},{""event"":""blur"",""trial"":20,""time"":173105},{""event"":""focus"",""trial"":20,""time"":173210},{""event"":""blur"",""trial"":21,""time"":192930},{""event"":""focus"",""trial"":21,""time"":193055}]",NA,NA,NA,NA,NA,6,#D89F1C,#3386FF,10,0,1,38,1,1316,37,1,584.2000000029802,10,1,experiment,NA,NA,1,0.7,0.3,2,3,100,3,NA
fcp-trial,134,715518,0.0-109.0-0.0,voc_e2,12107,"[{""event"":""fullscreenenter"",""trial"":1,""time"":5114},{""event"":""blur"",""trial"":19,""time"":154911},{""event"":""focus"",""trial"":19,""time"":155010},{""event"":""blur"",""trial"":20,""time"":163905},{""event"":""focus"",""trial"":20,""time"":164008},{""event"":""blur"",""trial"":20,""time"":169603},{""event"":""focus"",""trial"":20,""time"":169714},{""event"":""blur"",""trial"":20,""time"":173105},{""event"":""focus"",""trial"":20,""time"":173210},{""event"":""blur"",""trial"":21,""time"":192930},{""event"":""focus"",""trial"":21,""time"":193055}]",NA,NA,NA,NA,NA,6,#741CD8,#D8271C,10,10,0,40,0,1313.199999988079,37,1,646.8999999910593,10,0,experiment,NA,NA,0,0.1,0.9,1,0,101,3,NA
fcp-trial,135,719012,0.0-110.0-0.0,voc_e2,12107,"[{""event"":""fullscreenenter"",""trial"":1,""time"":5114},{""event"":""blur"",""trial"":19,""time"":154911},{""event"":""focus"",""trial"":19,""time"":155010},{""event"":""blur"",""trial"":20,""time"":163905},{""event"":""focus"",""trial"":20,""time"":164008},{""event"":""blur"",""trial"":20,""time"":169603},{""event"":""focus"",""trial"":20,""time"":169714},{""event"":""blur"",""trial"":20,""time"":173105},{""event"":""focus"",""trial"":20,""time"":173210},{""event"":""blur"",""trial"":21,""time"":192930},{""event"":""focus"",""trial"":21,""time"":193055}]",NA,NA,NA,NA,NA,1,#FA92F8,#1CD855,10,10,0,40,0,1299.5999999940395,39,0,685,10,1,experiment,NA,NA,2,0.5,0.5,5,4,102,3,NA
fcp-trial,136,722726,0.0-111.0-0.0,voc_e2,12107,"[{""event"":""fullscreenenter"",""trial"":1,""time"":5114},{""event"":""blur"",""trial"":19,""time"":154911},{""event"":""focus"",""trial"":19,""time"":155010},{""event"":""blur"",""trial"":20,""time"":163905},{""event"":""focus"",""trial"":20,""time"":164008},{""event"":""blur"",""trial"":20,""time"":169603},{""event"":""focus"",""trial"":20,""time"":169714},{""event"":""blur"",""trial"":20,""time"":173105},{""event"":""focus"",""trial"":20,""time"":173210},{""event"":""blur"",""trial"":21,""time"":192930},{""event"":""focus"",""trial"":21,""time"":193055}]",NA,NA,NA,NA,NA,1,#3386FF,#D89F1C,10,10,0,38,1,1498,39,0,702.5999999940395,10,1,experiment,NA,NA,1,0.3,0.7,3,2,103,3,NA
fcp-trial,137,726324,0.0-112.0-0.0,voc_e2,12107,"[{""event"":""fullscreenenter"",""trial"":1,""time"":5114},{""event"":""blur"",""trial"":19,""time"":154911},{""event"":""focus"",""trial"":19,""time"":155010},{""event"":""blur"",""trial"":20,""time"":163905},{""event"":""focus"",""trial"":20,""time"":164008},{""event"":""blur"",""trial"":20,""time"":169603},{""event"":""focus"",""trial"":20,""time"":169714},{""event"":""blur"",""trial"":20,""time"":173105},{""event"":""focus"",""trial"":20,""time"":173210},{""event"":""blur"",""trial"":21,""time"":192930},{""event"":""focus"",""trial"":21,""time"":193055}]",NA,NA,NA,NA,NA,0,#3386FF,#D89F1C,0,10,0,38,1,1341.5999999940395,39,0,750.2000000029802,10,1,experiment,NA,NA,1,0.3,0.7,3,2,104,3,NA
fcp-trial,138,731311,0.0-113.0-0.0,voc_e2,12107,"[{""event"":""fullscreenenter"",""trial"":1,""time"":5114},{""event"":""blur"",""trial"":19,""time"":154911},{""event"":""focus"",""trial"":19,""time"":155010},{""event"":""blur"",""trial"":20,""time"":163905},{""event"":""focus"",""trial"":20,""time"":164008},{""event"":""blur"",""trial"":20,""time"":169603},{""event"":""focus"",""trial"":20,""time"":169714},{""event"":""blur"",""trial"":20,""time"":173105},{""event"":""focus"",""trial"":20,""time"":173210},{""event"":""blur"",""trial"":21,""time"":192930},{""event"":""focus"",""trial"":21,""time"":193055}]",NA,NA,NA,NA,NA,2,#741CD8,#D8271C,0,10,0,38,1,1874.7000000029802,39,0,1599.9000000059605,10,1,experiment,NA,NA,0,0.1,0.9,1,0,105,3,NA
audio-instructions,139,769590,0.0-114.0,voc_e2,12107,"[{""event"":""fullscreenenter"",""trial"":1,""time"":5114},{""event"":""blur"",""trial"":19,""time"":154911},{""event"":""focus"",""trial"":19,""time"":155010},{""event"":""blur"",""trial"":20,""time"":163905},{""event"":""focus"",""trial"":20,""time"":164008},{""event"":""blur"",""trial"":20,""time"":169603},{""event"":""focus"",""trial"":20,""time"":169714},{""event"":""blur"",""trial"":20,""time"":173105},{""event"":""focus"",""trial"":20,""time"":173210},{""event"":""blur"",""trial"":21,""time"":192930},{""event"":""focus"",""trial"":21,""time"":193055}]",NA,33406.40000000596,static/audio/pause.wav,NA,0,NA,NA,NA,NA,NA,NA,NA,NA,NA,NA,NA,NA,NA,NA,NA,NA,NA,NA,NA,NA,NA,NA,NA,NA,NA
fcp-trial,140,773247,0.0-115.0-0.0,voc_e2,12107,"[{""event"":""fullscreenenter"",""trial"":1,""time"":5114},{""event"":""blur"",""trial"":19,""time"":154911},{""event"":""focus"",""trial"":19,""time"":155010},{""event"":""blur"",""trial"":20,""time"":163905},{""event"":""focus"",""trial"":20,""time"":164008},{""event"":""blur"",""trial"":20,""time"":169603},{""event"":""focus"",""trial"":20,""time"":169714},{""event"":""blur"",""trial"":20,""time"":173105},{""event"":""focus"",""trial"":20,""time"":173210},{""event"":""blur"",""trial"":21,""time"":192930},{""event"":""focus"",""trial"":21,""time"":193055}]",NA,NA,NA,NA,NA,6,#D8271C,#741CD8,10,0,1,40,0,1183.2999999970198,37,1,968,10,1,experiment,NA,NA,0,0.9,0.1,0,1,106,3,NA
fcp-trial,141,776784,0.0-116.0-0.0,voc_e2,12107,"[{""event"":""fullscreenenter"",""trial"":1,""time"":5114},{""event"":""blur"",""trial"":19,""time"":154911},{""event"":""focus"",""trial"":19,""time"":155010},{""event"":""blur"",""trial"":20,""time"":163905},{""event"":""focus"",""trial"":20,""time"":164008},{""event"":""blur"",""trial"":20,""time"":169603},{""event"":""focus"",""trial"":20,""time"":169714},{""event"":""blur"",""trial"":20,""time"":173105},{""event"":""focus"",""trial"":20,""time"":173210},{""event"":""blur"",""trial"":21,""time"":192930},{""event"":""focus"",""trial"":21,""time"":193055}]",NA,NA,NA,NA,NA,3,#D8271C,#741CD8,10,0,1,38,1,1441.7999999970198,39,0,582.5,0,0,experiment,NA,NA,0,0.9,0.1,0,1,107,3,NA
fcp-trial,142,780071,0.0-117.0-0.0,voc_e2,12107,"[{""event"":""fullscreenenter"",""trial"":1,""time"":5114},{""event"":""blur"",""trial"":19,""time"":154911},{""event"":""focus"",""trial"":19,""time"":155010},{""event"":""blur"",""trial"":20,""time"":163905},{""event"":""focus"",""trial"":20,""time"":164008},{""event"":""blur"",""trial"":20,""time"":169603},{""event"":""focus"",""trial"":20,""time"":169714},{""event"":""blur"",""trial"":20,""time"":173105},{""event"":""focus"",""trial"":20,""time"":173210},{""event"":""blur"",""trial"":21,""time"":192930},{""event"":""focus"",""trial"":21,""time"":193055}]",NA,NA,NA,NA,NA,3,#FA92F8,#1CD855,10,10,0,40,0,1219.0999999940395,37,1,554.9000000059605,10,0,experiment,NA,NA,2,0.5,0.5,5,4,108,3,NA
fcp-trial,143,783702,0.0-118.0-0.0,voc_e2,12107,"[{""event"":""fullscreenenter"",""trial"":1,""time"":5114},{""event"":""blur"",""trial"":19,""time"":154911},{""event"":""focus"",""trial"":19,""time"":155010},{""event"":""blur"",""trial"":20,""time"":163905},{""event"":""focus"",""trial"":20,""time"":164008},{""event"":""blur"",""trial"":20,""time"":169603},{""event"":""focus"",""trial"":20,""time"":169714},{""event"":""blur"",""trial"":20,""time"":173105},{""event"":""focus"",""trial"":20,""time"":173210},{""event"":""blur"",""trial"":21,""time"":192930},{""event"":""focus"",""trial"":21,""time"":193055}]",NA,NA,NA,NA,NA,0,#3386FF,#D89F1C,0,0,0,38,1,1675.5,39,0,445.79999999701977,0,1,experiment,NA,NA,1,0.3,0.7,3,2,109,3,NA
fcp-trial,144,786712,0.0-119.0-0.0,voc_e2,12107,"[{""event"":""fullscreenenter"",""trial"":1,""time"":5114},{""event"":""blur"",""trial"":19,""time"":154911},{""event"":""focus"",""trial"":19,""time"":155010},{""event"":""blur"",""trial"":20,""time"":163905},{""event"":""focus"",""trial"":20,""time"":164008},{""event"":""blur"",""trial"":20,""time"":169603},{""event"":""focus"",""trial"":20,""time"":169714},{""event"":""blur"",""trial"":20,""time"":173105},{""event"":""focus"",""trial"":20,""time"":173210},{""event"":""blur"",""trial"":21,""time"":192930},{""event"":""focus"",""trial"":21,""time"":193055}]",NA,NA,NA,NA,NA,2,#3386FF,#D89F1C,10,10,0,40,0,843.2000000029802,39,0,657.6000000089407,10,1,experiment,NA,NA,1,0.3,0.7,3,2,110,3,NA
fcp-trial,145,789839,0.0-120.0-0.0,voc_e2,12107,"[{""event"":""fullscreenenter"",""trial"":1,""time"":5114},{""event"":""blur"",""trial"":19,""time"":154911},{""event"":""focus"",""trial"":19,""time"":155010},{""event"":""blur"",""trial"":20,""time"":163905},{""event"":""focus"",""trial"":20,""time"":164008},{""event"":""blur"",""trial"":20,""time"":169603},{""event"":""focus"",""trial"":20,""time"":169714},{""event"":""blur"",""trial"":20,""time"":173105},{""event"":""focus"",""trial"":20,""time"":173210},{""event"":""blur"",""trial"":21,""time"":192930},{""event"":""focus"",""trial"":21,""time"":193055}]",NA,NA,NA,NA,NA,4,#FA92F8,#1CD855,10,10,0,40,0,1061.4000000059605,39,0,548.7999999970198,10,1,experiment,NA,NA,2,0.5,0.5,5,4,111,3,NA
fcp-trial,146,793143,0.0-121.0-0.0,voc_e2,12107,"[{""event"":""fullscreenenter"",""trial"":1,""time"":5114},{""event"":""blur"",""trial"":19,""time"":154911},{""event"":""focus"",""trial"":19,""time"":155010},{""event"":""blur"",""trial"":20,""time"":163905},{""event"":""focus"",""trial"":20,""time"":164008},{""event"":""blur"",""trial"":20,""time"":169603},{""event"":""focus"",""trial"":20,""time"":169714},{""event"":""blur"",""trial"":20,""time"":173105},{""event"":""focus"",""trial"":20,""time"":173210},{""event"":""blur"",""trial"":21,""time"":192930},{""event"":""focus"",""trial"":21,""time"":193055}]",NA,NA,NA,NA,NA,2,#741CD8,#D8271C,0,10,0,40,0,1130.800000011921,39,0,665.0999999940395,10,1,experiment,NA,NA,0,0.1,0.9,1,0,112,3,NA
fcp-trial,147,796225,0.0-122.0-0.0,voc_e2,12107,"[{""event"":""fullscreenenter"",""trial"":1,""time"":5114},{""event"":""blur"",""trial"":19,""time"":154911},{""event"":""focus"",""trial"":19,""time"":155010},{""event"":""blur"",""trial"":20,""time"":163905},{""event"":""focus"",""trial"":20,""time"":164008},{""event"":""blur"",""trial"":20,""time"":169603},{""event"":""focus"",""trial"":20,""time"":169714},{""event"":""blur"",""trial"":20,""time"":173105},{""event"":""focus"",""trial"":20,""time"":173210},{""event"":""blur"",""trial"":21,""time"":192930},{""event"":""focus"",""trial"":21,""time"":193055}]",NA,NA,NA,NA,NA,6,#1CD855,#FA92F8,0,0,1,40,0,899,39,0,670.5999999940395,0,0,experiment,NA,NA,2,0.5,0.5,4,5,113,3,NA
