trial_type,trial_index,time_elapsed,internal_node_id,task_version,subject_id,interactions,success,rt,stimulus,key_press,button_pressed,offer,arcade_color_L,arcade_color_R,arcade_outcome_L,arcade_outcome_R,correct,stage_1_key,stage_1_choice,stage_1_rt,stage_2_key,stage_2_choice,stage_2_rt,stage_3_outcome,accuracy,phase,responses,num_errors,context,reward_prob_L,reward_prob_R,arcade_id_L,arcade_id_R,trial,block,response
pavlovia,0,7,0.0-0.0,voc_e2,12307,"[{""event"":""blur"",""trial"":0,""time"":0}]",NA,NA,NA,NA,NA,NA,NA,NA,NA,NA,NA,NA,NA,NA,NA,NA,NA,NA,NA,NA,NA,NA,NA,NA,NA,NA,NA,NA,NA,NA
fullscreen,1,4447,0.0-1.0,voc_e2,12307,"[{""event"":""blur"",""trial"":0,""time"":0},{""event"":""focus"",""trial"":1,""time"":3365},{""event"":""fullscreenenter"",""trial"":1,""time"":3460}]",TRUE,NA,NA,NA,NA,NA,NA,NA,NA,NA,NA,NA,NA,NA,NA,NA,NA,NA,NA,NA,NA,NA,NA,NA,NA,NA,NA,NA,NA,NA
audio-keyboard-response,2,6562,0.0-2.0,voc_e2,12307,"[{""event"":""blur"",""trial"":0,""time"":0},{""event"":""focus"",""trial"":1,""time"":3365},{""event"":""fullscreenenter"",""trial"":1,""time"":3460}]",NA,1811,static/audio/beep_loop.wav,32,NA,NA,NA,NA,NA,NA,NA,NA,NA,NA,NA,NA,NA,NA,NA,NA,NA,NA,NA,NA,NA,NA,NA,NA,NA,NA
audio-test,3,7885,0.0-3.0,voc_e2,12307,"[{""event"":""blur"",""trial"":0,""time"":0},{""event"":""focus"",""trial"":1,""time"":3365},{""event"":""fullscreenenter"",""trial"":1,""time"":3460}]",NA,NA,static/audio/turtle.wav,NA,3,NA,NA,NA,NA,NA,NA,NA,NA,NA,NA,NA,NA,NA,NA,NA,NA,NA,NA,NA,NA,NA,NA,NA,NA,NA
audio-test,4,10124,0.0-4.0,voc_e2,12307,"[{""event"":""blur"",""trial"":0,""time"":0},{""event"":""focus"",""trial"":1,""time"":3365},{""event"":""fullscreenenter"",""trial"":1,""time"":3460}]",NA,NA,static/audio/shark.wav,NA,2,NA,NA,NA,NA,NA,NA,NA,NA,NA,NA,NA,NA,NA,NA,NA,NA,NA,NA,NA,NA,NA,NA,NA,NA,NA
audio-instructions,5,17525,0.0-5.0-0.0,voc_e2,12307,"[{""event"":""blur"",""trial"":0,""time"":0},{""event"":""focus"",""trial"":1,""time"":3365},{""event"":""fullscreenenter"",""trial"":1,""time"":3460}]",NA,1608,static/audio/instructions1.wav,NA,0,NA,NA,NA,NA,NA,NA,NA,NA,NA,NA,NA,NA,NA,NA,NA,NA,NA,NA,NA,NA,NA,NA,NA,NA,NA
audio-instructions,6,28388,0.0-5.0-1.0,voc_e2,12307,"[{""event"":""blur"",""trial"":0,""time"":0},{""event"":""focus"",""trial"":1,""time"":3365},{""event"":""fullscreenenter"",""trial"":1,""time"":3460}]",NA,4112.099999964237,static/audio/instructions2.wav,NA,0,NA,NA,NA,NA,NA,NA,NA,NA,NA,NA,NA,NA,NA,NA,NA,NA,NA,NA,NA,NA,NA,NA,NA,NA,NA
audio-instructions,7,39236,0.0-5.0-2.0,voc_e2,12307,"[{""event"":""blur"",""trial"":0,""time"":0},{""event"":""focus"",""trial"":1,""time"":3365},{""event"":""fullscreenenter"",""trial"":1,""time"":3460}]",NA,5040.300000011921,static/audio/instructions3.wav,NA,0,NA,NA,NA,NA,NA,NA,NA,NA,NA,NA,NA,NA,NA,NA,NA,NA,NA,NA,NA,NA,NA,NA,NA,NA,NA
audio-instructions,8,54868,0.0-5.0-3.0,voc_e2,12307,"[{""event"":""blur"",""trial"":0,""time"":0},{""event"":""focus"",""trial"":1,""time"":3365},{""event"":""fullscreenenter"",""trial"":1,""time"":3460}]",NA,2402.7000000476837,static/audio/instructions4.wav,NA,0,NA,NA,NA,NA,NA,NA,NA,NA,NA,NA,NA,NA,NA,NA,NA,NA,NA,NA,NA,NA,NA,NA,NA,NA,NA
audio-instructions,9,65861,0.0-5.0-4.0,voc_e2,12307,"[{""event"":""blur"",""trial"":0,""time"":0},{""event"":""focus"",""trial"":1,""time"":3365},{""event"":""fullscreenenter"",""trial"":1,""time"":3460}]",NA,1604.699999988079,static/audio/instructions5.wav,NA,0,NA,NA,NA,NA,NA,NA,NA,NA,NA,NA,NA,NA,NA,NA,NA,NA,NA,NA,NA,NA,NA,NA,NA,NA,NA
fcp-practice,10,68197,0.0-5.0-5.0-0.0,voc_e2,12307,"[{""event"":""blur"",""trial"":0,""time"":0},{""event"":""focus"",""trial"":1,""time"":3365},{""event"":""fullscreenenter"",""trial"":1,""time"":3460}]",NA,NA,NA,NA,NA,NA,#EDC948,#46d3c8,10,0,1,null,null,null,37,1,824.8999999761581,10,1,practice,NA,NA,NA,NA,NA,NA,NA,NA,NA,NA
fcp-practice,11,70461,0.0-5.0-5.0-1.0,voc_e2,12307,"[{""event"":""blur"",""trial"":0,""time"":0},{""event"":""focus"",""trial"":1,""time"":3365},{""event"":""fullscreenenter"",""trial"":1,""time"":3460}]",NA,NA,NA,NA,NA,NA,#EDC948,#46d3c8,10,0,1,null,null,null,37,1,758.3999999761581,10,1,practice,NA,NA,NA,NA,NA,NA,NA,NA,NA,NA
fcp-practice,12,73040,0.0-5.0-5.0-2.0,voc_e2,12307,"[{""event"":""blur"",""trial"":0,""time"":0},{""event"":""focus"",""trial"":1,""time"":3365},{""event"":""fullscreenenter"",""trial"":1,""time"":3460}]",NA,NA,NA,NA,NA,NA,#EDC948,#46d3c8,0,10,1,null,null,null,37,1,1065.2000000476837,0,1,practice,NA,NA,NA,NA,NA,NA,NA,NA,NA,NA
fcp-practice,13,74563,0.0-5.0-5.0-3.0,voc_e2,12307,"[{""event"":""blur"",""trial"":0,""time"":0},{""event"":""focus"",""trial"":1,""time"":3365},{""event"":""fullscreenenter"",""trial"":1,""time"":3460}]",NA,NA,NA,NA,NA,NA,#EDC948,#46d3c8,10,0,1,null,null,null,37,1,11.300000011920929,10,1,practice,NA,NA,NA,NA,NA,NA,NA,NA,NA,NA
fcp-practice,14,77692,0.0-5.0-5.0-4.0,voc_e2,12307,"[{""event"":""blur"",""trial"":0,""time"":0},{""event"":""focus"",""trial"":1,""time"":3365},{""event"":""fullscreenenter"",""trial"":1,""time"":3460}]",NA,NA,NA,NA,NA,NA,#EDC948,#46d3c8,10,0,1,null,null,null,37,1,1619,10,1,practice,NA,NA,NA,NA,NA,NA,NA,NA,NA,NA
audio-instructions,15,97676,0.0-5.0-6.0,voc_e2,12307,"[{""event"":""blur"",""trial"":0,""time"":0},{""event"":""focus"",""trial"":1,""time"":3365},{""event"":""fullscreenenter"",""trial"":1,""time"":3460}]",NA,1970.399999976158,static/audio/instructions6.wav,NA,0,NA,NA,NA,NA,NA,NA,NA,NA,NA,NA,NA,NA,NA,NA,NA,NA,NA,NA,NA,NA,NA,NA,NA,NA,NA
audio-instructions,16,118044,0.0-5.0-7.0,voc_e2,12307,"[{""event"":""blur"",""trial"":0,""time"":0},{""event"":""focus"",""trial"":1,""time"":3365},{""event"":""fullscreenenter"",""trial"":1,""time"":3460}]",NA,1168.4000000357628,static/audio/instructions7.wav,NA,0,NA,NA,NA,NA,NA,NA,NA,NA,NA,NA,NA,NA,NA,NA,NA,NA,NA,NA,NA,NA,NA,NA,NA,NA,NA
audio-instructions,17,128396,0.0-5.0-8.0,voc_e2,12307,"[{""event"":""blur"",""trial"":0,""time"":0},{""event"":""focus"",""trial"":1,""time"":3365},{""event"":""fullscreenenter"",""trial"":1,""time"":3460}]",NA,870.8000000119209,static/audio/instructions8.wav,NA,0,NA,NA,NA,NA,NA,NA,NA,NA,NA,NA,NA,NA,NA,NA,NA,NA,NA,NA,NA,NA,NA,NA,NA,NA,NA
fcp-comprehension,18,135852,0.0-5.0-9.0,voc_e2,12307,"[{""event"":""blur"",""trial"":0,""time"":0},{""event"":""focus"",""trial"":1,""time"":3365},{""event"":""fullscreenenter"",""trial"":1,""time"":3460}]",NA,7455.300000011921,NA,NA,NA,NA,NA,NA,NA,NA,NA,NA,NA,NA,NA,NA,NA,NA,NA,NA,"true,true",0,NA,NA,NA,NA,NA,NA,NA,NA
audio-instructions,19,142988,0.0-6.0-0.0,voc_e2,12307,"[{""event"":""blur"",""trial"":0,""time"":0},{""event"":""focus"",""trial"":1,""time"":3365},{""event"":""fullscreenenter"",""trial"":1,""time"":3460}]",NA,1582.800000011921,static/audio/instructions9.wav,NA,0,NA,NA,NA,NA,NA,NA,NA,NA,NA,NA,NA,NA,NA,NA,NA,NA,NA,NA,NA,NA,NA,NA,NA,NA,NA
audio-instructions,20,286963,0.0-6.0-1.0,voc_e2,12307,"[{""event"":""blur"",""trial"":0,""time"":0},{""event"":""focus"",""trial"":1,""time"":3365},{""event"":""fullscreenenter"",""trial"":1,""time"":3460}]",NA,131858.5,static/audio/instructions10.wav,NA,0,NA,NA,NA,NA,NA,NA,NA,NA,NA,NA,NA,NA,NA,NA,NA,NA,NA,NA,NA,NA,NA,NA,NA,NA,NA
fcp-trial,21,301966,0.0-6.0-2.0,voc_e2,12307,"[{""event"":""blur"",""trial"":0,""time"":0},{""event"":""focus"",""trial"":1,""time"":3365},{""event"":""fullscreenenter"",""trial"":1,""time"":3460}]",NA,NA,NA,NA,NA,0,#EDC948,#46d3c8,10,10,1,null,null,null,null,null,null,NA,0,practice,NA,NA,NA,NA,NA,NA,NA,NA,NA,NA
audio-instructions,22,315825,0.0-6.0-3.0,voc_e2,12307,"[{""event"":""blur"",""trial"":0,""time"":0},{""event"":""focus"",""trial"":1,""time"":3365},{""event"":""fullscreenenter"",""trial"":1,""time"":3460}]",NA,2564.900000035763,static/audio/instructions11.wav,NA,0,NA,NA,NA,NA,NA,NA,NA,NA,NA,NA,NA,NA,NA,NA,NA,NA,NA,NA,NA,NA,NA,NA,NA,NA,NA
fcp-trial,23,319586,0.0-6.0-4.0,voc_e2,12307,"[{""event"":""blur"",""trial"":0,""time"":0},{""event"":""focus"",""trial"":1,""time"":3365},{""event"":""fullscreenenter"",""trial"":1,""time"":3460}]",NA,NA,NA,NA,NA,6,#EDC948,#46d3c8,10,10,1,40,0,631.8000000119209,37,1,1622.3999999761581,10,1,practice,NA,NA,NA,NA,NA,NA,NA,NA,NA,NA
audio-instructions,24,357003,0.0-6.0-5.0,voc_e2,12307,"[{""event"":""blur"",""trial"":0,""time"":0},{""event"":""focus"",""trial"":1,""time"":3365},{""event"":""fullscreenenter"",""trial"":1,""time"":3460}]",NA,18723.60000002384,static/audio/instructions12.wav,NA,0,NA,NA,NA,NA,NA,NA,NA,NA,NA,NA,NA,NA,NA,NA,NA,NA,NA,NA,NA,NA,NA,NA,NA,NA,NA
audio-instructions,25,368931,0.0-6.0-6.0,voc_e2,12307,"[{""event"":""blur"",""trial"":0,""time"":0},{""event"":""focus"",""trial"":1,""time"":3365},{""event"":""fullscreenenter"",""trial"":1,""time"":3460}]",NA,4331.699999988079,static/audio/instructions13.wav,NA,0,NA,NA,NA,NA,NA,NA,NA,NA,NA,NA,NA,NA,NA,NA,NA,NA,NA,NA,NA,NA,NA,NA,NA,NA,NA
audio-instructions,26,380051,0.0-6.0-7.0,voc_e2,12307,"[{""event"":""blur"",""trial"":0,""time"":0},{""event"":""focus"",""trial"":1,""time"":3365},{""event"":""fullscreenenter"",""trial"":1,""time"":3460}]",NA,2671,static/audio/instructions14.wav,NA,0,NA,NA,NA,NA,NA,NA,NA,NA,NA,NA,NA,NA,NA,NA,NA,NA,NA,NA,NA,NA,NA,NA,NA,NA,NA
audio-instructions,27,389675,0.0-7.0-0.0,voc_e2,12307,"[{""event"":""blur"",""trial"":0,""time"":0},{""event"":""focus"",""trial"":1,""time"":3365},{""event"":""fullscreenenter"",""trial"":1,""time"":3460}]",NA,2715.599999964237,static/audio/instructions15.wav,NA,0,NA,NA,NA,NA,NA,NA,NA,NA,NA,NA,NA,NA,NA,NA,NA,NA,NA,NA,NA,NA,NA,NA,NA,NA,NA
audio-instructions,28,398019,0.0-7.0-1.0,voc_e2,12307,"[{""event"":""blur"",""trial"":0,""time"":0},{""event"":""focus"",""trial"":1,""time"":3365},{""event"":""fullscreenenter"",""trial"":1,""time"":3460}]",NA,1519.699999988079,static/audio/instructions16.wav,NA,0,NA,NA,NA,NA,NA,NA,NA,NA,NA,NA,NA,NA,NA,NA,NA,NA,NA,NA,NA,NA,NA,NA,NA,NA,NA
audio-instructions,29,406851,0.0-7.0-2.0,voc_e2,12307,"[{""event"":""blur"",""trial"":0,""time"":0},{""event"":""focus"",""trial"":1,""time"":3365},{""event"":""fullscreenenter"",""trial"":1,""time"":3460}]",NA,1151,static/audio/instructions17.wav,NA,0,NA,NA,NA,NA,NA,NA,NA,NA,NA,NA,NA,NA,NA,NA,NA,NA,NA,NA,NA,NA,NA,NA,NA,NA,NA
audio-instructions,30,415323,0.0-7.0-3.0,voc_e2,12307,"[{""event"":""blur"",""trial"":0,""time"":0},{""event"":""focus"",""trial"":1,""time"":3365},{""event"":""fullscreenenter"",""trial"":1,""time"":3460}]",NA,703.6000000238419,static/audio/instructions18.wav,NA,0,NA,NA,NA,NA,NA,NA,NA,NA,NA,NA,NA,NA,NA,NA,NA,NA,NA,NA,NA,NA,NA,NA,NA,NA,NA
audio-instructions,31,423610,0.0-7.0-4.0,voc_e2,12307,"[{""event"":""blur"",""trial"":0,""time"":0},{""event"":""focus"",""trial"":1,""time"":3365},{""event"":""fullscreenenter"",""trial"":1,""time"":3460}]",NA,1540.9000000357628,static/audio/instructions19.wav,NA,0,NA,NA,NA,NA,NA,NA,NA,NA,NA,NA,NA,NA,NA,NA,NA,NA,NA,NA,NA,NA,NA,NA,NA,NA,NA
fcp-comprehension,32,448203,0.0-7.0-5.0,voc_e2,12307,"[{""event"":""blur"",""trial"":0,""time"":0},{""event"":""focus"",""trial"":1,""time"":3365},{""event"":""fullscreenenter"",""trial"":1,""time"":3460}]",NA,24591.39999997616,NA,NA,NA,NA,NA,NA,NA,NA,NA,NA,NA,NA,NA,NA,NA,NA,NA,NA,"false,false,false,true",0,NA,NA,NA,NA,NA,NA,NA,NA
audio-instructions,33,459490,0.0-8.0,voc_e2,12307,"[{""event"":""blur"",""trial"":0,""time"":0},{""event"":""focus"",""trial"":1,""time"":3365},{""event"":""fullscreenenter"",""trial"":1,""time"":3460}]",NA,2071.199999988079,static/audio/ready.wav,NA,0,NA,NA,NA,NA,NA,NA,NA,NA,NA,NA,NA,NA,NA,NA,NA,NA,NA,NA,NA,NA,NA,NA,NA,NA,NA
fcp-trial,34,465137,0.0-9.0-0.0,voc_e2,12307,"[{""event"":""blur"",""trial"":0,""time"":0},{""event"":""focus"",""trial"":1,""time"":3365},{""event"":""fullscreenenter"",""trial"":1,""time"":3460}]",NA,NA,NA,NA,NA,4,#D89F1C,#3386FF,0,10,0,38,1,1357.4000000357628,39,0,2781.699999988079,10,1,experiment,NA,NA,0,0.1,0.9,1,0,1,1,NA
fcp-trial,35,469736,0.0-10.0-0.0,voc_e2,12307,"[{""event"":""blur"",""trial"":0,""time"":0},{""event"":""focus"",""trial"":1,""time"":3365},{""event"":""fullscreenenter"",""trial"":1,""time"":3460}]",NA,NA,NA,NA,NA,0,#D8271C,#741CD8,10,10,0,40,0,2019,39,0,1067.6000000238419,10,1,experiment,NA,NA,2,0.5,0.5,5,4,2,1,NA
fcp-trial,36,474608,0.0-11.0-0.0,voc_e2,12307,"[{""event"":""blur"",""trial"":0,""time"":0},{""event"":""focus"",""trial"":1,""time"":3365},{""event"":""fullscreenenter"",""trial"":1,""time"":3460}]",NA,NA,NA,NA,NA,5,#FA92F8,#1CD855,10,10,0,38,1,2350.300000011921,37,1,1006.1999999880791,10,0,experiment,NA,NA,1,0.3,0.7,3,2,3,1,NA
fcp-trial,37,479113,0.0-12.0-0.0,voc_e2,12307,"[{""event"":""blur"",""trial"":0,""time"":0},{""event"":""focus"",""trial"":1,""time"":3365},{""event"":""fullscreenenter"",""trial"":1,""time"":3460}]",NA,NA,NA,NA,NA,0,#D89F1C,#3386FF,10,10,0,40,0,1939.2999999523163,39,0,1044.800000011921,10,1,experiment,NA,NA,0,0.1,0.9,1,0,4,1,NA
fcp-trial,38,483100,0.0-13.0-0.0,voc_e2,12307,"[{""event"":""blur"",""trial"":0,""time"":0},{""event"":""focus"",""trial"":1,""time"":3365},{""event"":""fullscreenenter"",""trial"":1,""time"":3460}]",NA,NA,NA,NA,NA,1,#D8271C,#741CD8,0,0,0,38,1,1355.3999999761581,37,1,1111.3999999761581,0,0,experiment,NA,NA,2,0.5,0.5,5,4,5,1,NA
fcp-trial,39,486760,0.0-14.0-0.0,voc_e2,12307,"[{""event"":""blur"",""trial"":0,""time"":0},{""event"":""focus"",""trial"":1,""time"":3365},{""event"":""fullscreenenter"",""trial"":1,""time"":3460}]",NA,NA,NA,NA,NA,5,#3386FF,#D89F1C,10,0,1,40,0,1721.5,39,0,417.69999998807907,0,0,experiment,NA,NA,0,0.9,0.1,0,1,6,1,NA
fcp-trial,40,490592,0.0-15.0-0.0,voc_e2,12307,"[{""event"":""blur"",""trial"":0,""time"":0},{""event"":""focus"",""trial"":1,""time"":3365},{""event"":""fullscreenenter"",""trial"":1,""time"":3460}]",NA,NA,NA,NA,NA,3,#1CD855,#FA92F8,10,10,1,38,1,1118.8999999761581,39,0,1208.1000000238419,10,0,experiment,NA,NA,1,0.7,0.3,2,3,7,1,NA
fcp-trial,41,494240,0.0-16.0-0.0,voc_e2,12307,"[{""event"":""blur"",""trial"":0,""time"":0},{""event"":""focus"",""trial"":1,""time"":3365},{""event"":""fullscreenenter"",""trial"":1,""time"":3460}]",NA,NA,NA,NA,NA,1,#3386FF,#D89F1C,10,0,1,38,1,1377.699999988079,37,1,759,10,1,experiment,NA,NA,0,0.9,0.1,0,1,8,1,NA
fcp-trial,42,499954,0.0-17.0-0.0,voc_e2,12307,"[{""event"":""blur"",""trial"":0,""time"":0},{""event"":""focus"",""trial"":1,""time"":3365},{""event"":""fullscreenenter"",""trial"":1,""time"":3460}]",NA,NA,NA,NA,NA,4,#741CD8,#D8271C,10,0,1,40,0,1923.5999999642372,39,0,2279.900000035763,0,0,experiment,NA,NA,2,0.5,0.5,4,5,9,1,NA
fcp-trial,43,504351,0.0-18.0-0.0,voc_e2,12307,"[{""event"":""blur"",""trial"":0,""time"":0},{""event"":""focus"",""trial"":1,""time"":3365},{""event"":""fullscreenenter"",""trial"":1,""time"":3460}]",NA,NA,NA,NA,NA,2,#D89F1C,#3386FF,0,10,0,38,1,1506.199999988079,37,1,1380.3999999761581,0,0,experiment,NA,NA,0,0.1,0.9,1,0,10,1,NA
fcp-trial,44,509944,0.0-19.0-0.0,voc_e2,12307,"[{""event"":""blur"",""trial"":0,""time"":0},{""event"":""focus"",""trial"":1,""time"":3365},{""event"":""fullscreenenter"",""trial"":1,""time"":3460}]",NA,NA,NA,NA,NA,2,#FA92F8,#1CD855,10,10,0,38,1,3479.600000023842,39,0,606.0999999642372,10,1,experiment,NA,NA,1,0.3,0.7,3,2,11,1,NA
fcp-trial,45,514392,0.0-20.0-0.0,voc_e2,12307,"[{""event"":""blur"",""trial"":0,""time"":0},{""event"":""focus"",""trial"":1,""time"":3365},{""event"":""fullscreenenter"",""trial"":1,""time"":3460}]",NA,NA,NA,NA,NA,4,#1CD855,#FA92F8,10,0,1,38,1,2354.100000023842,37,1,583,10,1,experiment,NA,NA,1,0.7,0.3,2,3,12,1,NA
fcp-trial,46,518208,0.0-21.0-0.0,voc_e2,12307,"[{""event"":""blur"",""trial"":0,""time"":0},{""event"":""focus"",""trial"":1,""time"":3365},{""event"":""fullscreenenter"",""trial"":1,""time"":3460}]",NA,NA,NA,NA,NA,3,#D89F1C,#3386FF,0,10,0,40,0,1810.5999999642372,39,0,495.30000001192093,10,1,experiment,NA,NA,0,0.1,0.9,1,0,13,1,NA
fcp-trial,47,522719,0.0-22.0-0.0,voc_e2,12307,"[{""event"":""blur"",""trial"":0,""time"":0},{""event"":""focus"",""trial"":1,""time"":3365},{""event"":""fullscreenenter"",""trial"":1,""time"":3460}]",NA,NA,NA,NA,NA,5,#D8271C,#741CD8,0,0,0,38,1,2570.300000011921,39,0,431.4000000357628,0,1,experiment,NA,NA,2,0.5,0.5,5,4,14,1,NA
fcp-trial,48,526881,0.0-23.0-0.0,voc_e2,12307,"[{""event"":""blur"",""trial"":0,""time"":0},{""event"":""focus"",""trial"":1,""time"":3365},{""event"":""fullscreenenter"",""trial"":1,""time"":3460}]",NA,NA,NA,NA,NA,1,#FA92F8,#1CD855,10,10,0,38,1,1430.6000000238419,39,0,1215.2000000476837,10,1,experiment,NA,NA,1,0.3,0.7,3,2,15,1,NA
fcp-trial,49,529920,0.0-24.0-0.0,voc_e2,12307,"[{""event"":""blur"",""trial"":0,""time"":0},{""event"":""focus"",""trial"":1,""time"":3365},{""event"":""fullscreenenter"",""trial"":1,""time"":3460}]",NA,NA,NA,NA,NA,0,#1CD855,#FA92F8,10,0,1,38,1,1009.1000000238419,37,1,516.5,10,1,experiment,NA,NA,1,0.7,0.3,2,3,16,1,NA
fcp-trial,50,533735,0.0-25.0-0.0,voc_e2,12307,"[{""event"":""blur"",""trial"":0,""time"":0},{""event"":""focus"",""trial"":1,""time"":3365},{""event"":""fullscreenenter"",""trial"":1,""time"":3460}]",NA,NA,NA,NA,NA,6,#741CD8,#D8271C,10,10,1,38,1,1778.300000011921,39,0,526.8000000119209,10,0,experiment,NA,NA,2,0.5,0.5,4,5,17,1,NA
fcp-trial,51,537801,0.0-26.0-0.0,voc_e2,12307,"[{""event"":""blur"",""trial"":0,""time"":0},{""event"":""focus"",""trial"":1,""time"":3365},{""event"":""fullscreenenter"",""trial"":1,""time"":3460}]",NA,NA,NA,NA,NA,6,#3386FF,#D89F1C,10,0,1,40,0,1708.199999988079,37,1,847.3999999761581,10,1,experiment,NA,NA,0,0.9,0.1,0,1,18,1,NA
fcp-trial,52,541312,0.0-27.0-0.0,voc_e2,12307,"[{""event"":""blur"",""trial"":0,""time"":0},{""event"":""focus"",""trial"":1,""time"":3365},{""event"":""fullscreenenter"",""trial"":1,""time"":3460}]",NA,NA,NA,NA,NA,2,#741CD8,#D8271C,0,10,1,38,1,1282.3999999761581,39,0,718.1999999880791,10,0,experiment,NA,NA,2,0.5,0.5,4,5,19,1,NA
fcp-trial,53,544417,0.0-28.0-0.0,voc_e2,12307,"[{""event"":""blur"",""trial"":0,""time"":0},{""event"":""focus"",""trial"":1,""time"":3365},{""event"":""fullscreenenter"",""trial"":1,""time"":3460}]",NA,NA,NA,NA,NA,6,#FA92F8,#1CD855,0,10,0,38,1,1120.8999999761581,39,0,469.69999998807907,10,1,experiment,NA,NA,1,0.3,0.7,3,2,20,1,NA
fcp-trial,54,547584,0.0-29.0-0.0,voc_e2,12307,"[{""event"":""blur"",""trial"":0,""time"":0},{""event"":""focus"",""trial"":1,""time"":3365},{""event"":""fullscreenenter"",""trial"":1,""time"":3460}]",NA,NA,NA,NA,NA,3,#741CD8,#D8271C,0,10,1,38,1,1082.5,39,0,575.2999999523163,10,0,experiment,NA,NA,2,0.5,0.5,4,5,21,1,NA
fcp-trial,55,550263,0.0-30.0-0.0,voc_e2,12307,"[{""event"":""blur"",""trial"":0,""time"":0},{""event"":""focus"",""trial"":1,""time"":3365},{""event"":""fullscreenenter"",""trial"":1,""time"":3460}]",NA,NA,NA,NA,NA,5,#D8271C,#741CD8,0,10,0,38,1,742.8000000119209,37,1,429.2000000476837,0,0,experiment,NA,NA,2,0.5,0.5,5,4,22,1,NA
fcp-trial,56,553032,0.0-31.0-0.0,voc_e2,12307,"[{""event"":""blur"",""trial"":0,""time"":0},{""event"":""focus"",""trial"":1,""time"":3365},{""event"":""fullscreenenter"",""trial"":1,""time"":3460}]",NA,NA,NA,NA,NA,6,#D89F1C,#3386FF,10,10,0,38,1,753.8000000119209,39,0,503.60000002384186,10,1,experiment,NA,NA,0,0.1,0.9,1,0,23,1,NA
fcp-trial,57,555888,0.0-32.0-0.0,voc_e2,12307,"[{""event"":""blur"",""trial"":0,""time"":0},{""event"":""focus"",""trial"":1,""time"":3365},{""event"":""fullscreenenter"",""trial"":1,""time"":3460}]",NA,NA,NA,NA,NA,2,#D8271C,#741CD8,0,10,0,38,1,562.8000000119209,37,1,781.8999999761581,0,0,experiment,NA,NA,2,0.5,0.5,5,4,24,1,NA
fcp-trial,58,559072,0.0-33.0-0.0,voc_e2,12307,"[{""event"":""blur"",""trial"":0,""time"":0},{""event"":""focus"",""trial"":1,""time"":3365},{""event"":""fullscreenenter"",""trial"":1,""time"":3460}]",NA,NA,NA,NA,NA,4,#D8271C,#741CD8,0,0,0,38,1,1221.199999988079,39,0,453.39999997615814,0,1,experiment,NA,NA,2,0.5,0.5,5,4,25,1,NA
fcp-trial,59,562163,0.0-34.0-0.0,voc_e2,12307,"[{""event"":""blur"",""trial"":0,""time"":0},{""event"":""focus"",""trial"":1,""time"":3365},{""event"":""fullscreenenter"",""trial"":1,""time"":3460}]",NA,NA,NA,NA,NA,2,#FA92F8,#1CD855,0,10,0,38,1,755,39,0,822,10,1,experiment,NA,NA,1,0.3,0.7,3,2,26,1,NA
fcp-trial,60,565311,0.0-35.0-0.0,voc_e2,12307,"[{""event"":""blur"",""trial"":0,""time"":0},{""event"":""focus"",""trial"":1,""time"":3365},{""event"":""fullscreenenter"",""trial"":1,""time"":3460}]",NA,NA,NA,NA,NA,5,#1CD855,#FA92F8,10,10,1,38,1,1096.699999988079,37,1,542,10,1,experiment,NA,NA,1,0.7,0.3,2,3,27,1,NA
fcp-trial,61,568839,0.0-36.0-0.0,voc_e2,12307,"[{""event"":""blur"",""trial"":0,""time"":0},{""event"":""focus"",""trial"":1,""time"":3365},{""event"":""fullscreenenter"",""trial"":1,""time"":3460}]",NA,NA,NA,NA,NA,2,#3386FF,#D89F1C,10,0,1,38,1,1507.9000000357628,39,0,511.39999997615814,0,0,experiment,NA,NA,0,0.9,0.1,0,1,28,1,NA
fcp-trial,62,572071,0.0-37.0-0.0,voc_e2,12307,"[{""event"":""blur"",""trial"":0,""time"":0},{""event"":""focus"",""trial"":1,""time"":3365},{""event"":""fullscreenenter"",""trial"":1,""time"":3460}]",NA,NA,NA,NA,NA,3,#D8271C,#741CD8,10,0,0,38,1,773.3999999761581,37,1,950.7000000476837,10,0,experiment,NA,NA,2,0.5,0.5,5,4,29,1,NA
fcp-trial,63,574993,0.0-38.0-0.0,voc_e2,12307,"[{""event"":""blur"",""trial"":0,""time"":0},{""event"":""focus"",""trial"":1,""time"":3365},{""event"":""fullscreenenter"",""trial"":1,""time"":3460}]",NA,NA,NA,NA,NA,3,#3386FF,#D89F1C,10,10,1,38,1,911.8999999761581,39,0,502.7000000476837,10,0,experiment,NA,NA,0,0.9,0.1,0,1,30,1,NA
fcp-trial,64,577639,0.0-39.0-0.0,voc_e2,12307,"[{""event"":""blur"",""trial"":0,""time"":0},{""event"":""focus"",""trial"":1,""time"":3365},{""event"":""fullscreenenter"",""trial"":1,""time"":3460}]",NA,NA,NA,NA,NA,6,#1CD855,#FA92F8,10,0,1,38,1,545.1999999880791,37,1,588.6000000238419,10,1,experiment,NA,NA,1,0.7,0.3,2,3,31,1,NA
fcp-trial,65,580216,0.0-40.0-0.0,voc_e2,12307,"[{""event"":""blur"",""trial"":0,""time"":0},{""event"":""focus"",""trial"":1,""time"":3365},{""event"":""fullscreenenter"",""trial"":1,""time"":3460}]",NA,NA,NA,NA,NA,0,#1CD855,#FA92F8,10,10,1,38,1,661.8999999761581,37,1,406.7999999523163,10,1,experiment,NA,NA,1,0.7,0.3,2,3,32,1,NA
fcp-trial,66,582855,0.0-41.0-0.0,voc_e2,12307,"[{""event"":""blur"",""trial"":0,""time"":0},{""event"":""focus"",""trial"":1,""time"":3365},{""event"":""fullscreenenter"",""trial"":1,""time"":3460}]",NA,NA,NA,NA,NA,0,#D8271C,#741CD8,10,10,0,38,1,724.5999999642372,37,1,404.69999998807907,10,0,experiment,NA,NA,2,0.5,0.5,5,4,33,1,NA
fcp-trial,67,586335,0.0-42.0-0.0,voc_e2,12307,"[{""event"":""blur"",""trial"":0,""time"":0},{""event"":""focus"",""trial"":1,""time"":3365},{""event"":""fullscreenenter"",""trial"":1,""time"":3460}]",NA,NA,NA,NA,NA,3,#1CD855,#FA92F8,0,10,1,38,1,462.2999999523163,37,1,1510.800000011921,0,1,experiment,NA,NA,1,0.7,0.3,2,3,34,1,NA
fcp-trial,68,589015,0.0-43.0-0.0,voc_e2,12307,"[{""event"":""blur"",""trial"":0,""time"":0},{""event"":""focus"",""trial"":1,""time"":3365},{""event"":""fullscreenenter"",""trial"":1,""time"":3460}]",NA,NA,NA,NA,NA,4,#D89F1C,#3386FF,0,10,0,38,1,757.9000000357628,37,1,413.89999997615814,0,0,experiment,NA,NA,0,0.1,0.9,1,0,35,1,NA
fcp-trial,69,591607,0.0-44.0-0.0,voc_e2,12307,"[{""event"":""blur"",""trial"":0,""time"":0},{""event"":""focus"",""trial"":1,""time"":3365},{""event"":""fullscreenenter"",""trial"":1,""time"":3460}]",NA,NA,NA,NA,NA,5,#D89F1C,#3386FF,0,10,0,38,1,636,39,0,446.30000001192093,10,1,experiment,NA,NA,0,0.1,0.9,1,0,36,1,NA
fcp-trial,70,594166,0.0-45.0-0.0,voc_e2,12307,"[{""event"":""blur"",""trial"":0,""time"":0},{""event"":""focus"",""trial"":1,""time"":3365},{""event"":""fullscreenenter"",""trial"":1,""time"":3460}]",NA,NA,NA,NA,NA,6,#D8271C,#741CD8,10,0,0,38,1,621.3999999761581,37,1,431.5,10,0,experiment,NA,NA,2,0.5,0.5,5,4,37,1,NA
fcp-trial,71,597528,0.0-46.0-0.0,voc_e2,12307,"[{""event"":""blur"",""trial"":0,""time"":0},{""event"":""focus"",""trial"":1,""time"":3365},{""event"":""fullscreenenter"",""trial"":1,""time"":3460}]",NA,NA,NA,NA,NA,1,#D89F1C,#3386FF,0,10,0,38,1,649,39,0,1206.5,10,1,experiment,NA,NA,0,0.1,0.9,1,0,38,1,NA
fcp-trial,72,599944,0.0-47.0-0.0,voc_e2,12307,"[{""event"":""blur"",""trial"":0,""time"":0},{""event"":""focus"",""trial"":1,""time"":3365},{""event"":""fullscreenenter"",""trial"":1,""time"":3460}]",NA,NA,NA,NA,NA,4,#1CD855,#FA92F8,0,0,1,38,1,529.0999999642372,37,1,375.5,0,1,experiment,NA,NA,1,0.7,0.3,2,3,39,1,NA
fcp-trial,73,602767,0.0-48.0-0.0,voc_e2,12307,"[{""event"":""blur"",""trial"":0,""time"":0},{""event"":""focus"",""trial"":1,""time"":3365},{""event"":""fullscreenenter"",""trial"":1,""time"":3460}]",NA,NA,NA,NA,NA,1,#741CD8,#D8271C,0,0,1,38,1,640.6000000238419,39,0,669.8999999761581,0,0,experiment,NA,NA,2,0.5,0.5,4,5,40,1,NA
fcp-trial,74,605919,0.0-49.0-0.0,voc_e2,12307,"[{""event"":""blur"",""trial"":0,""time"":0},{""event"":""focus"",""trial"":1,""time"":3365},{""event"":""fullscreenenter"",""trial"":1,""time"":3460}]",NA,NA,NA,NA,NA,1,#1CD855,#FA92F8,10,10,1,38,1,757.8999999761581,37,1,886.6000000238419,10,1,experiment,NA,NA,1,0.7,0.3,2,3,41,1,NA
fcp-trial,75,609399,0.0-50.0-0.0,voc_e2,12307,"[{""event"":""blur"",""trial"":0,""time"":0},{""event"":""focus"",""trial"":1,""time"":3365},{""event"":""fullscreenenter"",""trial"":1,""time"":3460}]",NA,NA,NA,NA,NA,0,#D89F1C,#3386FF,0,10,0,38,1,475,39,0,1487.8999999761581,10,1,experiment,NA,NA,0,0.1,0.9,1,0,42,1,NA
fcp-trial,76,612832,0.0-51.0-0.0,voc_e2,12307,"[{""event"":""blur"",""trial"":0,""time"":0},{""event"":""focus"",""trial"":1,""time"":3365},{""event"":""fullscreenenter"",""trial"":1,""time"":3460}]",NA,NA,NA,NA,NA,5,#D89F1C,#3386FF,0,10,0,38,1,346.30000001192093,39,0,1574.800000011921,10,1,experiment,NA,NA,0,0.1,0.9,1,0,43,1,NA
fcp-trial,77,615607,0.0-52.0-0.0,voc_e2,12307,"[{""event"":""blur"",""trial"":0,""time"":0},{""event"":""focus"",""trial"":1,""time"":3365},{""event"":""fullscreenenter"",""trial"":1,""time"":3460}]",NA,NA,NA,NA,NA,5,#D8271C,#741CD8,0,0,0,38,1,755.7000000476837,37,1,509,0,0,experiment,NA,NA,2,0.5,0.5,5,4,44,1,NA
fcp-trial,78,618200,0.0-53.0-0.0,voc_e2,12307,"[{""event"":""blur"",""trial"":0,""time"":0},{""event"":""focus"",""trial"":1,""time"":3365},{""event"":""fullscreenenter"",""trial"":1,""time"":3460}]",NA,NA,NA,NA,NA,6,#3386FF,#D89F1C,10,0,1,38,1,362,39,0,718.5,0,0,experiment,NA,NA,0,0.9,0.1,0,1,45,1,NA
fcp-trial,79,621384,0.0-54.0-0.0,voc_e2,12307,"[{""event"":""blur"",""trial"":0,""time"":0},{""event"":""focus"",""trial"":1,""time"":3365},{""event"":""fullscreenenter"",""trial"":1,""time"":3460}]",NA,NA,NA,NA,NA,3,#741CD8,#D8271C,10,10,1,38,1,299.2999999523163,39,0,1375.1000000238419,10,0,experiment,NA,NA,2,0.5,0.5,4,5,46,2,NA
fcp-trial,80,623864,0.0-55.0-0.0,voc_e2,12307,"[{""event"":""blur"",""trial"":0,""time"":0},{""event"":""focus"",""trial"":1,""time"":3365},{""event"":""fullscreenenter"",""trial"":1,""time"":3460}]",NA,NA,NA,NA,NA,3,#FA92F8,#1CD855,0,10,0,38,1,643.3999999761581,39,0,325.5,10,1,experiment,NA,NA,1,0.3,0.7,3,2,47,2,NA
fcp-trial,81,626863,0.0-56.0-0.0,voc_e2,12307,"[{""event"":""blur"",""trial"":0,""time"":0},{""event"":""focus"",""trial"":1,""time"":3365},{""event"":""fullscreenenter"",""trial"":1,""time"":3460}]",NA,NA,NA,NA,NA,5,#1CD855,#FA92F8,0,10,1,40,0,707,37,1,782.5,0,1,experiment,NA,NA,1,0.7,0.3,2,3,48,2,NA
fcp-trial,82,630217,0.0-57.0-0.0,voc_e2,12307,"[{""event"":""blur"",""trial"":0,""time"":0},{""event"":""focus"",""trial"":1,""time"":3365},{""event"":""fullscreenenter"",""trial"":1,""time"":3460}]",NA,NA,NA,NA,NA,0,#D89F1C,#3386FF,0,10,0,40,0,1251.199999988079,39,0,590.8000000119209,10,1,experiment,NA,NA,0,0.1,0.9,1,0,49,2,NA
fcp-trial,83,633824,0.0-58.0-0.0,voc_e2,12307,"[{""event"":""blur"",""trial"":0,""time"":0},{""event"":""focus"",""trial"":1,""time"":3365},{""event"":""fullscreenenter"",""trial"":1,""time"":3460}]",NA,NA,NA,NA,NA,1,#FA92F8,#1CD855,0,10,0,40,0,1298.199999988079,37,1,799.1999999880791,0,0,experiment,NA,NA,1,0.3,0.7,3,2,50,2,NA
fcp-trial,84,637223,0.0-59.0-0.0,voc_e2,12307,"[{""event"":""blur"",""trial"":0,""time"":0},{""event"":""focus"",""trial"":1,""time"":3365},{""event"":""fullscreenenter"",""trial"":1,""time"":3460}]",NA,NA,NA,NA,NA,6,#741CD8,#D8271C,0,0,1,38,1,1032,39,0,853.9000000357628,0,0,experiment,NA,NA,2,0.5,0.5,4,5,51,2,NA
fcp-trial,85,640047,0.0-60.0-0.0,voc_e2,12307,"[{""event"":""blur"",""trial"":0,""time"":0},{""event"":""focus"",""trial"":1,""time"":3365},{""event"":""fullscreenenter"",""trial"":1,""time"":3460}]",NA,NA,NA,NA,NA,4,#741CD8,#D8271C,0,10,1,38,1,769.3000000119209,39,0,542.8999999761581,10,0,experiment,NA,NA,2,0.5,0.5,4,5,52,2,NA
fcp-trial,86,642871,0.0-61.0-0.0,voc_e2,12307,"[{""event"":""blur"",""trial"":0,""time"":0},{""event"":""focus"",""trial"":1,""time"":3365},{""event"":""fullscreenenter"",""trial"":1,""time"":3460}]",NA,NA,NA,NA,NA,3,#D89F1C,#3386FF,0,10,0,38,1,563.8999999761581,39,0,750.5,10,1,experiment,NA,NA,0,0.1,0.9,1,0,53,2,NA
fcp-trial,87,646367,0.0-62.0-0.0,voc_e2,12307,"[{""event"":""blur"",""trial"":0,""time"":0},{""event"":""focus"",""trial"":1,""time"":3365},{""event"":""fullscreenenter"",""trial"":1,""time"":3460}]",NA,NA,NA,NA,NA,1,#741CD8,#D8271C,10,0,1,38,1,1251.300000011921,39,0,734.9000000357628,0,0,experiment,NA,NA,2,0.5,0.5,4,5,54,2,NA
fcp-trial,88,648736,0.0-63.0-0.0,voc_e2,12307,"[{""event"":""blur"",""trial"":0,""time"":0},{""event"":""focus"",""trial"":1,""time"":3365},{""event"":""fullscreenenter"",""trial"":1,""time"":3460}]",NA,NA,NA,NA,NA,4,#1CD855,#FA92F8,10,10,1,38,1,547.3999999761581,37,1,310.30000001192093,10,1,experiment,NA,NA,1,0.7,0.3,2,3,55,2,NA
fcp-trial,89,651377,0.0-64.0-0.0,voc_e2,12307,"[{""event"":""blur"",""trial"":0,""time"":0},{""event"":""focus"",""trial"":1,""time"":3365},{""event"":""fullscreenenter"",""trial"":1,""time"":3460}]",NA,NA,NA,NA,NA,0,#FA92F8,#1CD855,0,10,0,38,1,787.5,39,0,341.69999998807907,10,1,experiment,NA,NA,1,0.3,0.7,3,2,56,2,NA
fcp-trial,90,654640,0.0-65.0-0.0,voc_e2,12307,"[{""event"":""blur"",""trial"":0,""time"":0},{""event"":""focus"",""trial"":1,""time"":3365},{""event"":""fullscreenenter"",""trial"":1,""time"":3460}]",NA,NA,NA,NA,NA,2,#1CD855,#FA92F8,0,0,1,38,1,858.8999999761581,37,1,893,0,1,experiment,NA,NA,1,0.7,0.3,2,3,57,2,NA
fcp-trial,91,658687,0.0-66.0-0.0,voc_e2,12307,"[{""event"":""blur"",""trial"":0,""time"":0},{""event"":""focus"",""trial"":1,""time"":3365},{""event"":""fullscreenenter"",""trial"":1,""time"":3460}]",NA,NA,NA,NA,NA,4,#3386FF,#D89F1C,10,0,1,38,1,760.8999999761581,37,1,1765.7000000476837,10,1,experiment,NA,NA,0,0.9,0.1,0,1,58,2,NA
fcp-trial,92,661784,0.0-67.0-0.0,voc_e2,12307,"[{""event"":""blur"",""trial"":0,""time"":0},{""event"":""focus"",""trial"":1,""time"":3365},{""event"":""fullscreenenter"",""trial"":1,""time"":3460}]",NA,NA,NA,NA,NA,2,#D8271C,#741CD8,0,0,0,38,1,619.5,39,0,967.1999999880791,0,1,experiment,NA,NA,2,0.5,0.5,5,4,59,2,NA
fcp-trial,93,664215,0.0-68.0-0.0,voc_e2,12307,"[{""event"":""blur"",""trial"":0,""time"":0},{""event"":""focus"",""trial"":1,""time"":3365},{""event"":""fullscreenenter"",""trial"":1,""time"":3460}]",NA,NA,NA,NA,NA,6,#1CD855,#FA92F8,10,0,1,38,1,362.80000001192093,39,0,557.8000000119209,0,0,experiment,NA,NA,1,0.7,0.3,2,3,60,2,NA
fcp-trial,94,666936,0.0-69.0-0.0,voc_e2,12307,"[{""event"":""blur"",""trial"":0,""time"":0},{""event"":""focus"",""trial"":1,""time"":3365},{""event"":""fullscreenenter"",""trial"":1,""time"":3460}]",NA,NA,NA,NA,NA,2,#D89F1C,#3386FF,0,10,0,38,1,789.1999999880791,37,1,424.80000001192093,0,0,experiment,NA,NA,0,0.1,0.9,1,0,61,2,NA
fcp-trial,95,669368,0.0-70.0-0.0,voc_e2,12307,"[{""event"":""blur"",""trial"":0,""time"":0},{""event"":""focus"",""trial"":1,""time"":3365},{""event"":""fullscreenenter"",""trial"":1,""time"":3460}]",NA,NA,NA,NA,NA,1,#3386FF,#D89F1C,10,0,1,38,1,612.8999999761581,37,1,309.5999999642372,10,1,experiment,NA,NA,0,0.9,0.1,0,1,62,2,NA
fcp-trial,96,671928,0.0-71.0-0.0,voc_e2,12307,"[{""event"":""blur"",""trial"":0,""time"":0},{""event"":""focus"",""trial"":1,""time"":3365},{""event"":""fullscreenenter"",""trial"":1,""time"":3460}]",NA,NA,NA,NA,NA,0,#D8271C,#741CD8,0,10,0,38,1,770.7000000476837,37,1,279,0,0,experiment,NA,NA,2,0.5,0.5,5,4,63,2,NA
fcp-trial,97,674296,0.0-72.0-0.0,voc_e2,12307,"[{""event"":""blur"",""trial"":0,""time"":0},{""event"":""focus"",""trial"":1,""time"":3365},{""event"":""fullscreenenter"",""trial"":1,""time"":3460}]",NA,NA,NA,NA,NA,1,#1CD855,#FA92F8,0,0,1,38,1,483.4000000357628,37,1,375.60000002384186,0,1,experiment,NA,NA,1,0.7,0.3,2,3,64,2,NA
fcp-trial,98,676810,0.0-73.0-0.0,voc_e2,12307,"[{""event"":""blur"",""trial"":0,""time"":0},{""event"":""focus"",""trial"":1,""time"":3365},{""event"":""fullscreenenter"",""trial"":1,""time"":3460}]",NA,NA,NA,NA,NA,3,#3386FF,#D89F1C,10,0,1,38,1,523.8000000119209,39,0,477.69999998807907,0,0,experiment,NA,NA,0,0.9,0.1,0,1,65,2,NA
fcp-trial,99,679320,0.0-74.0-0.0,voc_e2,12307,"[{""event"":""blur"",""trial"":0,""time"":0},{""event"":""focus"",""trial"":1,""time"":3365},{""event"":""fullscreenenter"",""trial"":1,""time"":3460}]",NA,NA,NA,NA,NA,5,#D8271C,#741CD8,0,0,0,38,1,345.10000002384186,37,1,655.1999999880791,0,0,experiment,NA,NA,2,0.5,0.5,5,4,66,2,NA
fcp-trial,100,681977,0.0-75.0-0.0,voc_e2,12307,"[{""event"":""blur"",""trial"":0,""time"":0},{""event"":""focus"",""trial"":1,""time"":3365},{""event"":""fullscreenenter"",""trial"":1,""time"":3460}]",NA,NA,NA,NA,NA,5,#FA92F8,#1CD855,10,10,0,38,1,395.39999997615814,39,0,750,10,1,experiment,NA,NA,1,0.3,0.7,3,2,67,2,NA
fcp-trial,101,684409,0.0-76.0-0.0,voc_e2,12307,"[{""event"":""blur"",""trial"":0,""time"":0},{""event"":""focus"",""trial"":1,""time"":3365},{""event"":""fullscreenenter"",""trial"":1,""time"":3460}]",NA,NA,NA,NA,NA,1,#D89F1C,#3386FF,0,10,0,38,1,474.5,39,0,446.7999999523163,10,1,experiment,NA,NA,0,0.1,0.9,1,0,68,2,NA
fcp-trial,102,686784,0.0-77.0-0.0,voc_e2,12307,"[{""event"":""blur"",""trial"":0,""time"":0},{""event"":""focus"",""trial"":1,""time"":3365},{""event"":""fullscreenenter"",""trial"":1,""time"":3460}]",NA,NA,NA,NA,NA,4,#741CD8,#D8271C,0,0,1,38,1,330.0999999642372,39,0,534.0999999642372,0,0,experiment,NA,NA,2,0.5,0.5,4,5,69,2,NA
fcp-trial,103,689231,0.0-78.0-0.0,voc_e2,12307,"[{""event"":""blur"",""trial"":0,""time"":0},{""event"":""focus"",""trial"":1,""time"":3365},{""event"":""fullscreenenter"",""trial"":1,""time"":3460}]",NA,NA,NA,NA,NA,2,#741CD8,#D8271C,10,0,1,38,1,578.8000000119209,39,0,358.0999999642372,0,0,experiment,NA,NA,2,0.5,0.5,4,5,70,2,NA
fcp-trial,104,691512,0.0-79.0-0.0,voc_e2,12307,"[{""event"":""blur"",""trial"":0,""time"":0},{""event"":""focus"",""trial"":1,""time"":3365},{""event"":""fullscreenenter"",""trial"":1,""time"":3460}]",NA,NA,NA,NA,NA,3,#1CD855,#FA92F8,10,10,1,38,1,412.39999997615814,37,1,358.80000001192093,10,1,experiment,NA,NA,1,0.7,0.3,2,3,71,2,NA
fcp-trial,105,694472,0.0-80.0-0.0,voc_e2,12307,"[{""event"":""blur"",""trial"":0,""time"":0},{""event"":""focus"",""trial"":1,""time"":3365},{""event"":""fullscreenenter"",""trial"":1,""time"":3460}]",NA,NA,NA,NA,NA,6,#3386FF,#D89F1C,10,0,1,38,1,395.19999998807907,37,1,1054.300000011921,10,1,experiment,NA,NA,0,0.9,0.1,0,1,72,2,NA
fcp-trial,106,697195,0.0-81.0-0.0,voc_e2,12307,"[{""event"":""blur"",""trial"":0,""time"":0},{""event"":""focus"",""trial"":1,""time"":3365},{""event"":""fullscreenenter"",""trial"":1,""time"":3460}]",NA,NA,NA,NA,NA,2,#D89F1C,#3386FF,0,0,0,38,1,656.5999999642372,37,1,550.3000000119209,0,0,experiment,NA,NA,0,0.1,0.9,1,0,73,2,NA
fcp-trial,107,699656,0.0-82.0-0.0,voc_e2,12307,"[{""event"":""blur"",""trial"":0,""time"":0},{""event"":""focus"",""trial"":1,""time"":3365},{""event"":""fullscreenenter"",""trial"":1,""time"":3460}]",NA,NA,NA,NA,NA,4,#FA92F8,#1CD855,0,10,0,38,1,592.6999999880791,39,0,358.39999997615814,10,1,experiment,NA,NA,1,0.3,0.7,3,2,74,2,NA
fcp-trial,108,702528,0.0-83.0-0.0,voc_e2,12307,"[{""event"":""blur"",""trial"":0,""time"":0},{""event"":""focus"",""trial"":1,""time"":3365},{""event"":""fullscreenenter"",""trial"":1,""time"":3460}]",NA,NA,NA,NA,NA,0,#D8271C,#741CD8,0,0,0,38,1,544.7999999523163,37,1,814.5,0,0,experiment,NA,NA,2,0.5,0.5,5,4,75,2,NA
fcp-trial,109,705993,0.0-84.0-0.0,voc_e2,12307,"[{""event"":""blur"",""trial"":0,""time"":0},{""event"":""focus"",""trial"":1,""time"":3365},{""event"":""fullscreenenter"",""trial"":1,""time"":3460}]",NA,NA,NA,NA,NA,5,#D89F1C,#3386FF,0,0,0,38,1,1067.2000000476837,39,0,887.6999999880791,0,1,experiment,NA,NA,0,0.1,0.9,1,0,76,2,NA
fcp-trial,110,708442,0.0-85.0-0.0,voc_e2,12307,"[{""event"":""blur"",""trial"":0,""time"":0},{""event"":""focus"",""trial"":1,""time"":3365},{""event"":""fullscreenenter"",""trial"":1,""time"":3460}]",NA,NA,NA,NA,NA,2,#1CD855,#FA92F8,10,10,1,38,1,609.8999999761581,37,1,327.69999998807907,10,1,experiment,NA,NA,1,0.7,0.3,2,3,77,2,NA
fcp-trial,111,711875,0.0-86.0-0.0,voc_e2,12307,"[{""event"":""blur"",""trial"":0,""time"":0},{""event"":""focus"",""trial"":1,""time"":3365},{""event"":""fullscreenenter"",""trial"":1,""time"":3460}]",NA,NA,NA,NA,NA,3,#D8271C,#741CD8,0,0,0,38,1,818,39,0,1102.4000000357628,0,1,experiment,NA,NA,2,0.5,0.5,5,4,78,2,NA
fcp-trial,112,715584,0.0-87.0-0.0,voc_e2,12307,"[{""event"":""blur"",""trial"":0,""time"":0},{""event"":""focus"",""trial"":1,""time"":3365},{""event"":""fullscreenenter"",""trial"":1,""time"":3460}]",NA,NA,NA,NA,NA,4,#D89F1C,#3386FF,0,0,0,38,1,800.5999999642372,39,0,1398.699999988079,0,1,experiment,NA,NA,0,0.1,0.9,1,0,79,2,NA
fcp-trial,113,718616,0.0-88.0-0.0,voc_e2,12307,"[{""event"":""blur"",""trial"":0,""time"":0},{""event"":""focus"",""trial"":1,""time"":3365},{""event"":""fullscreenenter"",""trial"":1,""time"":3460}]",NA,NA,NA,NA,NA,0,#D89F1C,#3386FF,0,10,0,38,1,634.5999999642372,37,1,887.3000000119209,0,0,experiment,NA,NA,0,0.1,0.9,1,0,80,2,NA
fcp-trial,114,722248,0.0-89.0-0.0,voc_e2,12307,"[{""event"":""blur"",""trial"":0,""time"":0},{""event"":""focus"",""trial"":1,""time"":3365},{""event"":""fullscreenenter"",""trial"":1,""time"":3460}]",NA,NA,NA,NA,NA,1,#741CD8,#D8271C,10,0,1,38,1,955.6999999880791,37,1,1165.2000000476837,10,1,experiment,NA,NA,2,0.5,0.5,4,5,81,2,NA
fcp-trial,115,724591,0.0-90.0-0.0,voc_e2,12307,"[{""event"":""blur"",""trial"":0,""time"":0},{""event"":""focus"",""trial"":1,""time"":3365},{""event"":""fullscreenenter"",""trial"":1,""time"":3460}]",NA,NA,NA,NA,NA,6,#FA92F8,#1CD855,0,0,0,38,1,537,39,0,295.60000002384186,0,1,experiment,NA,NA,1,0.3,0.7,3,2,82,2,NA
fcp-trial,116,727088,0.0-91.0-0.0,voc_e2,12307,"[{""event"":""blur"",""trial"":0,""time"":0},{""event"":""focus"",""trial"":1,""time"":3365},{""event"":""fullscreenenter"",""trial"":1,""time"":3460}]",NA,NA,NA,NA,NA,0,#1CD855,#FA92F8,0,0,1,38,1,725.5,37,1,261.89999997615814,0,1,experiment,NA,NA,1,0.7,0.3,2,3,83,2,NA
fcp-trial,117,729712,0.0-92.0-0.0,voc_e2,12307,"[{""event"":""blur"",""trial"":0,""time"":0},{""event"":""focus"",""trial"":1,""time"":3365},{""event"":""fullscreenenter"",""trial"":1,""time"":3460}]",NA,NA,NA,NA,NA,6,#741CD8,#D8271C,10,0,1,38,1,593.3000000119209,37,1,518.5,10,1,experiment,NA,NA,2,0.5,0.5,4,5,84,2,NA
fcp-trial,118,733225,0.0-93.0-0.0,voc_e2,12307,"[{""event"":""blur"",""trial"":0,""time"":0},{""event"":""focus"",""trial"":1,""time"":3365},{""event"":""fullscreenenter"",""trial"":1,""time"":3460}]",NA,NA,NA,NA,NA,1,#3386FF,#D89F1C,10,0,1,38,1,723.4000000357628,37,1,1279.0999999642372,10,1,experiment,NA,NA,0,0.9,0.1,0,1,85,2,NA
fcp-trial,119,735784,0.0-94.0-0.0,voc_e2,12307,"[{""event"":""blur"",""trial"":0,""time"":0},{""event"":""focus"",""trial"":1,""time"":3365},{""event"":""fullscreenenter"",""trial"":1,""time"":3460}]",NA,NA,NA,NA,NA,6,#3386FF,#D89F1C,10,0,1,38,1,691.1000000238419,39,0,358.10000002384186,0,0,experiment,NA,NA,0,0.9,0.1,0,1,86,2,NA
fcp-trial,120,738073,0.0-95.0-0.0,voc_e2,12307,"[{""event"":""blur"",""trial"":0,""time"":0},{""event"":""focus"",""trial"":1,""time"":3365},{""event"":""fullscreenenter"",""trial"":1,""time"":3460}]",NA,NA,NA,NA,NA,0,#741CD8,#D8271C,0,0,1,38,1,451.10000002384186,37,1,327.7000000476837,0,1,experiment,NA,NA,2,0.5,0.5,4,5,87,2,NA
fcp-trial,121,740648,0.0-96.0-0.0,voc_e2,12307,"[{""event"":""blur"",""trial"":0,""time"":0},{""event"":""focus"",""trial"":1,""time"":3365},{""event"":""fullscreenenter"",""trial"":1,""time"":3460}]",NA,NA,NA,NA,NA,3,#3386FF,#D89F1C,10,0,1,38,1,458.5999999642372,37,1,605.5,10,1,experiment,NA,NA,0,0.9,0.1,0,1,88,2,NA
fcp-trial,122,743055,0.0-97.0-0.0,voc_e2,12307,"[{""event"":""blur"",""trial"":0,""time"":0},{""event"":""focus"",""trial"":1,""time"":3365},{""event"":""fullscreenenter"",""trial"":1,""time"":3460}]",NA,NA,NA,NA,NA,0,#FA92F8,#1CD855,10,10,0,38,1,443.39999997615814,39,0,454.30000001192093,10,1,experiment,NA,NA,1,0.3,0.7,3,2,89,2,NA
fcp-trial,123,745673,0.0-98.0-0.0,voc_e2,12307,"[{""event"":""blur"",""trial"":0,""time"":0},{""event"":""focus"",""trial"":1,""time"":3365},{""event"":""fullscreenenter"",""trial"":1,""time"":3460}]",NA,NA,NA,NA,NA,5,#FA92F8,#1CD855,10,10,0,38,1,734.6000000238419,39,0,374.89999997615814,10,1,experiment,NA,NA,1,0.3,0.7,3,2,90,2,NA
fcp-trial,124,748344,0.0-99.0-0.0,voc_e2,12307,"[{""event"":""blur"",""trial"":0,""time"":0},{""event"":""focus"",""trial"":1,""time"":3365},{""event"":""fullscreenenter"",""trial"":1,""time"":3460}]",NA,NA,NA,NA,NA,1,#741CD8,#D8271C,10,0,1,38,1,358.7999999523163,39,0,798.9000000357628,0,0,experiment,NA,NA,2,0.5,0.5,4,5,91,3,NA
fcp-trial,125,751248,0.0-100.0-0.0,voc_e2,12307,"[{""event"":""blur"",""trial"":0,""time"":0},{""event"":""focus"",""trial"":1,""time"":3365},{""event"":""fullscreenenter"",""trial"":1,""time"":3460}]",NA,NA,NA,NA,NA,2,#3386FF,#D89F1C,10,0,1,38,1,458,37,1,936.1999999880791,10,1,experiment,NA,NA,0,0.9,0.1,0,1,92,3,NA
fcp-trial,126,753664,0.0-101.0-0.0,voc_e2,12307,"[{""event"":""blur"",""trial"":0,""time"":0},{""event"":""focus"",""trial"":1,""time"":3365},{""event"":""fullscreenenter"",""trial"":1,""time"":3460}]",NA,NA,NA,NA,NA,1,#1CD855,#FA92F8,10,10,1,38,1,516.3000000119209,37,1,388.89999997615814,10,1,experiment,NA,NA,1,0.7,0.3,2,3,93,3,NA
fcp-trial,127,756080,0.0-102.0-0.0,voc_e2,12307,"[{""event"":""blur"",""trial"":0,""time"":0},{""event"":""focus"",""trial"":1,""time"":3365},{""event"":""fullscreenenter"",""trial"":1,""time"":3460}]",NA,NA,NA,NA,NA,2,#741CD8,#D8271C,10,10,1,38,1,331.69999998807907,39,0,573.1999999880791,10,0,experiment,NA,NA,2,0.5,0.5,4,5,94,3,NA
fcp-trial,128,758280,0.0-103.0-0.0,voc_e2,12307,"[{""event"":""blur"",""trial"":0,""time"":0},{""event"":""focus"",""trial"":1,""time"":3365},{""event"":""fullscreenenter"",""trial"":1,""time"":3460}]",NA,NA,NA,NA,NA,5,#3386FF,#D89F1C,10,0,1,38,1,347,37,1,340.39999997615814,10,1,experiment,NA,NA,0,0.9,0.1,0,1,95,3,NA
fcp-trial,129,760440,0.0-104.0-0.0,voc_e2,12307,"[{""event"":""blur"",""trial"":0,""time"":0},{""event"":""focus"",""trial"":1,""time"":3365},{""event"":""fullscreenenter"",""trial"":1,""time"":3460}]",NA,NA,NA,NA,NA,2,#1CD855,#FA92F8,10,10,1,38,1,306.7999999523163,37,1,342.80000001192093,10,1,experiment,NA,NA,1,0.7,0.3,2,3,96,3,NA
fcp-trial,130,762679,0.0-105.0-0.0,voc_e2,12307,"[{""event"":""blur"",""trial"":0,""time"":0},{""event"":""focus"",""trial"":1,""time"":3365},{""event"":""fullscreenenter"",""trial"":1,""time"":3460}]",NA,NA,NA,NA,NA,3,#FA92F8,#1CD855,0,10,0,38,1,402.39999997615814,39,0,326.30000001192093,10,1,experiment,NA,NA,1,0.3,0.7,3,2,97,3,NA
fcp-trial,131,764978,0.0-106.0-0.0,voc_e2,12307,"[{""event"":""blur"",""trial"":0,""time"":0},{""event"":""focus"",""trial"":1,""time"":3365},{""event"":""fullscreenenter"",""trial"":1,""time"":3460}]",NA,NA,NA,NA,NA,5,#D8271C,#741CD8,10,10,0,38,1,459.89999997615814,37,1,327,10,0,experiment,NA,NA,2,0.5,0.5,5,4,98,3,NA
fcp-trial,132,767145,0.0-107.0-0.0,voc_e2,12307,"[{""event"":""blur"",""trial"":0,""time"":0},{""event"":""focus"",""trial"":1,""time"":3365},{""event"":""fullscreenenter"",""trial"":1,""time"":3460}]",NA,NA,NA,NA,NA,4,#741CD8,#D8271C,0,10,1,38,1,341.89999997615814,39,0,309.5999999642372,10,0,experiment,NA,NA,2,0.5,0.5,4,5,99,3,NA
fcp-trial,133,769472,0.0-108.0-0.0,voc_e2,12307,"[{""event"":""blur"",""trial"":0,""time"":0},{""event"":""focus"",""trial"":1,""time"":3365},{""event"":""fullscreenenter"",""trial"":1,""time"":3460}]",NA,NA,NA,NA,NA,4,#3386FF,#D89F1C,10,0,1,38,1,441.4000000357628,37,1,374.0999999642372,10,1,experiment,NA,NA,0,0.9,0.1,0,1,100,3,NA
fcp-trial,134,771938,0.0-109.0-0.0,voc_e2,12307,"[{""event"":""blur"",""trial"":0,""time"":0},{""event"":""focus"",""trial"":1,""time"":3365},{""event"":""fullscreenenter"",""trial"":1,""time"":3460}]",NA,NA,NA,NA,NA,6,#D8271C,#741CD8,0,0,0,38,1,347.19999998807907,37,1,607.3000000119209,0,0,experiment,NA,NA,2,0.5,0.5,5,4,101,3,NA
fcp-trial,135,774329,0.0-110.0-0.0,voc_e2,12307,"[{""event"":""blur"",""trial"":0,""time"":0},{""event"":""focus"",""trial"":1,""time"":3365},{""event"":""fullscreenenter"",""trial"":1,""time"":3460}]",NA,NA,NA,NA,NA,4,#1CD855,#FA92F8,10,10,1,38,1,521.5,37,1,358.80000001192093,10,1,experiment,NA,NA,1,0.7,0.3,2,3,102,3,NA
fcp-trial,136,776824,0.0-111.0-0.0,voc_e2,12307,"[{""event"":""blur"",""trial"":0,""time"":0},{""event"":""focus"",""trial"":1,""time"":3365},{""event"":""fullscreenenter"",""trial"":1,""time"":3460}]",NA,NA,NA,NA,NA,3,#D8271C,#741CD8,10,10,0,38,1,497.4000000357628,37,1,488,10,0,experiment,NA,NA,2,0.5,0.5,5,4,103,3,NA
fcp-trial,137,779099,0.0-112.0-0.0,voc_e2,12307,"[{""event"":""blur"",""trial"":0,""time"":0},{""event"":""focus"",""trial"":1,""time"":3365},{""event"":""fullscreenenter"",""trial"":1,""time"":3460}]",NA,NA,NA,NA,NA,6,#FA92F8,#1CD855,0,0,0,38,1,450.5,39,0,311,0,1,experiment,NA,NA,1,0.3,0.7,3,2,104,3,NA
fcp-trial,138,781393,0.0-113.0-0.0,voc_e2,12307,"[{""event"":""blur"",""trial"":0,""time"":0},{""event"":""focus"",""trial"":1,""time"":3365},{""event"":""fullscreenenter"",""trial"":1,""time"":3460}]",NA,NA,NA,NA,NA,0,#D89F1C,#3386FF,0,10,0,38,1,317.60000002384186,39,0,462.10000002384186,10,1,experiment,NA,NA,0,0.1,0.9,1,0,105,3,NA
audio-instructions,139,833330,0.0-114.0,voc_e2,12307,"[{""event"":""blur"",""trial"":0,""time"":0},{""event"":""focus"",""trial"":1,""time"":3365},{""event"":""fullscreenenter"",""trial"":1,""time"":3460}]",NA,47235,static/audio/pause.wav,NA,0,NA,NA,NA,NA,NA,NA,NA,NA,NA,NA,NA,NA,NA,NA,NA,NA,NA,NA,NA,NA,NA,NA,NA,NA,NA
fcp-trial,140,837169,0.0-115.0-0.0,voc_e2,12307,"[{""event"":""blur"",""trial"":0,""time"":0},{""event"":""focus"",""trial"":1,""time"":3365},{""event"":""fullscreenenter"",""trial"":1,""time"":3460}]",NA,NA,NA,NA,NA,3,#1CD855,#FA92F8,0,0,1,38,1,1501.199999988079,37,1,833.1000000238419,0,1,experiment,NA,NA,1,0.7,0.3,2,3,106,3,NA
fcp-trial,141,841617,0.0-116.0-0.0,voc_e2,12307,"[{""event"":""blur"",""trial"":0,""time"":0},{""event"":""focus"",""trial"":1,""time"":3365},{""event"":""fullscreenenter"",""trial"":1,""time"":3460}]",NA,NA,NA,NA,NA,1,#D8271C,#741CD8,0,0,0,38,1,2122.400000035763,39,0,813.6000000238419,0,1,experiment,NA,NA,2,0.5,0.5,5,4,107,3,NA
fcp-trial,142,845439,0.0-117.0-0.0,voc_e2,12307,"[{""event"":""blur"",""trial"":0,""time"":0},{""event"":""focus"",""trial"":1,""time"":3365},{""event"":""fullscreenenter"",""trial"":1,""time"":3460}]",NA,NA,NA,NA,NA,2,#D89F1C,#3386FF,0,10,0,38,1,1528.4000000357628,39,0,783.3000000119209,10,1,experiment,NA,NA,0,0.1,0.9,1,0,108,3,NA
fcp-trial,143,847824,0.0-118.0-0.0,voc_e2,12307,"[{""event"":""blur"",""trial"":0,""time"":0},{""event"":""focus"",""trial"":1,""time"":3365},{""event"":""fullscreenenter"",""trial"":1,""time"":3460}]",NA,NA,NA,NA,NA,4,#FA92F8,#1CD855,0,10,0,38,1,483.39999997615814,39,0,391.60000002384186,10,1,experiment,NA,NA,1,0.3,0.7,3,2,109,3,NA
fcp-trial,144,851103,0.0-119.0-0.0,voc_e2,12307,"[{""event"":""blur"",""trial"":0,""time"":0},{""event"":""focus"",""trial"":1,""time"":3365},{""event"":""fullscreenenter"",""trial"":1,""time"":3460}]",NA,NA,NA,NA,NA,6,#D8271C,#741CD8,0,0,0,38,1,722.4000000357628,39,0,1047,0,1,experiment,NA,NA,2,0.5,0.5,5,4,110,3,NA
fcp-trial,145,853471,0.0-120.0-0.0,voc_e2,12307,"[{""event"":""blur"",""trial"":0,""time"":0},{""event"":""focus"",""trial"":1,""time"":3365},{""event"":""fullscreenenter"",""trial"":1,""time"":3460}]",NA,NA,NA,NA,NA,6,#3386FF,#D89F1C,10,0,1,38,1,362.39999997615814,37,1,494.60000002384186,10,1,experiment,NA,NA,0,0.9,0.1,0,1,111,3,NA
fcp-trial,146,856832,0.0-121.0-0.0,voc_e2,12307,"[{""event"":""blur"",""trial"":0,""time"":0},{""event"":""focus"",""trial"":1,""time"":3365},{""event"":""fullscreenenter"",""trial"":1,""time"":3460}]",NA,NA,NA,NA,NA,2,#D8271C,#741CD8,0,10,0,38,1,523.6999999880791,37,1,1327.300000011921,0,0,experiment,NA,NA,2,0.5,0.5,5,4,112,3,NA
fcp-trial,147,859166,0.0-122.0-0.0,voc_e2,12307,"[{""event"":""blur"",""trial"":0,""time"":0},{""event"":""focus"",""trial"":1,""time"":3365},{""event"":""fullscreenenter"",""trial"":1,""time"":3460}]",NA,NA,NA,NA,NA,5,#1CD855,#FA92F8,10,0,1,38,1,348.30000001192093,37,1,479,10,1,experiment,NA,NA,1,0.7,0.3,2,3,113,3,NA
fcp-trial,148,863216,0.0-123.0-0.0,voc_e2,12307,"[{""event"":""blur"",""trial"":0,""time"":0},{""event"":""focus"",""trial"":1,""time"":3365},{""event"":""fullscreenenter"",""trial"":1,""time"":3460}]",NA,NA,NA,NA,NA,3,#3386FF,#D89F1C,10,0,1,38,1,821.5,37,1,1717.199999988079,10,1,experiment,NA,NA,0,0.9,0.1,0,1,114,3,NA
fcp-trial,149,865817,0.0-124.0-0.0,voc_e2,12307,"[{""event"":""blur"",""trial"":0,""time"":0},{""event"":""focus"",""trial"":1,""time"":3365},{""event"":""fullscreenenter"",""trial"":1,""time"":3460}]",NA,NA,NA,NA,NA,0,#3386FF,#D89F1C,10,0,1,38,1,609.4000000357628,37,1,480.9000000357628,10,1,experiment,NA,NA,0,0.9,0.1,0,1,115,3,NA
fcp-trial,150,868551,0.0-125.0-0.0,voc_e2,12307,"[{""event"":""blur"",""trial"":0,""time"":0},{""event"":""focus"",""trial"":1,""time"":3365},{""event"":""fullscreenenter"",""trial"":1,""time"":3460}]",NA,NA,NA,NA,NA,5,#741CD8,#D8271C,10,0,1,38,1,444.0999999642372,37,1,783.5,10,1,experiment,NA,NA,2,0.5,0.5,4,5,116,3,NA
fcp-trial,151,870816,0.0-126.0-0.0,voc_e2,12307,"[{""event"":""blur"",""trial"":0,""time"":0},{""event"":""focus"",""trial"":1,""time"":3365},{""event"":""fullscreenenter"",""trial"":1,""time"":3460}]",NA,NA,NA,NA,NA,2,#1CD855,#FA92F8,10,0,1,38,1,365.89999997615814,37,1,390.5,10,1,experiment,NA,NA,1,0.7,0.3,2,3,117,3,NA
fcp-trial,152,874887,0.0-127.0-0.0,voc_e2,12307,"[{""event"":""blur"",""trial"":0,""time"":0},{""event"":""focus"",""trial"":1,""time"":3365},{""event"":""fullscreenenter"",""trial"":1,""time"":3460}]",NA,NA,NA,NA,NA,1,#3386FF,#D89F1C,0,0,1,38,1,691.8000000119209,37,1,1868.6000000238419,0,1,experiment,NA,NA,0,0.9,0.1,0,1,118,3,NA
fcp-trial,153,879894,0.0-128.0-0.0,voc_e2,12307,"[{""event"":""blur"",""trial"":0,""time"":0},{""event"":""focus"",""trial"":1,""time"":3365},{""event"":""fullscreenenter"",""trial"":1,""time"":3460}]",NA,NA,NA,NA,NA,1,#FA92F8,#1CD855,10,10,0,38,1,2779.300000011921,39,0,719.1999999880791,10,1,experiment,NA,NA,1,0.3,0.7,3,2,119,3,NA
fcp-trial,154,882783,0.0-129.0-0.0,voc_e2,12307,"[{""event"":""blur"",""trial"":0,""time"":0},{""event"":""focus"",""trial"":1,""time"":3365},{""event"":""fullscreenenter"",""trial"":1,""time"":3460}]",NA,NA,NA,NA,NA,6,#1CD855,#FA92F8,10,10,1,38,1,940.9000000357628,37,1,438.89999997615814,10,1,experiment,NA,NA,1,0.7,0.3,2,3,120,3,NA
fcp-trial,155,887481,0.0-130.0-0.0,voc_e2,12307,"[{""event"":""blur"",""trial"":0,""time"":0},{""event"":""focus"",""trial"":1,""time"":3365},{""event"":""fullscreenenter"",""trial"":1,""time"":3460}]",NA,NA,NA,NA,NA,4,#D8271C,#741CD8,10,0,0,38,1,675.1000000238419,37,1,2511.399999976158,10,0,experiment,NA,NA,2,0.5,0.5,5,4,121,3,NA
fcp-trial,156,891789,0.0-131.0-0.0,voc_e2,12307,"[{""event"":""blur"",""trial"":0,""time"":0},{""event"":""focus"",""trial"":1,""time"":3365},{""event"":""fullscreenenter"",""trial"":1,""time"":3460}]",NA,NA,NA,NA,NA,0,#1CD855,#FA92F8,10,0,1,38,1,377.7000000476837,37,1,2420.2999999523163,10,1,experiment,NA,NA,1,0.7,0.3,2,3,122,3,NA
fcp-trial,157,896768,0.0-132.0-0.0,voc_e2,12307,"[{""event"":""blur"",""trial"":0,""time"":0},{""event"":""focus"",""trial"":1,""time"":3365},{""event"":""fullscreenenter"",""trial"":1,""time"":3460}]",NA,NA,NA,NA,NA,4,#D89F1C,#3386FF,0,10,0,38,1,2639.900000035763,39,0,830.6999999880791,10,1,experiment,NA,NA,0,0.1,0.9,1,0,123,3,NA
fcp-trial,158,899350,0.0-133.0-0.0,voc_e2,12307,"[{""event"":""blur"",""trial"":0,""time"":0},{""event"":""focus"",""trial"":1,""time"":3365},{""event"":""fullscreenenter"",""trial"":1,""time"":3460}]",NA,NA,NA,NA,NA,0,#D8271C,#741CD8,0,10,0,38,1,361.69999998807907,37,1,711.3000000119209,0,0,experiment,NA,NA,2,0.5,0.5,5,4,124,3,NA
fcp-trial,159,902384,0.0-134.0-0.0,voc_e2,12307,"[{""event"":""blur"",""trial"":0,""time"":0},{""event"":""focus"",""trial"":1,""time"":3365},{""event"":""fullscreenenter"",""trial"":1,""time"":3460}]",NA,NA,NA,NA,NA,5,#D89F1C,#3386FF,0,10,0,38,1,654.9000000357628,39,0,871.1000000238419,10,1,experiment,NA,NA,0,0.1,0.9,1,0,125,3,NA
fcp-trial,160,905039,0.0-135.0-0.0,voc_e2,12307,"[{""event"":""blur"",""trial"":0,""time"":0},{""event"":""focus"",""trial"":1,""time"":3365},{""event"":""fullscreenenter"",""trial"":1,""time"":3460}]",NA,NA,NA,NA,NA,3,#741CD8,#D8271C,0,0,1,38,1,441.89999997615814,37,1,703.8999999761581,0,1,experiment,NA,NA,2,0.5,0.5,4,5,126,3,NA
fcp-trial,161,907157,0.0-136.0-0.0,voc_e2,12307,"[{""event"":""blur"",""trial"":0,""time"":0},{""event"":""focus"",""trial"":1,""time"":3365},{""event"":""fullscreenenter"",""trial"":1,""time"":3460}]",NA,NA,NA,NA,NA,6,#741CD8,#D8271C,0,0,1,38,1,287.10000002384186,39,0,326.5,0,0,experiment,NA,NA,2,0.5,0.5,4,5,127,3,NA
fcp-trial,162,909702,0.0-137.0-0.0,voc_e2,12307,"[{""event"":""blur"",""trial"":0,""time"":0},{""event"":""focus"",""trial"":1,""time"":3365},{""event"":""fullscreenenter"",""trial"":1,""time"":3460}]",NA,NA,NA,NA,NA,5,#3386FF,#D89F1C,10,10,1,38,1,255.5,37,1,781.7000000476837,10,1,experiment,NA,NA,0,0.9,0.1,0,1,128,3,NA
fcp-trial,163,912726,0.0-138.0-0.0,voc_e2,12307,"[{""event"":""blur"",""trial"":0,""time"":0},{""event"":""focus"",""trial"":1,""time"":3365},{""event"":""fullscreenenter"",""trial"":1,""time"":3460}]",NA,NA,NA,NA,NA,6,#FA92F8,#1CD855,10,10,0,38,1,582.5,39,0,934.5,10,1,experiment,NA,NA,1,0.3,0.7,3,2,129,3,NA
fcp-trial,164,916550,0.0-139.0-0.0,voc_e2,12307,"[{""event"":""blur"",""trial"":0,""time"":0},{""event"":""focus"",""trial"":1,""time"":3365},{""event"":""fullscreenenter"",""trial"":1,""time"":3460}]",NA,NA,NA,NA,NA,4,#3386FF,#D89F1C,10,0,1,38,1,880.8000000119209,37,1,1429.5,10,1,experiment,NA,NA,0,0.9,0.1,0,1,130,3,NA
fcp-trial,165,922175,0.0-140.0-0.0,voc_e2,12307,"[{""event"":""blur"",""trial"":0,""time"":0},{""event"":""focus"",""trial"":1,""time"":3365},{""event"":""fullscreenenter"",""trial"":1,""time"":3460}]",NA,NA,NA,NA,NA,3,#741CD8,#D8271C,0,0,1,38,1,444.0999999642372,39,0,3671.800000011921,0,0,experiment,NA,NA,2,0.5,0.5,4,5,131,3,NA
fcp-trial,166,926559,0.0-141.0-0.0,voc_e2,12307,"[{""event"":""blur"",""trial"":0,""time"":0},{""event"":""focus"",""trial"":1,""time"":3365},{""event"":""fullscreenenter"",""trial"":1,""time"":3460}]",NA,NA,NA,NA,NA,1,#FA92F8,#1CD855,0,0,0,38,1,1216.2000000476837,39,0,1654.7999999523163,0,1,experiment,NA,NA,1,0.3,0.7,3,2,132,3,NA
fcp-trial,167,929120,0.0-142.0-0.0,voc_e2,12307,"[{""event"":""blur"",""trial"":0,""time"":0},{""event"":""focus"",""trial"":1,""time"":3365},{""event"":""fullscreenenter"",""trial"":1,""time"":3460}]",NA,NA,NA,NA,NA,2,#FA92F8,#1CD855,0,10,0,38,1,641.3000000119209,39,0,404.80000001192093,10,1,experiment,NA,NA,1,0.3,0.7,3,2,133,3,NA
fcp-trial,168,931583,0.0-143.0-0.0,voc_e2,12307,"[{""event"":""blur"",""trial"":0,""time"":0},{""event"":""focus"",""trial"":1,""time"":3365},{""event"":""fullscreenenter"",""trial"":1,""time"":3460}]",NA,NA,NA,NA,NA,1,#741CD8,#D8271C,10,10,1,38,1,461.69999998807907,39,0,495.5,10,0,experiment,NA,NA,2,0.5,0.5,4,5,134,3,NA
fcp-trial,169,934111,0.0-144.0-0.0,voc_e2,12307,"[{""event"":""blur"",""trial"":0,""time"":0},{""event"":""focus"",""trial"":1,""time"":3365},{""event"":""fullscreenenter"",""trial"":1,""time"":3460}]",NA,NA,NA,NA,NA,1,#D89F1C,#3386FF,0,10,0,38,1,314.69999998807907,37,1,703.9000000357628,0,0,experiment,NA,NA,0,0.1,0.9,1,0,135,3,NA
fcp-trial,170,936870,0.0-145.0-0.0,voc_e2,12307,"[{""event"":""blur"",""trial"":0,""time"":0},{""event"":""focus"",""trial"":1,""time"":3365},{""event"":""fullscreenenter"",""trial"":1,""time"":3460}]",NA,NA,NA,NA,NA,3,#3386FF,#D89F1C,10,10,1,38,1,365,37,1,887.5999999642372,10,1,experiment,NA,NA,0,0.9,0.1,0,1,136,4,NA
fcp-trial,171,939263,0.0-146.0-0.0,voc_e2,12307,"[{""event"":""blur"",""trial"":0,""time"":0},{""event"":""focus"",""trial"":1,""time"":3365},{""event"":""fullscreenenter"",""trial"":1,""time"":3460}]",NA,NA,NA,NA,NA,5,#1CD855,#FA92F8,10,0,1,38,1,397.30000001192093,37,1,487.39999997615814,10,1,experiment,NA,NA,1,0.7,0.3,2,3,137,4,NA
fcp-trial,172,942382,0.0-147.0-0.0,voc_e2,12307,"[{""event"":""blur"",""trial"":0,""time"":0},{""event"":""focus"",""trial"":1,""time"":3365},{""event"":""fullscreenenter"",""trial"":1,""time"":3460}]",NA,NA,NA,NA,NA,0,#D89F1C,#3386FF,0,10,0,38,1,330.4000000357628,39,0,1272.9000000357628,10,1,experiment,NA,NA,0,0.1,0.9,1,0,138,4,NA
fcp-trial,173,945766,0.0-148.0-0.0,voc_e2,12307,"[{""event"":""blur"",""trial"":0,""time"":0},{""event"":""focus"",""trial"":1,""time"":3365},{""event"":""fullscreenenter"",""trial"":1,""time"":3460}]",NA,NA,NA,NA,NA,5,#741CD8,#D8271C,10,10,1,38,1,38.89999997615814,39,0,1839.1000000238419,10,0,experiment,NA,NA,2,0.5,0.5,4,5,139,4,NA
fcp-trial,174,948407,0.0-149.0-0.0,voc_e2,12307,"[{""event"":""blur"",""trial"":0,""time"":0},{""event"":""focus"",""trial"":1,""time"":3365},{""event"":""fullscreenenter"",""trial"":1,""time"":3460}]",NA,NA,NA,NA,NA,6,#D89F1C,#3386FF,0,10,0,38,1,275.19999998807907,39,0,854,10,1,experiment,NA,NA,0,0.1,0.9,1,0,140,4,NA
fcp-trial,175,951278,0.0-150.0-0.0,voc_e2,12307,"[{""event"":""blur"",""trial"":0,""time"":0},{""event"":""focus"",""trial"":1,""time"":3365},{""event"":""fullscreenenter"",""trial"":1,""time"":3460}]",NA,NA,NA,NA,NA,4,#FA92F8,#1CD855,0,10,0,38,1,673.5,39,0,684.6999999880791,10,1,experiment,NA,NA,1,0.3,0.7,3,2,141,4,NA
fcp-trial,176,954958,0.0-151.0-0.0,voc_e2,12307,"[{""event"":""blur"",""trial"":0,""time"":0},{""event"":""focus"",""trial"":1,""time"":3365},{""event"":""fullscreenenter"",""trial"":1,""time"":3460}]",NA,NA,NA,NA,NA,0,#D8271C,#741CD8,10,0,0,38,1,1188.6000000238419,37,1,980.8999999761581,10,0,experiment,NA,NA,2,0.5,0.5,5,4,142,4,NA
fcp-trial,177,957205,0.0-152.0-0.0,voc_e2,12307,"[{""event"":""blur"",""trial"":0,""time"":0},{""event"":""focus"",""trial"":1,""time"":3365},{""event"":""fullscreenenter"",""trial"":1,""time"":3460}]",NA,NA,NA,NA,NA,0,#1CD855,#FA92F8,0,0,1,38,1,348.89999997615814,37,1,390.80000001192093,0,1,experiment,NA,NA,1,0.7,0.3,2,3,143,4,NA
fcp-trial,178,961623,0.0-153.0-0.0,voc_e2,12307,"[{""event"":""blur"",""trial"":0,""time"":0},{""event"":""focus"",""trial"":1,""time"":3365},{""event"":""fullscreenenter"",""trial"":1,""time"":3460}]",NA,NA,NA,NA,NA,2,#3386FF,#D89F1C,10,10,1,38,1,1696.5,37,1,1216.199999988079,10,1,experiment,NA,NA,0,0.9,0.1,0,1,144,4,NA
fcp-trial,179,964773,0.0-154.0-0.0,voc_e2,12307,"[{""event"":""blur"",""trial"":0,""time"":0},{""event"":""focus"",""trial"":1,""time"":3365},{""event"":""fullscreenenter"",""trial"":1,""time"":3460}]",NA,NA,NA,NA,NA,3,#FA92F8,#1CD855,0,10,0,38,1,1241.5,39,0,399.2000000476837,10,1,experiment,NA,NA,1,0.3,0.7,3,2,145,4,NA
fcp-trial,180,968989,0.0-155.0-0.0,voc_e2,12307,"[{""event"":""blur"",""trial"":0,""time"":0},{""event"":""focus"",""trial"":1,""time"":3365},{""event"":""fullscreenenter"",""trial"":1,""time"":3460}]",NA,NA,NA,NA,NA,4,#741CD8,#D8271C,10,0,1,38,1,1808.1000000238419,37,1,902.7000000476837,10,1,experiment,NA,NA,2,0.5,0.5,4,5,146,4,NA
fcp-trial,181,972054,0.0-156.0-0.0,voc_e2,12307,"[{""event"":""blur"",""trial"":0,""time"":0},{""event"":""focus"",""trial"":1,""time"":3365},{""event"":""fullscreenenter"",""trial"":1,""time"":3460}]",NA,NA,NA,NA,NA,2,#741CD8,#D8271C,0,10,1,38,1,539.1999999880791,37,1,1015.1999999880791,0,1,experiment,NA,NA,2,0.5,0.5,4,5,147,4,NA
fcp-trial,182,974269,0.0-157.0-0.0,voc_e2,12307,"[{""event"":""blur"",""trial"":0,""time"":0},{""event"":""focus"",""trial"":1,""time"":3365},{""event"":""fullscreenenter"",""trial"":1,""time"":3460}]",NA,NA,NA,NA,NA,5,#D8271C,#741CD8,10,10,0,38,1,79.39999997615814,37,1,623,10,0,experiment,NA,NA,2,0.5,0.5,5,4,148,4,NA
fcp-trial,183,976902,0.0-158.0-0.0,voc_e2,12307,"[{""event"":""blur"",""trial"":0,""time"":0},{""event"":""focus"",""trial"":1,""time"":3365},{""event"":""fullscreenenter"",""trial"":1,""time"":3460}]",NA,NA,NA,NA,NA,0,#D89F1C,#3386FF,0,10,0,38,1,337.5,39,0,788,10,1,experiment,NA,NA,0,0.1,0.9,1,0,149,4,NA
fcp-trial,184,979527,0.0-159.0-0.0,voc_e2,12307,"[{""event"":""blur"",""trial"":0,""time"":0},{""event"":""focus"",""trial"":1,""time"":3365},{""event"":""fullscreenenter"",""trial"":1,""time"":3460}]",NA,NA,NA,NA,NA,4,#741CD8,#D8271C,10,0,1,38,1,350.10000002384186,39,0,766.3000000119209,0,0,experiment,NA,NA,2,0.5,0.5,4,5,150,4,NA
fcp-trial,185,981870,0.0-160.0-0.0,voc_e2,12307,"[{""event"":""blur"",""trial"":0,""time"":0},{""event"":""focus"",""trial"":1,""time"":3365},{""event"":""fullscreenenter"",""trial"":1,""time"":3460}]",NA,NA,NA,NA,NA,5,#1CD855,#FA92F8,10,10,1,38,1,298,37,1,534.6999999880791,10,1,experiment,NA,NA,1,0.7,0.3,2,3,151,4,NA
fcp-trial,186,984269,0.0-161.0-0.0,voc_e2,12307,"[{""event"":""blur"",""trial"":0,""time"":0},{""event"":""focus"",""trial"":1,""time"":3365},{""event"":""fullscreenenter"",""trial"":1,""time"":3460}]",NA,NA,NA,NA,NA,3,#3386FF,#D89F1C,10,0,1,38,1,453.5,37,1,439,10,1,experiment,NA,NA,0,0.9,0.1,0,1,152,4,NA
fcp-trial,187,987518,0.0-162.0-0.0,voc_e2,12307,"[{""event"":""blur"",""trial"":0,""time"":0},{""event"":""focus"",""trial"":1,""time"":3365},{""event"":""fullscreenenter"",""trial"":1,""time"":3460}]",NA,NA,NA,NA,NA,1,#1CD855,#FA92F8,10,0,1,38,1,270.5,37,1,1471.1000000238419,10,1,experiment,NA,NA,1,0.7,0.3,2,3,153,4,NA
fcp-trial,188,990391,0.0-163.0-0.0,voc_e2,12307,"[{""event"":""blur"",""trial"":0,""time"":0},{""event"":""focus"",""trial"":1,""time"":3365},{""event"":""fullscreenenter"",""trial"":1,""time"":3460}]",NA,NA,NA,NA,NA,0,#D8271C,#741CD8,0,0,0,38,1,566.2000000476837,37,1,797.8000000119209,0,0,experiment,NA,NA,2,0.5,0.5,5,4,154,4,NA
fcp-trial,189,992949,0.0-164.0-0.0,voc_e2,12307,"[{""event"":""blur"",""trial"":0,""time"":0},{""event"":""focus"",""trial"":1,""time"":3365},{""event"":""fullscreenenter"",""trial"":1,""time"":3460}]",NA,NA,NA,NA,NA,2,#D89F1C,#3386FF,0,10,0,38,1,349,39,0,703.1000000238419,10,1,experiment,NA,NA,0,0.1,0.9,1,0,155,4,NA
fcp-trial,190,995398,0.0-165.0-0.0,voc_e2,12307,"[{""event"":""blur"",""trial"":0,""time"":0},{""event"":""focus"",""trial"":1,""time"":3365},{""event"":""fullscreenenter"",""trial"":1,""time"":3460}]",NA,NA,NA,NA,NA,0,#FA92F8,#1CD855,10,10,0,38,1,382.60000002384186,37,1,558.7999999523163,10,0,experiment,NA,NA,1,0.3,0.7,3,2,156,4,NA
fcp-trial,191,997798,0.0-166.0-0.0,voc_e2,12307,"[{""event"":""blur"",""trial"":0,""time"":0},{""event"":""focus"",""trial"":1,""time"":3365},{""event"":""fullscreenenter"",""trial"":1,""time"":3460}]",NA,NA,NA,NA,NA,6,#FA92F8,#1CD855,10,10,0,38,1,366.5999999642372,39,0,526.8999999761581,10,1,experiment,NA,NA,1,0.3,0.7,3,2,157,4,NA
fcp-trial,192,1000655,0.0-167.0-0.0,voc_e2,12307,"[{""event"":""blur"",""trial"":0,""time"":0},{""event"":""focus"",""trial"":1,""time"":3365},{""event"":""fullscreenenter"",""trial"":1,""time"":3460}]",NA,NA,NA,NA,NA,6,#D8271C,#741CD8,10,10,0,38,1,341.80000001192093,37,1,1008.1000000238419,10,0,experiment,NA,NA,2,0.5,0.5,5,4,158,4,NA
fcp-trial,193,1003126,0.0-168.0-0.0,voc_e2,12307,"[{""event"":""blur"",""trial"":0,""time"":0},{""event"":""focus"",""trial"":1,""time"":3365},{""event"":""fullscreenenter"",""trial"":1,""time"":3460}]",NA,NA,NA,NA,NA,1,#3386FF,#D89F1C,10,0,1,38,1,288.80000001192093,37,1,670.3000000119209,10,1,experiment,NA,NA,0,0.9,0.1,0,1,159,4,NA
fcp-trial,194,1005608,0.0-169.0-0.0,voc_e2,12307,"[{""event"":""blur"",""trial"":0,""time"":0},{""event"":""focus"",""trial"":1,""time"":3365},{""event"":""fullscreenenter"",""trial"":1,""time"":3460}]",NA,NA,NA,NA,NA,4,#FA92F8,#1CD855,0,0,0,38,1,331.19999998807907,39,0,639.1000000238419,0,1,experiment,NA,NA,1,0.3,0.7,3,2,160,4,NA
fcp-trial,195,1008301,0.0-170.0-0.0,voc_e2,12307,"[{""event"":""blur"",""trial"":0,""time"":0},{""event"":""focus"",""trial"":1,""time"":3365},{""event"":""fullscreenenter"",""trial"":1,""time"":3460}]",NA,NA,NA,NA,NA,3,#741CD8,#D8271C,10,0,1,38,1,474.2000000476837,39,0,710.1999999880791,0,0,experiment,NA,NA,2,0.5,0.5,4,5,161,4,NA
fcp-trial,196,1010446,0.0-171.0-0.0,voc_e2,12307,"[{""event"":""blur"",""trial"":0,""time"":0},{""event"":""focus"",""trial"":1,""time"":3365},{""event"":""fullscreenenter"",""trial"":1,""time"":3460}]",NA,NA,NA,NA,NA,4,#3386FF,#D89F1C,0,0,1,38,1,323.69999998807907,37,1,310.60000002384186,0,1,experiment,NA,NA,0,0.9,0.1,0,1,162,4,NA
fcp-trial,197,1013142,0.0-172.0-0.0,voc_e2,12307,"[{""event"":""blur"",""trial"":0,""time"":0},{""event"":""focus"",""trial"":1,""time"":3365},{""event"":""fullscreenenter"",""trial"":1,""time"":3460}]",NA,NA,NA,NA,NA,5,#3386FF,#D89F1C,0,0,1,38,1,398.0999999642372,37,1,790.8000000119209,0,1,experiment,NA,NA,0,0.9,0.1,0,1,163,4,NA
fcp-trial,198,1015470,0.0-173.0-0.0,voc_e2,12307,"[{""event"":""blur"",""trial"":0,""time"":0},{""event"":""focus"",""trial"":1,""time"":3365},{""event"":""fullscreenenter"",""trial"":1,""time"":3460}]",NA,NA,NA,NA,NA,1,#D8271C,#741CD8,0,0,0,38,1,315.69999998807907,39,0,502,0,1,experiment,NA,NA,2,0.5,0.5,5,4,164,4,NA
fcp-trial,199,1017735,0.0-174.0-0.0,voc_e2,12307,"[{""event"":""blur"",""trial"":0,""time"":0},{""event"":""focus"",""trial"":1,""time"":3365},{""event"":""fullscreenenter"",""trial"":1,""time"":3460}]",NA,NA,NA,NA,NA,2,#FA92F8,#1CD855,10,10,0,38,1,48.69999998807907,37,1,703.1000000238419,10,0,experiment,NA,NA,1,0.3,0.7,3,2,165,4,NA
fcp-trial,200,1019951,0.0-175.0-0.0,voc_e2,12307,"[{""event"":""blur"",""trial"":0,""time"":0},{""event"":""focus"",""trial"":1,""time"":3365},{""event"":""fullscreenenter"",""trial"":1,""time"":3460}]",NA,NA,NA,NA,NA,6,#3386FF,#D89F1C,10,0,1,38,1,345,37,1,356.89999997615814,10,1,experiment,NA,NA,0,0.9,0.1,0,1,166,4,NA
fcp-trial,201,1022087,0.0-176.0-0.0,voc_e2,12307,"[{""event"":""blur"",""trial"":0,""time"":0},{""event"":""focus"",""trial"":1,""time"":3365},{""event"":""fullscreenenter"",""trial"":1,""time"":3460}]",NA,NA,NA,NA,NA,3,#1CD855,#FA92F8,0,0,1,38,1,314.80000001192093,37,1,311,0,1,experiment,NA,NA,1,0.7,0.3,2,3,167,4,NA
fcp-trial,202,1025358,0.0-177.0-0.0,voc_e2,12307,"[{""event"":""blur"",""trial"":0,""time"":0},{""event"":""focus"",""trial"":1,""time"":3365},{""event"":""fullscreenenter"",""trial"":1,""time"":3460}]",NA,NA,NA,NA,NA,2,#D8271C,#741CD8,10,10,0,38,1,332.19999998807907,39,0,1431.300000011921,10,1,experiment,NA,NA,2,0.5,0.5,5,4,168,4,NA
fcp-trial,203,1029214,0.0-178.0-0.0,voc_e2,12307,"[{""event"":""blur"",""trial"":0,""time"":0},{""event"":""focus"",""trial"":1,""time"":3365},{""event"":""fullscreenenter"",""trial"":1,""time"":3460}]",NA,NA,NA,NA,NA,6,#3386FF,#D89F1C,10,0,1,38,1,429.7999999523163,37,1,1918.8999999761581,10,1,experiment,NA,NA,0,0.9,0.1,0,1,169,4,NA
fcp-trial,204,1033240,0.0-179.0-0.0,voc_e2,12307,"[{""event"":""blur"",""trial"":0,""time"":0},{""event"":""focus"",""trial"":1,""time"":3365},{""event"":""fullscreenenter"",""trial"":1,""time"":3460}]",NA,NA,NA,NA,NA,0,#FA92F8,#1CD855,0,10,0,38,1,590.1999999880791,39,0,1927.5,10,1,experiment,NA,NA,1,0.3,0.7,3,2,170,4,NA
fcp-trial,205,1036070,0.0-180.0-0.0,voc_e2,12307,"[{""event"":""blur"",""trial"":0,""time"":0},{""event"":""focus"",""trial"":1,""time"":3365},{""event"":""fullscreenenter"",""trial"":1,""time"":3460}]",NA,NA,NA,NA,NA,2,#741CD8,#D8271C,0,10,1,38,1,442.4000000357628,39,0,878.1999999880791,10,0,experiment,NA,NA,2,0.5,0.5,4,5,171,4,NA
fcp-trial,206,1038206,0.0-181.0-0.0,voc_e2,12307,"[{""event"":""blur"",""trial"":0,""time"":0},{""event"":""focus"",""trial"":1,""time"":3365},{""event"":""fullscreenenter"",""trial"":1,""time"":3460}]",NA,NA,NA,NA,NA,3,#D89F1C,#3386FF,0,0,0,38,1,333.30000001192093,37,1,295.60000002384186,0,0,experiment,NA,NA,0,0.1,0.9,1,0,172,4,NA
fcp-trial,207,1040543,0.0-182.0-0.0,voc_e2,12307,"[{""event"":""blur"",""trial"":0,""time"":0},{""event"":""focus"",""trial"":1,""time"":3365},{""event"":""fullscreenenter"",""trial"":1,""time"":3460}]",NA,NA,NA,NA,NA,2,#D89F1C,#3386FF,0,10,0,38,1,366.9000000357628,39,0,462.9000000357628,10,1,experiment,NA,NA,0,0.1,0.9,1,0,173,4,NA
fcp-trial,208,1043670,0.0-183.0-0.0,voc_e2,12307,"[{""event"":""blur"",""trial"":0,""time"":0},{""event"":""focus"",""trial"":1,""time"":3365},{""event"":""fullscreenenter"",""trial"":1,""time"":3460}]",NA,NA,NA,NA,NA,4,#741CD8,#D8271C,0,0,1,38,1,309.80000001192093,39,0,1311,0,0,experiment,NA,NA,2,0.5,0.5,4,5,174,4,NA
fcp-trial,209,1047335,0.0-184.0-0.0,voc_e2,12307,"[{""event"":""blur"",""trial"":0,""time"":0},{""event"":""focus"",""trial"":1,""time"":3365},{""event"":""fullscreenenter"",""trial"":1,""time"":3460}]",NA,NA,NA,NA,NA,1,#1CD855,#FA92F8,10,0,1,38,1,796.5,37,1,1358.699999988079,10,1,experiment,NA,NA,1,0.7,0.3,2,3,175,4,NA
fcp-trial,210,1049694,0.0-185.0-0.0,voc_e2,12307,"[{""event"":""blur"",""trial"":0,""time"":0},{""event"":""focus"",""trial"":1,""time"":3365},{""event"":""fullscreenenter"",""trial"":1,""time"":3460}]",NA,NA,NA,NA,NA,0,#D89F1C,#3386FF,0,10,0,38,1,363.60000002384186,39,0,486.89999997615814,10,1,experiment,NA,NA,0,0.1,0.9,1,0,176,4,NA
fcp-trial,211,1052110,0.0-186.0-0.0,voc_e2,12307,"[{""event"":""blur"",""trial"":0,""time"":0},{""event"":""focus"",""trial"":1,""time"":3365},{""event"":""fullscreenenter"",""trial"":1,""time"":3460}]",NA,NA,NA,NA,NA,2,#1CD855,#FA92F8,0,10,1,38,1,486.4000000357628,37,1,422.80000001192093,0,1,experiment,NA,NA,1,0.7,0.3,2,3,177,4,NA
fcp-trial,212,1054558,0.0-187.0-0.0,voc_e2,12307,"[{""event"":""blur"",""trial"":0,""time"":0},{""event"":""focus"",""trial"":1,""time"":3365},{""event"":""fullscreenenter"",""trial"":1,""time"":3460}]",NA,NA,NA,NA,NA,6,#1CD855,#FA92F8,0,0,1,38,1,431.89999997615814,37,1,510.69999998807907,0,1,experiment,NA,NA,1,0.7,0.3,2,3,178,4,NA
fcp-trial,213,1057102,0.0-188.0-0.0,voc_e2,12307,"[{""event"":""blur"",""trial"":0,""time"":0},{""event"":""focus"",""trial"":1,""time"":3365},{""event"":""fullscreenenter"",""trial"":1,""time"":3460}]",NA,NA,NA,NA,NA,3,#D8271C,#741CD8,0,10,0,38,1,556.3000000119209,37,1,478.30000001192093,0,0,experiment,NA,NA,2,0.5,0.5,5,4,179,4,NA
fcp-trial,214,1059615,0.0-189.0-0.0,voc_e2,12307,"[{""event"":""blur"",""trial"":0,""time"":0},{""event"":""focus"",""trial"":1,""time"":3365},{""event"":""fullscreenenter"",""trial"":1,""time"":3460}]",NA,NA,NA,NA,NA,4,#D89F1C,#3386FF,10,0,0,38,1,317.0999999642372,39,0,687.5,0,1,experiment,NA,NA,0,0.1,0.9,1,0,180,4,NA
fcp-trial,215,1061895,0.0-190.0-0.0,voc_e2,12307,"[{""event"":""blur"",""trial"":0,""time"":0},{""event"":""focus"",""trial"":1,""time"":3365},{""event"":""fullscreenenter"",""trial"":1,""time"":3460}]",NA,NA,NA,NA,NA,5,#1CD855,#FA92F8,10,0,1,38,1,306.30000001192093,37,1,462.89999997615814,10,1,experiment,NA,NA,1,0.7,0.3,2,3,181,5,NA
fcp-trial,216,1064638,0.0-191.0-0.0,voc_e2,12307,"[{""event"":""blur"",""trial"":0,""time"":0},{""event"":""focus"",""trial"":1,""time"":3365},{""event"":""fullscreenenter"",""trial"":1,""time"":3460}]",NA,NA,NA,NA,NA,0,#741CD8,#D8271C,10,0,1,38,1,410.4000000357628,37,1,822.3999999761581,10,1,experiment,NA,NA,2,0.5,0.5,4,5,182,5,NA
fcp-trial,217,1066872,0.0-192.0-0.0,voc_e2,12307,"[{""event"":""blur"",""trial"":0,""time"":0},{""event"":""focus"",""trial"":1,""time"":3365},{""event"":""fullscreenenter"",""trial"":1,""time"":3460}]",NA,NA,NA,NA,NA,1,#3386FF,#D89F1C,10,0,1,38,1,410.9000000357628,39,0,311.80000001192093,0,0,experiment,NA,NA,0,0.9,0.1,0,1,183,5,NA
fcp-trial,218,1069671,0.0-193.0-0.0,voc_e2,12307,"[{""event"":""blur"",""trial"":0,""time"":0},{""event"":""focus"",""trial"":1,""time"":3365},{""event"":""fullscreenenter"",""trial"":1,""time"":3460}]",NA,NA,NA,NA,NA,6,#741CD8,#D8271C,10,0,1,38,1,585.6999999880791,37,1,701.8000000119209,10,1,experiment,NA,NA,2,0.5,0.5,4,5,184,5,NA
fcp-trial,219,1072071,0.0-194.0-0.0,voc_e2,12307,"[{""event"":""blur"",""trial"":0,""time"":0},{""event"":""focus"",""trial"":1,""time"":3365},{""event"":""fullscreenenter"",""trial"":1,""time"":3460}]",NA,NA,NA,NA,NA,4,#1CD855,#FA92F8,10,0,1,38,1,363.69999998807907,39,0,527.5,0,0,experiment,NA,NA,1,0.7,0.3,2,3,185,5,NA
fcp-trial,220,1074119,0.0-195.0-0.0,voc_e2,12307,"[{""event"":""blur"",""trial"":0,""time"":0},{""event"":""focus"",""trial"":1,""time"":3365},{""event"":""fullscreenenter"",""trial"":1,""time"":3460}]",NA,NA,NA,NA,NA,3,#1CD855,#FA92F8,10,0,1,38,1,267.89999997615814,37,1,272,10,1,experiment,NA,NA,1,0.7,0.3,2,3,186,5,NA
fcp-trial,221,1076862,0.0-196.0-0.0,voc_e2,12307,"[{""event"":""blur"",""trial"":0,""time"":0},{""event"":""focus"",""trial"":1,""time"":3365},{""event"":""fullscreenenter"",""trial"":1,""time"":3460}]",NA,NA,NA,NA,NA,5,#3386FF,#D89F1C,10,0,1,38,1,123.39999997615814,37,1,1111.5,10,1,experiment,NA,NA,0,0.9,0.1,0,1,187,5,NA
fcp-trial,222,1078998,0.0-197.0-0.0,voc_e2,12307,"[{""event"":""blur"",""trial"":0,""time"":0},{""event"":""focus"",""trial"":1,""time"":3365},{""event"":""fullscreenenter"",""trial"":1,""time"":3460}]",NA,NA,NA,NA,NA,1,#D8271C,#741CD8,0,10,0,38,1,317.69999998807907,39,0,310.19999998807907,10,1,experiment,NA,NA,2,0.5,0.5,5,4,188,5,NA
fcp-trial,223,1081511,0.0-198.0-0.0,voc_e2,12307,"[{""event"":""blur"",""trial"":0,""time"":0},{""event"":""focus"",""trial"":1,""time"":3365},{""event"":""fullscreenenter"",""trial"":1,""time"":3460}]",NA,NA,NA,NA,NA,5,#D8271C,#741CD8,10,10,0,38,1,349,37,1,655.6000000238419,10,0,experiment,NA,NA,2,0.5,0.5,5,4,189,5,NA
fcp-trial,224,1083854,0.0-199.0-0.0,voc_e2,12307,"[{""event"":""blur"",""trial"":0,""time"":0},{""event"":""focus"",""trial"":1,""time"":3365},{""event"":""fullscreenenter"",""trial"":1,""time"":3460}]",NA,NA,NA,NA,NA,0,#3386FF,#D89F1C,10,0,1,38,1,413.2000000476837,37,1,423.0999999642372,10,1,experiment,NA,NA,0,0.9,0.1,0,1,190,5,NA
fcp-trial,225,1086718,0.0-200.0-0.0,voc_e2,12307,"[{""event"":""blur"",""trial"":0,""time"":0},{""event"":""focus"",""trial"":1,""time"":3365},{""event"":""fullscreenenter"",""trial"":1,""time"":3460}]",NA,NA,NA,NA,NA,0,#D8271C,#741CD8,10,0,0,38,1,208,37,1,1143.199999988079,10,0,experiment,NA,NA,2,0.5,0.5,5,4,191,5,NA
fcp-trial,226,1089630,0.0-201.0-0.0,voc_e2,12307,"[{""event"":""blur"",""trial"":0,""time"":0},{""event"":""focus"",""trial"":1,""time"":3365},{""event"":""fullscreenenter"",""trial"":1,""time"":3460}]",NA,NA,NA,NA,NA,6,#FA92F8,#1CD855,0,10,0,38,1,600.1000000238419,39,0,799.3000000119209,10,1,experiment,NA,NA,1,0.3,0.7,3,2,192,5,NA
fcp-trial,227,1092486,0.0-202.0-0.0,voc_e2,12307,"[{""event"":""blur"",""trial"":0,""time"":0},{""event"":""focus"",""trial"":1,""time"":3365},{""event"":""fullscreenenter"",""trial"":1,""time"":3460}]",NA,NA,NA,NA,NA,4,#D89F1C,#3386FF,0,10,0,38,1,515.2999999523163,39,0,830.8000000119209,10,1,experiment,NA,NA,0,0.1,0.9,1,0,193,5,NA
fcp-trial,228,1096198,0.0-203.0-0.0,voc_e2,12307,"[{""event"":""blur"",""trial"":0,""time"":0},{""event"":""focus"",""trial"":1,""time"":3365},{""event"":""fullscreenenter"",""trial"":1,""time"":3460}]",NA,NA,NA,NA,NA,1,#D8271C,#741CD8,10,10,0,38,1,561.9000000357628,37,1,1639.300000011921,10,0,experiment,NA,NA,2,0.5,0.5,5,4,194,5,NA
fcp-trial,229,1100190,0.0-204.0-0.0,voc_e2,12307,"[{""event"":""blur"",""trial"":0,""time"":0},{""event"":""focus"",""trial"":1,""time"":3365},{""event"":""fullscreenenter"",""trial"":1,""time"":3460}]",NA,NA,NA,NA,NA,4,#1CD855,#FA92F8,10,0,1,38,1,592.5,37,1,1885.800000011921,10,1,experiment,NA,NA,1,0.7,0.3,2,3,195,5,NA
fcp-trial,230,1102581,0.0-205.0-0.0,voc_e2,12307,"[{""event"":""blur"",""trial"":0,""time"":0},{""event"":""focus"",""trial"":1,""time"":3365},{""event"":""fullscreenenter"",""trial"":1,""time"":3460}]",NA,NA,NA,NA,NA,5,#D89F1C,#3386FF,0,10,0,38,1,523,37,1,357.60000002384186,0,0,experiment,NA,NA,0,0.1,0.9,1,0,196,5,NA
fcp-trial,231,1105174,0.0-206.0-0.0,voc_e2,12307,"[{""event"":""blur"",""trial"":0,""time"":0},{""event"":""focus"",""trial"":1,""time"":3365},{""event"":""fullscreenenter"",""trial"":1,""time"":3460}]",NA,NA,NA,NA,NA,1,#3386FF,#D89F1C,10,0,1,38,1,642.0999999642372,37,1,436.60000002384186,10,1,experiment,NA,NA,0,0.9,0.1,0,1,197,5,NA
fcp-trial,232,1108292,0.0-207.0-0.0,voc_e2,12307,"[{""event"":""blur"",""trial"":0,""time"":0},{""event"":""focus"",""trial"":1,""time"":3365},{""event"":""fullscreenenter"",""trial"":1,""time"":3460}]",NA,NA,NA,NA,NA,5,#741CD8,#D8271C,10,10,1,38,1,642.2000000476837,39,0,966.4000000357628,10,0,experiment,NA,NA,2,0.5,0.5,4,5,198,5,NA
fcp-trial,233,1111461,0.0-208.0-0.0,voc_e2,12307,"[{""event"":""blur"",""trial"":0,""time"":0},{""event"":""focus"",""trial"":1,""time"":3365},{""event"":""fullscreenenter"",""trial"":1,""time"":3460}]",NA,NA,NA,NA,NA,2,#D89F1C,#3386FF,0,10,0,38,1,744.5999999642372,39,0,918.3000000119209,10,1,experiment,NA,NA,0,0.1,0.9,1,0,199,5,NA
fcp-trial,234,1113973,0.0-209.0-0.0,voc_e2,12307,"[{""event"":""blur"",""trial"":0,""time"":0},{""event"":""focus"",""trial"":1,""time"":3365},{""event"":""fullscreenenter"",""trial"":1,""time"":3460}]",NA,NA,NA,NA,NA,2,#1CD855,#FA92F8,0,0,1,38,1,429.39999997615814,37,1,573.6999999880791,0,1,experiment,NA,NA,1,0.7,0.3,2,3,200,5,NA
fcp-trial,235,1116286,0.0-210.0-0.0,voc_e2,12307,"[{""event"":""blur"",""trial"":0,""time"":0},{""event"":""focus"",""trial"":1,""time"":3365},{""event"":""fullscreenenter"",""trial"":1,""time"":3460}]",NA,NA,NA,NA,NA,6,#D8271C,#741CD8,0,10,0,38,1,364.10000002384186,39,0,438.5,10,1,experiment,NA,NA,2,0.5,0.5,5,4,201,5,NA
fcp-trial,236,1118485,0.0-211.0-0.0,voc_e2,12307,"[{""event"":""blur"",""trial"":0,""time"":0},{""event"":""focus"",""trial"":1,""time"":3365},{""event"":""fullscreenenter"",""trial"":1,""time"":3460}]",NA,NA,NA,NA,NA,1,#1CD855,#FA92F8,10,10,1,38,1,346.10000002384186,37,1,335.60000002384186,10,1,experiment,NA,NA,1,0.7,0.3,2,3,202,5,NA
fcp-trial,237,1120949,0.0-212.0-0.0,voc_e2,12307,"[{""event"":""blur"",""trial"":0,""time"":0},{""event"":""focus"",""trial"":1,""time"":3365},{""event"":""fullscreenenter"",""trial"":1,""time"":3460}]",NA,NA,NA,NA,NA,3,#D89F1C,#3386FF,0,10,0,38,1,379.2000000476837,37,1,573.7000000476837,0,0,experiment,NA,NA,0,0.1,0.9,1,0,203,5,NA
fcp-trial,238,1123709,0.0-213.0-0.0,voc_e2,12307,"[{""event"":""blur"",""trial"":0,""time"":0},{""event"":""focus"",""trial"":1,""time"":3365},{""event"":""fullscreenenter"",""trial"":1,""time"":3460}]",NA,NA,NA,NA,NA,2,#741CD8,#D8271C,0,10,1,38,1,576.6000000238419,39,0,670.8000000119209,10,0,experiment,NA,NA,2,0.5,0.5,4,5,204,5,NA
fcp-trial,239,1126037,0.0-214.0-0.0,voc_e2,12307,"[{""event"":""blur"",""trial"":0,""time"":0},{""event"":""focus"",""trial"":1,""time"":3365},{""event"":""fullscreenenter"",""trial"":1,""time"":3460}]",NA,NA,NA,NA,NA,5,#FA92F8,#1CD855,0,10,0,38,1,478,39,0,343,10,1,experiment,NA,NA,1,0.3,0.7,3,2,205,5,NA
fcp-trial,240,1129189,0.0-215.0-0.0,voc_e2,12307,"[{""event"":""blur"",""trial"":0,""time"":0},{""event"":""focus"",""trial"":1,""time"":3365},{""event"":""fullscreenenter"",""trial"":1,""time"":3460}]",NA,NA,NA,NA,NA,6,#D89F1C,#3386FF,0,10,0,38,1,550.3999999761581,37,1,1095.5,0,0,experiment,NA,NA,0,0.1,0.9,1,0,206,5,NA
fcp-trial,241,1131685,0.0-216.0-0.0,voc_e2,12307,"[{""event"":""blur"",""trial"":0,""time"":0},{""event"":""focus"",""trial"":1,""time"":3365},{""event"":""fullscreenenter"",""trial"":1,""time"":3460}]",NA,NA,NA,NA,NA,4,#741CD8,#D8271C,10,0,1,38,1,346.89999997615814,39,0,639.3000000119209,0,0,experiment,NA,NA,2,0.5,0.5,4,5,207,5,NA
fcp-trial,242,1134167,0.0-217.0-0.0,voc_e2,12307,"[{""event"":""blur"",""trial"":0,""time"":0},{""event"":""focus"",""trial"":1,""time"":3365},{""event"":""fullscreenenter"",""trial"":1,""time"":3460}]",NA,NA,NA,NA,NA,3,#1CD855,#FA92F8,10,0,1,38,1,509.5999999642372,37,1,464.80000001192093,10,1,experiment,NA,NA,1,0.7,0.3,2,3,208,5,NA
fcp-trial,243,1136901,0.0-218.0-0.0,voc_e2,12307,"[{""event"":""blur"",""trial"":0,""time"":0},{""event"":""focus"",""trial"":1,""time"":3365},{""event"":""fullscreenenter"",""trial"":1,""time"":3460}]",NA,NA,NA,NA,NA,3,#D8271C,#741CD8,0,0,0,38,1,393.30000001192093,39,0,830.8999999761581,0,1,experiment,NA,NA,2,0.5,0.5,5,4,209,5,NA
fcp-trial,244,1138941,0.0-219.0-0.0,voc_e2,12307,"[{""event"":""blur"",""trial"":0,""time"":0},{""event"":""focus"",""trial"":1,""time"":3365},{""event"":""fullscreenenter"",""trial"":1,""time"":3460}]",NA,NA,NA,NA,NA,0,#1CD855,#FA92F8,0,0,1,38,1,38,37,1,495.2999999523163,0,1,experiment,NA,NA,1,0.7,0.3,2,3,210,5,NA
audio-instructions,245,1327391,0.0-220.0,voc_e2,12307,"[{""event"":""blur"",""trial"":0,""time"":0},{""event"":""focus"",""trial"":1,""time"":3365},{""event"":""fullscreenenter"",""trial"":1,""time"":3460}]",NA,183437.19999998808,static/audio/pause.wav,NA,0,NA,NA,NA,NA,NA,NA,NA,NA,NA,NA,NA,NA,NA,NA,NA,NA,NA,NA,NA,NA,NA,NA,NA,NA,NA
fcp-trial,246,1330500,0.0-221.0-0.0,voc_e2,12307,"[{""event"":""blur"",""trial"":0,""time"":0},{""event"":""focus"",""trial"":1,""time"":3365},{""event"":""fullscreenenter"",""trial"":1,""time"":3460}]",NA,NA,NA,NA,NA,4,#1CD855,#FA92F8,10,10,1,38,1,1197,37,1,406.89999997615814,10,1,experiment,NA,NA,1,0.7,0.3,2,3,211,5,NA
fcp-trial,247,1333981,0.0-222.0-0.0,voc_e2,12307,"[{""event"":""blur"",""trial"":0,""time"":0},{""event"":""focus"",""trial"":1,""time"":3365},{""event"":""fullscreenenter"",""trial"":1,""time"":3460}]",NA,NA,NA,NA,NA,6,#1CD855,#FA92F8,0,0,1,38,1,1515.199999988079,37,1,454.5,0,1,experiment,NA,NA,1,0.7,0.3,2,3,212,5,NA
fcp-trial,248,1338989,0.0-223.0-0.0,voc_e2,12307,"[{""event"":""blur"",""trial"":0,""time"":0},{""event"":""focus"",""trial"":1,""time"":3365},{""event"":""fullscreenenter"",""trial"":1,""time"":3460}]",NA,NA,NA,NA,NA,2,#D89F1C,#3386FF,0,10,0,38,1,3094,39,0,407.5999999642372,10,1,experiment,NA,NA,0,0.1,0.9,1,0,213,5,NA
fcp-trial,249,1341301,0.0-224.0-0.0,voc_e2,12307,"[{""event"":""blur"",""trial"":0,""time"":0},{""event"":""focus"",""trial"":1,""time"":3365},{""event"":""fullscreenenter"",""trial"":1,""time"":3460}]",NA,NA,NA,NA,NA,6,#D89F1C,#3386FF,0,10,0,38,1,317.7000000476837,39,0,487.5999999642372,10,1,experiment,NA,NA,0,0.1,0.9,1,0,214,5,NA
fcp-trial,250,1343565,0.0-225.0-0.0,voc_e2,12307,"[{""event"":""blur"",""trial"":0,""time"":0},{""event"":""focus"",""trial"":1,""time"":3365},{""event"":""fullscreenenter"",""trial"":1,""time"":3460}]",NA,NA,NA,NA,NA,6,#D8271C,#741CD8,10,0,0,38,1,238,37,1,519.2000000476837,10,0,experiment,NA,NA,2,0.5,0.5,5,4,215,5,NA
fcp-trial,251,1346110,0.0-226.0-0.0,voc_e2,12307,"[{""event"":""blur"",""trial"":0,""time"":0},{""event"":""focus"",""trial"":1,""time"":3365},{""event"":""fullscreenenter"",""trial"":1,""time"":3460}]",NA,NA,NA,NA,NA,1,#3386FF,#D89F1C,10,10,1,38,1,646.5,37,1,391.10000002384186,10,1,experiment,NA,NA,0,0.9,0.1,0,1,216,5,NA
fcp-trial,252,1348310,0.0-227.0-0.0,voc_e2,12307,"[{""event"":""blur"",""trial"":0,""time"":0},{""event"":""focus"",""trial"":1,""time"":3365},{""event"":""fullscreenenter"",""trial"":1,""time"":3460}]",NA,NA,NA,NA,NA,2,#FA92F8,#1CD855,0,10,0,38,1,361.89999997615814,39,0,327.10000002384186,10,1,experiment,NA,NA,1,0.3,0.7,3,2,217,5,NA
fcp-trial,253,1350756,0.0-228.0-0.0,voc_e2,12307,"[{""event"":""blur"",""trial"":0,""time"":0},{""event"":""focus"",""trial"":1,""time"":3365},{""event"":""fullscreenenter"",""trial"":1,""time"":3460}]",NA,NA,NA,NA,NA,0,#741CD8,#D8271C,10,10,1,38,1,20.69999998807907,39,0,917.6000000238419,10,0,experiment,NA,NA,2,0.5,0.5,4,5,218,5,NA
fcp-trial,254,1353549,0.0-229.0-0.0,voc_e2,12307,"[{""event"":""blur"",""trial"":0,""time"":0},{""event"":""focus"",""trial"":1,""time"":3365},{""event"":""fullscreenenter"",""trial"":1,""time"":3460}]",NA,NA,NA,NA,NA,4,#741CD8,#D8271C,0,10,1,38,1,366.19999998807907,39,0,919.3999999761581,10,0,experiment,NA,NA,2,0.5,0.5,4,5,219,5,NA
fcp-trial,255,1356405,0.0-230.0-0.0,voc_e2,12307,"[{""event"":""blur"",""trial"":0,""time"":0},{""event"":""focus"",""trial"":1,""time"":3365},{""event"":""fullscreenenter"",""trial"":1,""time"":3460}]",NA,NA,NA,NA,NA,5,#1CD855,#FA92F8,0,0,1,38,1,893.9000000357628,37,1,455.2999999523163,0,1,experiment,NA,NA,1,0.7,0.3,2,3,220,5,NA
fcp-trial,256,1359213,0.0-231.0-0.0,voc_e2,12307,"[{""event"":""blur"",""trial"":0,""time"":0},{""event"":""focus"",""trial"":1,""time"":3365},{""event"":""fullscreenenter"",""trial"":1,""time"":3460}]",NA,NA,NA,NA,NA,3,#3386FF,#D89F1C,0,10,1,38,1,690,37,1,606.3999999761581,0,1,experiment,NA,NA,0,0.9,0.1,0,1,221,5,NA
fcp-trial,257,1365725,0.0-232.0-0.0,voc_e2,12307,"[{""event"":""blur"",""trial"":0,""time"":0},{""event"":""focus"",""trial"":1,""time"":3365},{""event"":""fullscreenenter"",""trial"":1,""time"":3460}]",NA,NA,NA,NA,NA,4,#3386FF,#D89F1C,10,0,1,38,1,4484,37,1,517,10,1,experiment,NA,NA,0,0.9,0.1,0,1,222,5,NA
fcp-trial,258,1368860,0.0-233.0-0.0,voc_e2,12307,"[{""event"":""blur"",""trial"":0,""time"":0},{""event"":""focus"",""trial"":1,""time"":3365},{""event"":""fullscreenenter"",""trial"":1,""time"":3460}]",NA,NA,NA,NA,NA,5,#3386FF,#D89F1C,10,0,1,38,1,1037.4000000357628,37,1,591,10,1,experiment,NA,NA,0,0.9,0.1,0,1,223,5,NA
fcp-trial,259,1371981,0.0-234.0-0.0,voc_e2,12307,"[{""event"":""blur"",""trial"":0,""time"":0},{""event"":""focus"",""trial"":1,""time"":3365},{""event"":""fullscreenenter"",""trial"":1,""time"":3460}]",NA,NA,NA,NA,NA,3,#D8271C,#741CD8,10,10,0,38,1,1057.5,39,0,557.3999999761581,10,1,experiment,NA,NA,2,0.5,0.5,5,4,224,5,NA
fcp-trial,260,1375166,0.0-235.0-0.0,voc_e2,12307,"[{""event"":""blur"",""trial"":0,""time"":0},{""event"":""focus"",""trial"":1,""time"":3365},{""event"":""fullscreenenter"",""trial"":1,""time"":3460}]",NA,NA,NA,NA,NA,1,#1CD855,#FA92F8,10,10,1,38,1,1205.199999988079,37,1,470.4000000357628,10,1,experiment,NA,NA,1,0.7,0.3,2,3,225,5,NA
fcp-trial,261,1381044,0.0-236.0-0.0,voc_e2,12307,"[{""event"":""blur"",""trial"":0,""time"":0},{""event"":""focus"",""trial"":1,""time"":3365},{""event"":""fullscreenenter"",""trial"":1,""time"":3460}]",NA,NA,NA,NA,NA,3,#FA92F8,#1CD855,0,0,0,38,1,3948.099999964237,39,0,421,0,1,experiment,NA,NA,1,0.3,0.7,3,2,226,6,NA
fcp-trial,262,1383701,0.0-237.0-0.0,voc_e2,12307,"[{""event"":""blur"",""trial"":0,""time"":0},{""event"":""focus"",""trial"":1,""time"":3365},{""event"":""fullscreenenter"",""trial"":1,""time"":3460}]",NA,NA,NA,NA,NA,2,#D8271C,#741CD8,10,0,0,38,1,678.2999999523163,39,0,471.39999997615814,0,1,experiment,NA,NA,2,0.5,0.5,5,4,227,6,NA
fcp-trial,263,1386941,0.0-238.0-0.0,voc_e2,12307,"[{""event"":""blur"",""trial"":0,""time"":0},{""event"":""focus"",""trial"":1,""time"":3365},{""event"":""fullscreenenter"",""trial"":1,""time"":3460}]",NA,NA,NA,NA,NA,0,#D89F1C,#3386FF,0,10,0,38,1,1137.3999999761581,37,1,592.5,0,0,experiment,NA,NA,0,0.1,0.9,1,0,228,6,NA
fcp-trial,264,1393764,0.0-239.0-0.0,voc_e2,12307,"[{""event"":""blur"",""trial"":0,""time"":0},{""event"":""focus"",""trial"":1,""time"":3365},{""event"":""fullscreenenter"",""trial"":1,""time"":3460}]",NA,NA,NA,NA,NA,0,#FA92F8,#1CD855,10,10,0,38,1,1885.0999999642372,39,0,3431.199999988079,10,1,experiment,NA,NA,1,0.3,0.7,3,2,229,6,NA
fcp-trial,265,1398589,0.0-240.0-0.0,voc_e2,12307,"[{""event"":""blur"",""trial"":0,""time"":0},{""event"":""focus"",""trial"":1,""time"":3365},{""event"":""fullscreenenter"",""trial"":1,""time"":3460}]",NA,NA,NA,NA,NA,5,#741CD8,#D8271C,10,0,1,38,1,2894.699999988079,37,1,423.19999998807907,10,1,experiment,NA,NA,2,0.5,0.5,4,5,230,6,NA
fcp-trial,266,1400709,0.0-241.0-0.0,voc_e2,12307,"[{""event"":""blur"",""trial"":0,""time"":0},{""event"":""focus"",""trial"":1,""time"":3365},{""event"":""fullscreenenter"",""trial"":1,""time"":3460}]",NA,NA,NA,NA,NA,1,#D8271C,#741CD8,0,10,0,38,1,298.60000002384186,39,0,310.9000000357628,10,1,experiment,NA,NA,2,0.5,0.5,5,4,231,6,NA
fcp-trial,267,1405173,0.0-242.0-0.0,voc_e2,12307,"[{""event"":""blur"",""trial"":0,""time"":0},{""event"":""focus"",""trial"":1,""time"":3365},{""event"":""fullscreenenter"",""trial"":1,""time"":3460}]",NA,NA,NA,NA,NA,5,#1CD855,#FA92F8,10,0,1,38,1,1169.8999999761581,37,1,1781.699999988079,10,1,experiment,NA,NA,1,0.7,0.3,2,3,232,6,NA
fcp-trial,268,1411757,0.0-243.0-0.0,voc_e2,12307,"[{""event"":""blur"",""trial"":0,""time"":0},{""event"":""focus"",""trial"":1,""time"":3365},{""event"":""fullscreenenter"",""trial"":1,""time"":3460}]",NA,NA,NA,NA,NA,3,#D8271C,#741CD8,10,0,0,38,1,4543,39,0,533.6999999880791,0,1,experiment,NA,NA,2,0.5,0.5,5,4,233,6,NA
fcp-trial,269,1416997,0.0-244.0-0.0,voc_e2,12307,"[{""event"":""blur"",""trial"":0,""time"":0},{""event"":""focus"",""trial"":1,""time"":3365},{""event"":""fullscreenenter"",""trial"":1,""time"":3460}]",NA,NA,NA,NA,NA,6,#3386FF,#D89F1C,0,0,1,38,1,3014.099999964237,37,1,718,0,1,experiment,NA,NA,0,0.9,0.1,0,1,234,6,NA
fcp-trial,270,1419292,0.0-245.0-0.0,voc_e2,12307,"[{""event"":""blur"",""trial"":0,""time"":0},{""event"":""focus"",""trial"":1,""time"":3365},{""event"":""fullscreenenter"",""trial"":1,""time"":3460}]",NA,NA,NA,NA,NA,2,#741CD8,#D8271C,0,0,1,38,1,413.5999999642372,39,0,374.0999999642372,0,0,experiment,NA,NA,2,0.5,0.5,4,5,235,6,NA
fcp-trial,271,1421477,0.0-246.0-0.0,voc_e2,12307,"[{""event"":""blur"",""trial"":0,""time"":0},{""event"":""focus"",""trial"":1,""time"":3365},{""event"":""fullscreenenter"",""trial"":1,""time"":3460}]",NA,NA,NA,NA,NA,3,#1CD855,#FA92F8,0,10,1,38,1,332.0999999642372,37,1,340.19999998807907,0,1,experiment,NA,NA,1,0.7,0.3,2,3,236,6,NA
fcp-trial,272,1424205,0.0-247.0-0.0,voc_e2,12307,"[{""event"":""blur"",""trial"":0,""time"":0},{""event"":""focus"",""trial"":1,""time"":3365},{""event"":""fullscreenenter"",""trial"":1,""time"":3460}]",NA,NA,NA,NA,NA,4,#3386FF,#D89F1C,10,0,1,38,1,674.8999999761581,39,0,542.0999999642372,0,0,experiment,NA,NA,0,0.9,0.1,0,1,237,6,NA
fcp-trial,273,1426453,0.0-248.0-0.0,voc_e2,12307,"[{""event"":""blur"",""trial"":0,""time"":0},{""event"":""focus"",""trial"":1,""time"":3365},{""event"":""fullscreenenter"",""trial"":1,""time"":3460}]",NA,NA,NA,NA,NA,6,#D8271C,#741CD8,0,10,0,38,1,317,37,1,422.89999997615814,0,0,experiment,NA,NA,2,0.5,0.5,5,4,238,6,NA
fcp-trial,274,1431277,0.0-249.0-0.0,voc_e2,12307,"[{""event"":""blur"",""trial"":0,""time"":0},{""event"":""focus"",""trial"":1,""time"":3365},{""event"":""fullscreenenter"",""trial"":1,""time"":3460}]",NA,NA,NA,NA,NA,2,#FA92F8,#1CD855,0,10,0,38,1,2828.899999976158,39,0,487.2999999523163,10,1,experiment,NA,NA,1,0.3,0.7,3,2,239,6,NA
fcp-trial,275,1433693,0.0-250.0-0.0,voc_e2,12307,"[{""event"":""blur"",""trial"":0,""time"":0},{""event"":""focus"",""trial"":1,""time"":3365},{""event"":""fullscreenenter"",""trial"":1,""time"":3460}]",NA,NA,NA,NA,NA,0,#741CD8,#D8271C,0,10,1,38,1,426.5,37,1,479.19999998807907,0,1,experiment,NA,NA,2,0.5,0.5,4,5,240,6,NA
fcp-trial,276,1435798,0.0-251.0-0.0,voc_e2,12307,"[{""event"":""blur"",""trial"":0,""time"":0},{""event"":""focus"",""trial"":1,""time"":3365},{""event"":""fullscreenenter"",""trial"":1,""time"":3460}]",NA,NA,NA,NA,NA,4,#FA92F8,#1CD855,10,0,0,38,1,118.69999998807907,39,0,478.5,0,1,experiment,NA,NA,1,0.3,0.7,3,2,241,6,NA
fcp-trial,277,1439605,0.0-252.0-0.0,voc_e2,12307,"[{""event"":""blur"",""trial"":0,""time"":0},{""event"":""focus"",""trial"":1,""time"":3365},{""event"":""fullscreenenter"",""trial"":1,""time"":3460}]",NA,NA,NA,NA,NA,0,#D89F1C,#3386FF,0,10,0,38,1,1883.300000011921,39,0,414.60000002384186,10,1,experiment,NA,NA,0,0.1,0.9,1,0,242,6,NA
fcp-trial,278,1443478,0.0-253.0-0.0,voc_e2,12307,"[{""event"":""blur"",""trial"":0,""time"":0},{""event"":""focus"",""trial"":1,""time"":3365},{""event"":""fullscreenenter"",""trial"":1,""time"":3460}]",NA,NA,NA,NA,NA,3,#D89F1C,#3386FF,0,0,0,38,1,443.30000001192093,37,1,1918.0999999642372,0,0,experiment,NA,NA,0,0.1,0.9,1,0,243,6,NA
fcp-trial,279,1446237,0.0-254.0-0.0,voc_e2,12307,"[{""event"":""blur"",""trial"":0,""time"":0},{""event"":""focus"",""trial"":1,""time"":3365},{""event"":""fullscreenenter"",""trial"":1,""time"":3460}]",NA,NA,NA,NA,NA,6,#1CD855,#FA92F8,10,10,1,38,1,921.1000000238419,39,0,327.19999998807907,10,0,experiment,NA,NA,1,0.7,0.3,2,3,244,6,NA
fcp-trial,280,1448486,0.0-255.0-0.0,voc_e2,12307,"[{""event"":""blur"",""trial"":0,""time"":0},{""event"":""focus"",""trial"":1,""time"":3365},{""event"":""fullscreenenter"",""trial"":1,""time"":3460}]",NA,NA,NA,NA,NA,5,#741CD8,#D8271C,0,0,1,38,1,99.30000001192093,37,1,636.6999999880791,0,1,experiment,NA,NA,2,0.5,0.5,4,5,245,6,NA
fcp-trial,281,1450862,0.0-256.0-0.0,voc_e2,12307,"[{""event"":""blur"",""trial"":0,""time"":0},{""event"":""focus"",""trial"":1,""time"":3365},{""event"":""fullscreenenter"",""trial"":1,""time"":3460}]",NA,NA,NA,NA,NA,2,#D89F1C,#3386FF,0,10,0,38,1,428.30000001192093,39,0,439.7999999523163,10,1,experiment,NA,NA,0,0.1,0.9,1,0,246,6,NA
fcp-trial,282,1453246,0.0-257.0-0.0,voc_e2,12307,"[{""event"":""blur"",""trial"":0,""time"":0},{""event"":""focus"",""trial"":1,""time"":3365},{""event"":""fullscreenenter"",""trial"":1,""time"":3460}]",NA,NA,NA,NA,NA,1,#D89F1C,#3386FF,10,0,0,38,1,328.10000002384186,37,1,542.1000000238419,10,0,experiment,NA,NA,0,0.1,0.9,1,0,247,6,NA
fcp-trial,283,1455557,0.0-258.0-0.0,voc_e2,12307,"[{""event"":""blur"",""trial"":0,""time"":0},{""event"":""focus"",""trial"":1,""time"":3365},{""event"":""fullscreenenter"",""trial"":1,""time"":3460}]",NA,NA,NA,NA,NA,1,#D8271C,#741CD8,10,0,0,38,1,283.5999999642372,39,0,519.2000000476837,0,1,experiment,NA,NA,2,0.5,0.5,5,4,248,6,NA
fcp-trial,284,1457708,0.0-259.0-0.0,voc_e2,12307,"[{""event"":""blur"",""trial"":0,""time"":0},{""event"":""focus"",""trial"":1,""time"":3365},{""event"":""fullscreenenter"",""trial"":1,""time"":3460}]",NA,NA,NA,NA,NA,1,#FA92F8,#1CD855,0,10,0,38,1,317.80000001192093,39,0,327,10,1,experiment,NA,NA,1,0.3,0.7,3,2,249,6,NA
fcp-trial,285,1460420,0.0-260.0-0.0,voc_e2,12307,"[{""event"":""blur"",""trial"":0,""time"":0},{""event"":""focus"",""trial"":1,""time"":3365},{""event"":""fullscreenenter"",""trial"":1,""time"":3460}]",NA,NA,NA,NA,NA,4,#741CD8,#D8271C,10,10,1,38,1,6.699999988079071,37,1,1199.1000000238419,10,1,experiment,NA,NA,2,0.5,0.5,4,5,250,6,NA
fcp-trial,286,1462668,0.0-261.0-0.0,voc_e2,12307,"[{""event"":""blur"",""trial"":0,""time"":0},{""event"":""focus"",""trial"":1,""time"":3365},{""event"":""fullscreenenter"",""trial"":1,""time"":3460}]",NA,NA,NA,NA,NA,5,#D89F1C,#3386FF,0,10,0,38,1,382,39,0,358.5,10,1,experiment,NA,NA,0,0.1,0.9,1,0,251,6,NA
fcp-trial,287,1465413,0.0-262.0-0.0,voc_e2,12307,"[{""event"":""blur"",""trial"":0,""time"":0},{""event"":""focus"",""trial"":1,""time"":3365},{""event"":""fullscreenenter"",""trial"":1,""time"":3460}]",NA,NA,NA,NA,NA,0,#FA92F8,#1CD855,10,0,0,38,1,854.3000000119209,37,1,383.5,10,0,experiment,NA,NA,1,0.3,0.7,3,2,252,6,NA
fcp-trial,288,1467773,0.0-263.0-0.0,voc_e2,12307,"[{""event"":""blur"",""trial"":0,""time"":0},{""event"":""focus"",""trial"":1,""time"":3365},{""event"":""fullscreenenter"",""trial"":1,""time"":3460}]",NA,NA,NA,NA,NA,5,#D89F1C,#3386FF,0,10,0,38,1,395.9000000357628,39,0,455.4000000357628,10,1,experiment,NA,NA,0,0.1,0.9,1,0,253,6,NA
fcp-trial,289,1470117,0.0-264.0-0.0,voc_e2,12307,"[{""event"":""blur"",""trial"":0,""time"":0},{""event"":""focus"",""trial"":1,""time"":3365},{""event"":""fullscreenenter"",""trial"":1,""time"":3460}]",NA,NA,NA,NA,NA,6,#1CD855,#FA92F8,10,10,1,38,1,18.900000035762787,37,1,813.8000000119209,10,1,experiment,NA,NA,1,0.7,0.3,2,3,254,6,NA
fcp-trial,290,1472472,0.0-265.0-0.0,voc_e2,12307,"[{""event"":""blur"",""trial"":0,""time"":0},{""event"":""focus"",""trial"":1,""time"":3365},{""event"":""fullscreenenter"",""trial"":1,""time"":3460}]",NA,NA,NA,NA,NA,2,#3386FF,#D89F1C,10,0,1,38,1,22,37,1,822.6999999880791,10,1,experiment,NA,NA,0,0.9,0.1,0,1,255,6,NA
fcp-trial,291,1474734,0.0-266.0-0.0,voc_e2,12307,"[{""event"":""blur"",""trial"":0,""time"":0},{""event"":""focus"",""trial"":1,""time"":3365},{""event"":""fullscreenenter"",""trial"":1,""time"":3460}]",NA,NA,NA,NA,NA,1,#D89F1C,#3386FF,0,10,0,38,1,330.69999998807907,39,0,423.80000001192093,10,1,experiment,NA,NA,0,0.1,0.9,1,0,256,6,NA
fcp-trial,292,1477165,0.0-267.0-0.0,voc_e2,12307,"[{""event"":""blur"",""trial"":0,""time"":0},{""event"":""focus"",""trial"":1,""time"":3365},{""event"":""fullscreenenter"",""trial"":1,""time"":3460}]",NA,NA,NA,NA,NA,2,#1CD855,#FA92F8,10,0,1,38,1,562.5,37,1,358.2000000476837,10,1,experiment,NA,NA,1,0.7,0.3,2,3,257,6,NA
fcp-trial,293,1479445,0.0-268.0-0.0,voc_e2,12307,"[{""event"":""blur"",""trial"":0,""time"":0},{""event"":""focus"",""trial"":1,""time"":3365},{""event"":""fullscreenenter"",""trial"":1,""time"":3460}]",NA,NA,NA,NA,NA,2,#D8271C,#741CD8,10,10,0,38,1,414.10000002384186,39,0,359.39999997615814,10,1,experiment,NA,NA,2,0.5,0.5,5,4,258,6,NA
fcp-trial,294,1481582,0.0-269.0-0.0,voc_e2,12307,"[{""event"":""blur"",""trial"":0,""time"":0},{""event"":""focus"",""trial"":1,""time"":3365},{""event"":""fullscreenenter"",""trial"":1,""time"":3460}]",NA,NA,NA,NA,NA,3,#3386FF,#D89F1C,10,10,1,38,1,280,37,1,343.0999999642372,10,1,experiment,NA,NA,0,0.9,0.1,0,1,259,6,NA
fcp-trial,295,1484173,0.0-270.0-0.0,voc_e2,12307,"[{""event"":""blur"",""trial"":0,""time"":0},{""event"":""focus"",""trial"":1,""time"":3365},{""event"":""fullscreenenter"",""trial"":1,""time"":3460}]",NA,NA,NA,NA,NA,0,#D8271C,#741CD8,0,0,0,38,1,329.89999997615814,37,1,750.5,0,0,experiment,NA,NA,2,0.5,0.5,5,4,260,6,NA
fcp-trial,296,1486767,0.0-271.0-0.0,voc_e2,12307,"[{""event"":""blur"",""trial"":0,""time"":0},{""event"":""focus"",""trial"":1,""time"":3365},{""event"":""fullscreenenter"",""trial"":1,""time"":3460}]",NA,NA,NA,NA,NA,3,#741CD8,#D8271C,0,0,1,38,1,545.8999999761581,39,0,537.6999999880791,0,0,experiment,NA,NA,2,0.5,0.5,4,5,261,6,NA
fcp-trial,297,1489293,0.0-272.0-0.0,voc_e2,12307,"[{""event"":""blur"",""trial"":0,""time"":0},{""event"":""focus"",""trial"":1,""time"":3365},{""event"":""fullscreenenter"",""trial"":1,""time"":3460}]",NA,NA,NA,NA,NA,0,#1CD855,#FA92F8,10,0,1,38,1,624.5,37,1,390.10000002384186,10,1,experiment,NA,NA,1,0.7,0.3,2,3,262,6,NA
fcp-trial,298,1493069,0.0-273.0-0.0,voc_e2,12307,"[{""event"":""blur"",""trial"":0,""time"":0},{""event"":""focus"",""trial"":1,""time"":3365},{""event"":""fullscreenenter"",""trial"":1,""time"":3460}]",NA,NA,NA,NA,NA,1,#1CD855,#FA92F8,10,0,1,38,1,1824.800000011921,37,1,436.0999999642372,10,1,experiment,NA,NA,1,0.7,0.3,2,3,263,6,NA
fcp-trial,299,1495517,0.0-274.0-0.0,voc_e2,12307,"[{""event"":""blur"",""trial"":0,""time"":0},{""event"":""focus"",""trial"":1,""time"":3365},{""event"":""fullscreenenter"",""trial"":1,""time"":3460}]",NA,NA,NA,NA,NA,4,#D89F1C,#3386FF,0,0,0,38,1,530.9000000357628,39,0,406.80000001192093,0,1,experiment,NA,NA,0,0.1,0.9,1,0,264,6,NA
fcp-trial,300,1497844,0.0-275.0-0.0,voc_e2,12307,"[{""event"":""blur"",""trial"":0,""time"":0},{""event"":""focus"",""trial"":1,""time"":3365},{""event"":""fullscreenenter"",""trial"":1,""time"":3460}]",NA,NA,NA,NA,NA,4,#FA92F8,#1CD855,0,10,0,38,1,5.5,37,1,815,0,0,experiment,NA,NA,1,0.3,0.7,3,2,265,6,NA
fcp-trial,301,1500413,0.0-276.0-0.0,voc_e2,12307,"[{""event"":""blur"",""trial"":0,""time"":0},{""event"":""focus"",""trial"":1,""time"":3365},{""event"":""fullscreenenter"",""trial"":1,""time"":3460}]",NA,NA,NA,NA,NA,5,#D8271C,#741CD8,10,0,0,38,1,547.8000000119209,37,1,510.89999997615814,10,0,experiment,NA,NA,2,0.5,0.5,5,4,266,6,NA
fcp-trial,302,1503053,0.0-277.0-0.0,voc_e2,12307,"[{""event"":""blur"",""trial"":0,""time"":0},{""event"":""focus"",""trial"":1,""time"":3365},{""event"":""fullscreenenter"",""trial"":1,""time"":3460}]",NA,NA,NA,NA,NA,0,#D89F1C,#3386FF,0,10,0,38,1,540.6999999880791,39,0,591.3000000119209,10,1,experiment,NA,NA,0,0.1,0.9,1,0,267,6,NA
fcp-trial,303,1505724,0.0-278.0-0.0,voc_e2,12307,"[{""event"":""blur"",""trial"":0,""time"":0},{""event"":""focus"",""trial"":1,""time"":3365},{""event"":""fullscreenenter"",""trial"":1,""time"":3460}]",NA,NA,NA,NA,NA,1,#741CD8,#D8271C,10,10,1,38,1,626.1000000238419,37,1,535.1999999880791,10,1,experiment,NA,NA,2,0.5,0.5,4,5,268,6,NA
