trial_type,trial_index,time_elapsed,internal_node_id,task_version,subject_id,interactions,success,rt,stimulus,key_press,button_pressed,offer,arcade_color_L,arcade_color_R,arcade_outcome_L,arcade_outcome_R,correct,stage_1_key,stage_1_choice,stage_1_rt,stage_2_key,stage_2_choice,stage_2_rt,stage_3_outcome,accuracy,phase,responses,num_errors,context,reward_prob_L,reward_prob_R,arcade_id_L,arcade_id_R,trial,block,response
pavlovia,0,8,0.0-0.0,voc_e2,11832,[],NA,NA,NA,NA,NA,NA,NA,NA,NA,NA,NA,NA,NA,NA,NA,NA,NA,NA,NA,NA,NA,NA,NA,NA,NA,NA,NA,NA,NA,NA
fullscreen,1,4184,0.0-1.0,voc_e2,11832,"[{""event"":""fullscreenenter"",""trial"":1,""time"":3238}]",TRUE,NA,NA,NA,NA,NA,NA,NA,NA,NA,NA,NA,NA,NA,NA,NA,NA,NA,NA,NA,NA,NA,NA,NA,NA,NA,NA,NA,NA,NA
audio-keyboard-response,2,8063,0.0-2.0,voc_e2,11832,"[{""event"":""fullscreenenter"",""trial"":1,""time"":3238}]",NA,3727,static/audio/beep_loop.wav,32,NA,NA,NA,NA,NA,NA,NA,NA,NA,NA,NA,NA,NA,NA,NA,NA,NA,NA,NA,NA,NA,NA,NA,NA,NA,NA
audio-test,3,9663,0.0-3.0,voc_e2,11832,"[{""event"":""fullscreenenter"",""trial"":1,""time"":3238}]",NA,NA,static/audio/turtle.wav,NA,3,NA,NA,NA,NA,NA,NA,NA,NA,NA,NA,NA,NA,NA,NA,NA,NA,NA,NA,NA,NA,NA,NA,NA,NA,NA
audio-test,4,12836,0.0-4.0,voc_e2,11832,"[{""event"":""fullscreenenter"",""trial"":1,""time"":3238}]",NA,NA,static/audio/shark.wav,NA,2,NA,NA,NA,NA,NA,NA,NA,NA,NA,NA,NA,NA,NA,NA,NA,NA,NA,NA,NA,NA,NA,NA,NA,NA,NA
audio-instructions,5,19778,0.0-5.0-0.0,voc_e2,11832,"[{""event"":""fullscreenenter"",""trial"":1,""time"":3238}]",NA,1157.399999976158,static/audio/instructions1.wav,NA,0,NA,NA,NA,NA,NA,NA,NA,NA,NA,NA,NA,NA,NA,NA,NA,NA,NA,NA,NA,NA,NA,NA,NA,NA,NA
audio-instructions,6,27075,0.0-5.0-1.0,voc_e2,11832,"[{""event"":""fullscreenenter"",""trial"":1,""time"":3238}]",NA,554,static/audio/instructions2.wav,NA,0,NA,NA,NA,NA,NA,NA,NA,NA,NA,NA,NA,NA,NA,NA,NA,NA,NA,NA,NA,NA,NA,NA,NA,NA,NA
audio-instructions,7,33351,0.0-5.0-2.0,voc_e2,11832,"[{""event"":""fullscreenenter"",""trial"":1,""time"":3238}]",NA,473.60000002384186,static/audio/instructions3.wav,NA,0,NA,NA,NA,NA,NA,NA,NA,NA,NA,NA,NA,NA,NA,NA,NA,NA,NA,NA,NA,NA,NA,NA,NA,NA,NA
audio-instructions,8,58991,0.0-5.0-3.0,voc_e2,11832,"[{""event"":""fullscreenenter"",""trial"":1,""time"":3238}]",NA,12407.80000001192,static/audio/instructions4.wav,NA,0,NA,NA,NA,NA,NA,NA,NA,NA,NA,NA,NA,NA,NA,NA,NA,NA,NA,NA,NA,NA,NA,NA,NA,NA,NA
audio-instructions,9,68993,0.0-5.0-4.0,voc_e2,11832,"[{""event"":""fullscreenenter"",""trial"":1,""time"":3238}]",NA,617.8999999761581,static/audio/instructions5.wav,NA,0,NA,NA,NA,NA,NA,NA,NA,NA,NA,NA,NA,NA,NA,NA,NA,NA,NA,NA,NA,NA,NA,NA,NA,NA,NA
fcp-practice,10,71277,0.0-5.0-5.0-0.0,voc_e2,11832,"[{""event"":""fullscreenenter"",""trial"":1,""time"":3238}]",NA,NA,NA,NA,NA,NA,#EDC948,#46d3c8,10,0,1,null,null,null,37,1,762.6999999880791,10,1,practice,NA,NA,NA,NA,NA,NA,NA,NA,NA,NA
fcp-practice,11,73151,0.0-5.0-5.0-1.0,voc_e2,11832,"[{""event"":""fullscreenenter"",""trial"":1,""time"":3238}]",NA,NA,NA,NA,NA,NA,#EDC948,#46d3c8,10,0,1,null,null,null,37,1,368.199999988079,10,1,practice,NA,NA,NA,NA,NA,NA,NA,NA,NA,NA
fcp-practice,12,74973,0.0-5.0-5.0-2.0,voc_e2,11832,"[{""event"":""fullscreenenter"",""trial"":1,""time"":3238}]",NA,NA,NA,NA,NA,NA,#EDC948,#46d3c8,0,10,1,null,null,null,37,1,318.2999999523163,0,1,practice,NA,NA,NA,NA,NA,NA,NA,NA,NA,NA
fcp-practice,13,77162,0.0-5.0-5.0-3.0,voc_e2,11832,"[{""event"":""fullscreenenter"",""trial"":1,""time"":3238}]",NA,NA,NA,NA,NA,NA,#EDC948,#46d3c8,10,0,1,null,null,null,37,1,683.5,10,1,practice,NA,NA,NA,NA,NA,NA,NA,NA,NA,NA
fcp-practice,14,80365,0.0-5.0-5.0-4.0,voc_e2,11832,"[{""event"":""fullscreenenter"",""trial"":1,""time"":3238}]",NA,NA,NA,NA,NA,NA,#EDC948,#46d3c8,10,0,1,null,null,null,37,1,1696.199999988079,10,1,practice,NA,NA,NA,NA,NA,NA,NA,NA,NA,NA
audio-instructions,15,99453,0.0-5.0-6.0,voc_e2,11832,"[{""event"":""fullscreenenter"",""trial"":1,""time"":3238}]",NA,1082.199999988079,static/audio/instructions6.wav,NA,0,NA,NA,NA,NA,NA,NA,NA,NA,NA,NA,NA,NA,NA,NA,NA,NA,NA,NA,NA,NA,NA,NA,NA,NA,NA
audio-instructions,16,119376,0.0-5.0-7.0,voc_e2,11832,"[{""event"":""fullscreenenter"",""trial"":1,""time"":3238}]",NA,722.6999999880791,static/audio/instructions7.wav,NA,0,NA,NA,NA,NA,NA,NA,NA,NA,NA,NA,NA,NA,NA,NA,NA,NA,NA,NA,NA,NA,NA,NA,NA,NA,NA
audio-instructions,17,129367,0.0-5.0-8.0,voc_e2,11832,"[{""event"":""fullscreenenter"",""trial"":1,""time"":3238}]",NA,520.5999999642372,static/audio/instructions8.wav,NA,0,NA,NA,NA,NA,NA,NA,NA,NA,NA,NA,NA,NA,NA,NA,NA,NA,NA,NA,NA,NA,NA,NA,NA,NA,NA
fcp-comprehension,18,140220,0.0-5.0-9.0,voc_e2,11832,"[{""event"":""fullscreenenter"",""trial"":1,""time"":3238}]",NA,10849.899999976158,NA,NA,NA,NA,NA,NA,NA,NA,NA,NA,NA,NA,NA,NA,NA,NA,NA,NA,"true,true",0,NA,NA,NA,NA,NA,NA,NA,NA
audio-instructions,19,146159,0.0-6.0-0.0,voc_e2,11832,"[{""event"":""fullscreenenter"",""trial"":1,""time"":3238}]",NA,384.300000011921,static/audio/instructions9.wav,NA,0,NA,NA,NA,NA,NA,NA,NA,NA,NA,NA,NA,NA,NA,NA,NA,NA,NA,NA,NA,NA,NA,NA,NA,NA,NA
audio-instructions,20,158622,0.0-6.0-1.0,voc_e2,11832,"[{""event"":""fullscreenenter"",""trial"":1,""time"":3238}]",NA,343.39999997615814,static/audio/instructions10.wav,NA,0,NA,NA,NA,NA,NA,NA,NA,NA,NA,NA,NA,NA,NA,NA,NA,NA,NA,NA,NA,NA,NA,NA,NA,NA,NA
fcp-trial,21,165565,0.0-6.0-2.0,voc_e2,11832,"[{""event"":""fullscreenenter"",""trial"":1,""time"":3238}]",NA,NA,NA,NA,NA,0,#EDC948,#46d3c8,10,10,1,38,1,3275.800000011921,39,0,2149.399999976158,10,0,practice,NA,NA,NA,NA,NA,NA,NA,NA,NA,NA
audio-instructions,22,177112,0.0-6.0-3.0,voc_e2,11832,"[{""event"":""fullscreenenter"",""trial"":1,""time"":3238}]",NA,535.5999999642372,static/audio/instructions11.wav,NA,0,NA,NA,NA,NA,NA,NA,NA,NA,NA,NA,NA,NA,NA,NA,NA,NA,NA,NA,NA,NA,NA,NA,NA,NA,NA
fcp-trial,23,180350,0.0-6.0-4.0,voc_e2,11832,"[{""event"":""fullscreenenter"",""trial"":1,""time"":3238}]",NA,NA,NA,NA,NA,6,#EDC948,#46d3c8,10,10,1,40,0,854.3000000119209,37,1,875.1000000238419,10,1,practice,NA,NA,NA,NA,NA,NA,NA,NA,NA,NA
audio-instructions,24,199588,0.0-6.0-5.0,voc_e2,11832,"[{""event"":""fullscreenenter"",""trial"":1,""time"":3238}]",NA,546.0999999642372,static/audio/instructions12.wav,NA,0,NA,NA,NA,NA,NA,NA,NA,NA,NA,NA,NA,NA,NA,NA,NA,NA,NA,NA,NA,NA,NA,NA,NA,NA,NA
audio-instructions,25,207653,0.0-6.0-6.0,voc_e2,11832,"[{""event"":""fullscreenenter"",""trial"":1,""time"":3238}]",NA,466.5,static/audio/instructions13.wav,NA,0,NA,NA,NA,NA,NA,NA,NA,NA,NA,NA,NA,NA,NA,NA,NA,NA,NA,NA,NA,NA,NA,NA,NA,NA,NA
audio-instructions,26,216544,0.0-6.0-7.0,voc_e2,11832,"[{""event"":""fullscreenenter"",""trial"":1,""time"":3238}]",NA,441.199999988079,static/audio/instructions14.wav,NA,0,NA,NA,NA,NA,NA,NA,NA,NA,NA,NA,NA,NA,NA,NA,NA,NA,NA,NA,NA,NA,NA,NA,NA,NA,NA
audio-instructions,27,224299,0.0-7.0-0.0,voc_e2,11832,"[{""event"":""fullscreenenter"",""trial"":1,""time"":3238}]",NA,839.8000000119209,static/audio/instructions15.wav,NA,0,NA,NA,NA,NA,NA,NA,NA,NA,NA,NA,NA,NA,NA,NA,NA,NA,NA,NA,NA,NA,NA,NA,NA,NA,NA
audio-instructions,28,231507,0.0-7.0-1.0,voc_e2,11832,"[{""event"":""fullscreenenter"",""trial"":1,""time"":3238}]",NA,380.10000002384186,static/audio/instructions16.wav,NA,0,NA,NA,NA,NA,NA,NA,NA,NA,NA,NA,NA,NA,NA,NA,NA,NA,NA,NA,NA,NA,NA,NA,NA,NA,NA
audio-instructions,29,239887,0.0-7.0-2.0,voc_e2,11832,"[{""event"":""fullscreenenter"",""trial"":1,""time"":3238}]",NA,701.6999999880791,static/audio/instructions17.wav,NA,0,NA,NA,NA,NA,NA,NA,NA,NA,NA,NA,NA,NA,NA,NA,NA,NA,NA,NA,NA,NA,NA,NA,NA,NA,NA
audio-instructions,30,248241,0.0-7.0-3.0,voc_e2,11832,"[{""event"":""fullscreenenter"",""trial"":1,""time"":3238}]",NA,586.8000000119209,static/audio/instructions18.wav,NA,0,NA,NA,NA,NA,NA,NA,NA,NA,NA,NA,NA,NA,NA,NA,NA,NA,NA,NA,NA,NA,NA,NA,NA,NA,NA
audio-instructions,31,255393,0.0-7.0-4.0,voc_e2,11832,"[{""event"":""fullscreenenter"",""trial"":1,""time"":3238}]",NA,407.7000000476837,static/audio/instructions19.wav,NA,0,NA,NA,NA,NA,NA,NA,NA,NA,NA,NA,NA,NA,NA,NA,NA,NA,NA,NA,NA,NA,NA,NA,NA,NA,NA
fcp-comprehension,32,265981,0.0-7.0-5.0,voc_e2,11832,"[{""event"":""fullscreenenter"",""trial"":1,""time"":3238}]",NA,10585.30000001192,NA,NA,NA,NA,NA,NA,NA,NA,NA,NA,NA,NA,NA,NA,NA,NA,NA,NA,"false,false,false,false",1,NA,NA,NA,NA,NA,NA,NA,NA
audio-instructions,33,273262,0.0-7.1-0.1,voc_e2,11832,"[{""event"":""fullscreenenter"",""trial"":1,""time"":3238}]",NA,362.7000000476837,static/audio/instructions15.wav,NA,0,NA,NA,NA,NA,NA,NA,NA,NA,NA,NA,NA,NA,NA,NA,NA,NA,NA,NA,NA,NA,NA,NA,NA,NA,NA
audio-instructions,34,281807,0.0-7.1-1.1,voc_e2,11832,"[{""event"":""fullscreenenter"",""trial"":1,""time"":3238}]",NA,1720.7999999523165,static/audio/instructions16.wav,NA,0,NA,NA,NA,NA,NA,NA,NA,NA,NA,NA,NA,NA,NA,NA,NA,NA,NA,NA,NA,NA,NA,NA,NA,NA,NA
audio-instructions,35,289873,0.0-7.1-2.1,voc_e2,11832,"[{""event"":""fullscreenenter"",""trial"":1,""time"":3238}]",NA,388.39999997615814,static/audio/instructions17.wav,NA,0,NA,NA,NA,NA,NA,NA,NA,NA,NA,NA,NA,NA,NA,NA,NA,NA,NA,NA,NA,NA,NA,NA,NA,NA,NA
audio-instructions,36,299527,0.0-7.1-3.1,voc_e2,11832,"[{""event"":""fullscreenenter"",""trial"":1,""time"":3238}]",NA,1885.600000023842,static/audio/instructions18.wav,NA,0,NA,NA,NA,NA,NA,NA,NA,NA,NA,NA,NA,NA,NA,NA,NA,NA,NA,NA,NA,NA,NA,NA,NA,NA,NA
audio-instructions,37,307223,0.0-7.1-4.1,voc_e2,11832,"[{""event"":""fullscreenenter"",""trial"":1,""time"":3238}]",NA,949.3000000119208,static/audio/instructions19.wav,NA,0,NA,NA,NA,NA,NA,NA,NA,NA,NA,NA,NA,NA,NA,NA,NA,NA,NA,NA,NA,NA,NA,NA,NA,NA,NA
fcp-comprehension,38,339910,0.0-7.1-5.1,voc_e2,11832,"[{""event"":""fullscreenenter"",""trial"":1,""time"":3238}]",NA,32675.19999998808,NA,NA,NA,NA,NA,NA,NA,NA,NA,NA,NA,NA,NA,NA,NA,NA,NA,NA,"false,false,false,true",0,NA,NA,NA,NA,NA,NA,NA,NA
audio-instructions,39,349965,0.0-8.0,voc_e2,11832,"[{""event"":""fullscreenenter"",""trial"":1,""time"":3238}]",NA,811.6000000238419,static/audio/ready.wav,NA,0,NA,NA,NA,NA,NA,NA,NA,NA,NA,NA,NA,NA,NA,NA,NA,NA,NA,NA,NA,NA,NA,NA,NA,NA,NA
fcp-trial,40,356069,0.0-9.0-0.0,voc_e2,11832,"[{""event"":""fullscreenenter"",""trial"":1,""time"":3238}]",NA,NA,NA,NA,NA,5,#3386FF,#D89F1C,10,10,0,38,1,3588.099999964237,37,1,998.6999999880792,10,0,experiment,NA,NA,1,0.3,0.7,3,2,1,1,NA
fcp-trial,41,361308,0.0-10.0-0.0,voc_e2,11832,"[{""event"":""fullscreenenter"",""trial"":1,""time"":3238}]",NA,NA,NA,NA,NA,5,#1CD855,#FA92F8,10,10,0,38,1,1910.300000011921,39,0,1819.2000000476835,10,1,experiment,NA,NA,0,0.1,0.9,1,0,2,1,NA
fcp-trial,42,364658,0.0-11.0-0.0,voc_e2,11832,"[{""event"":""fullscreenenter"",""trial"":1,""time"":3238}]",NA,NA,NA,NA,NA,6,#3386FF,#D89F1C,0,10,0,38,1,1270.3999999761581,37,1,569.5999999642372,0,0,experiment,NA,NA,1,0.3,0.7,3,2,3,1,NA
fcp-trial,43,368754,0.0-12.0-0.0,voc_e2,11832,"[{""event"":""fullscreenenter"",""trial"":1,""time"":3238}]",NA,NA,NA,NA,NA,0,#3386FF,#D89F1C,10,0,0,38,1,1813.699999988079,39,0,776.6999999880791,0,1,experiment,NA,NA,1,0.3,0.7,3,2,4,1,NA
fcp-trial,44,372104,0.0-13.0-0.0,voc_e2,11832,"[{""event"":""fullscreenenter"",""trial"":1,""time"":3238}]",NA,NA,NA,NA,NA,3,#FA92F8,#1CD855,10,0,1,38,1,1462.699999988079,37,1,378.199999988079,10,1,experiment,NA,NA,0,0.9,0.1,0,1,5,1,NA
fcp-trial,45,376231,0.0-14.0-0.0,voc_e2,11832,"[{""event"":""fullscreenenter"",""trial"":1,""time"":3238}]",NA,NA,NA,NA,NA,6,#D8271C,#741CD8,0,0,1,38,1,1101.3999999761581,37,1,1519.699999988079,0,1,experiment,NA,NA,2,0.5,0.5,4,5,6,1,NA
fcp-trial,46,379404,0.0-15.0-0.0,voc_e2,11832,"[{""event"":""fullscreenenter"",""trial"":1,""time"":3238}]",NA,NA,NA,NA,NA,3,#D8271C,#741CD8,0,0,1,38,1,1230.5,39,0,435.39999997615814,0,0,experiment,NA,NA,2,0.5,0.5,4,5,7,1,NA
fcp-trial,47,382321,0.0-16.0-0.0,voc_e2,11832,"[{""event"":""fullscreenenter"",""trial"":1,""time"":3238}]",NA,NA,NA,NA,NA,4,#3386FF,#D89F1C,0,0,0,38,1,858.3999999761581,37,1,552.1000000238419,0,0,experiment,NA,NA,1,0.3,0.7,3,2,8,1,NA
fcp-trial,48,385305,0.0-17.0-0.0,voc_e2,11832,"[{""event"":""fullscreenenter"",""trial"":1,""time"":3238}]",NA,NA,NA,NA,NA,4,#FA92F8,#1CD855,10,0,1,38,1,993.6000000238419,37,1,481.5,10,1,experiment,NA,NA,0,0.9,0.1,0,1,9,1,NA
fcp-trial,49,388390,0.0-18.0-0.0,voc_e2,11832,"[{""event"":""fullscreenenter"",""trial"":1,""time"":3238}]",NA,NA,NA,NA,NA,2,#FA92F8,#1CD855,10,0,1,38,1,1193.300000011921,37,1,386.5,10,1,experiment,NA,NA,0,0.9,0.1,0,1,10,1,NA
fcp-trial,50,391241,0.0-19.0-0.0,voc_e2,11832,"[{""event"":""fullscreenenter"",""trial"":1,""time"":3238}]",NA,NA,NA,NA,NA,0,#D8271C,#741CD8,0,10,1,38,1,906.5,39,0,435.5,10,0,experiment,NA,NA,2,0.5,0.5,4,5,11,1,NA
fcp-trial,51,393841,0.0-20.0-0.0,voc_e2,11832,"[{""event"":""fullscreenenter"",""trial"":1,""time"":3238}]",NA,NA,NA,NA,NA,3,#D89F1C,#3386FF,0,0,1,38,1,738.7000000476837,37,1,355.19999998807907,0,1,experiment,NA,NA,1,0.7,0.3,2,3,12,1,NA
fcp-trial,52,396620,0.0-21.0-0.0,voc_e2,11832,"[{""event"":""fullscreenenter"",""trial"":1,""time"":3238}]",NA,NA,NA,NA,NA,6,#FA92F8,#1CD855,10,0,1,38,1,620.7000000476837,37,1,648.5999999642372,10,1,experiment,NA,NA,0,0.9,0.1,0,1,13,1,NA
fcp-trial,53,400205,0.0-22.0-0.0,voc_e2,11832,"[{""event"":""fullscreenenter"",""trial"":1,""time"":3238}]",NA,NA,NA,NA,NA,1,#1CD855,#FA92F8,0,0,0,40,0,1087.6000000238419,37,1,990.8000000119208,0,0,experiment,NA,NA,0,0.1,0.9,1,0,14,1,NA
fcp-trial,54,404417,0.0-23.0-0.0,voc_e2,11832,"[{""event"":""fullscreenenter"",""trial"":1,""time"":3238}]",NA,NA,NA,NA,NA,5,#741CD8,#D8271C,10,0,0,38,1,2325.199999988079,37,1,380.10000002384186,10,0,experiment,NA,NA,2,0.5,0.5,5,4,15,1,NA
fcp-trial,55,407684,0.0-24.0-0.0,voc_e2,11832,"[{""event"":""fullscreenenter"",""trial"":1,""time"":3238}]",NA,NA,NA,NA,NA,2,#D89F1C,#3386FF,0,10,1,38,1,794.3000000119209,37,1,967.5,0,1,experiment,NA,NA,1,0.7,0.3,2,3,16,1,NA
fcp-trial,56,411175,0.0-25.0-0.0,voc_e2,11832,"[{""event"":""fullscreenenter"",""trial"":1,""time"":3238}]",NA,NA,NA,NA,NA,4,#D8271C,#741CD8,10,10,1,38,1,530.9000000357628,39,0,1453,10,0,experiment,NA,NA,2,0.5,0.5,4,5,17,1,NA
fcp-trial,57,413858,0.0-26.0-0.0,voc_e2,11832,"[{""event"":""fullscreenenter"",""trial"":1,""time"":3238}]",NA,NA,NA,NA,NA,1,#D8271C,#741CD8,0,0,1,38,1,686.0999999642372,39,0,488.0999999642372,0,0,experiment,NA,NA,2,0.5,0.5,4,5,18,1,NA
fcp-trial,58,419172,0.0-27.0-0.0,voc_e2,11832,"[{""event"":""fullscreenenter"",""trial"":1,""time"":3238}]",NA,NA,NA,NA,NA,0,#FA92F8,#1CD855,0,0,1,38,1,3236.300000011921,37,1,569.8000000119209,0,1,experiment,NA,NA,0,0.9,0.1,0,1,19,1,NA
fcp-trial,59,422004,0.0-28.0-0.0,voc_e2,11832,"[{""event"":""fullscreenenter"",""trial"":1,""time"":3238}]",NA,NA,NA,NA,NA,2,#D8271C,#741CD8,10,0,1,38,1,874,39,0,450.699999988079,0,0,experiment,NA,NA,2,0.5,0.5,4,5,20,1,NA
fcp-trial,60,425689,0.0-29.0-0.0,voc_e2,11832,"[{""event"":""fullscreenenter"",""trial"":1,""time"":3238}]",NA,NA,NA,NA,NA,1,#D89F1C,#3386FF,10,0,1,40,0,1321.699999988079,37,1,855,10,1,experiment,NA,NA,1,0.7,0.3,2,3,21,1,NA
fcp-trial,61,429175,0.0-30.0-0.0,voc_e2,11832,"[{""event"":""fullscreenenter"",""trial"":1,""time"":3238}]",NA,NA,NA,NA,NA,4,#741CD8,#D8271C,0,0,0,38,1,1124.699999988079,37,1,853.7999999523163,0,0,experiment,NA,NA,2,0.5,0.5,5,4,22,1,NA
fcp-trial,62,432173,0.0-31.0-0.0,voc_e2,11832,"[{""event"":""fullscreenenter"",""trial"":1,""time"":3238}]",NA,NA,NA,NA,NA,6,#FA92F8,#1CD855,10,0,1,38,1,855.1999999880791,37,1,637,10,1,experiment,NA,NA,0,0.9,0.1,0,1,23,1,NA
fcp-trial,63,434889,0.0-32.0-0.0,voc_e2,11832,"[{""event"":""fullscreenenter"",""trial"":1,""time"":3238}]",NA,NA,NA,NA,NA,3,#D8271C,#741CD8,10,0,1,38,1,673.3000000119209,37,1,535.5,10,1,experiment,NA,NA,2,0.5,0.5,4,5,24,1,NA
fcp-trial,64,438608,0.0-33.0-0.0,voc_e2,11832,"[{""event"":""fullscreenenter"",""trial"":1,""time"":3238}]",NA,NA,NA,NA,NA,3,#1CD855,#FA92F8,0,10,0,40,0,1507.9000000357628,39,0,703.3000000119209,10,1,experiment,NA,NA,0,0.1,0.9,1,0,25,1,NA
fcp-trial,65,443249,0.0-34.0-0.0,voc_e2,11832,"[{""event"":""fullscreenenter"",""trial"":1,""time"":3238}]",NA,NA,NA,NA,NA,0,#D89F1C,#3386FF,10,10,1,38,1,2295.800000011921,37,1,837.7000000476837,10,1,experiment,NA,NA,1,0.7,0.3,2,3,26,1,NA
fcp-trial,66,446045,0.0-35.0-0.0,voc_e2,11832,"[{""event"":""fullscreenenter"",""trial"":1,""time"":3238}]",NA,NA,NA,NA,NA,1,#FA92F8,#1CD855,0,0,1,38,1,731.9000000357628,37,1,554.1999999880791,0,1,experiment,NA,NA,0,0.9,0.1,0,1,27,1,NA
fcp-trial,67,448472,0.0-36.0-0.0,voc_e2,11832,"[{""event"":""fullscreenenter"",""trial"":1,""time"":3238}]",NA,NA,NA,NA,NA,4,#D89F1C,#3386FF,10,0,1,38,1,550.1999999880791,37,1,367.7000000476837,10,1,experiment,NA,NA,1,0.7,0.3,2,3,28,1,NA
fcp-trial,68,451275,0.0-37.0-0.0,voc_e2,11832,"[{""event"":""fullscreenenter"",""trial"":1,""time"":3238}]",NA,NA,NA,NA,NA,6,#741CD8,#D8271C,0,0,0,40,0,739.4000000357628,39,0,554.7999999523163,0,1,experiment,NA,NA,2,0.5,0.5,5,4,29,1,NA
fcp-trial,69,454303,0.0-38.0-0.0,voc_e2,11832,"[{""event"":""fullscreenenter"",""trial"":1,""time"":3238}]",NA,NA,NA,NA,NA,5,#741CD8,#D8271C,0,0,0,38,1,440,37,1,1079.5999999642372,0,0,experiment,NA,NA,2,0.5,0.5,5,4,30,1,NA
fcp-trial,70,456773,0.0-39.0-0.0,voc_e2,11832,"[{""event"":""fullscreenenter"",""trial"":1,""time"":3238}]",NA,NA,NA,NA,NA,0,#FA92F8,#1CD855,10,0,1,38,1,594.3000000119209,37,1,368.5999999642372,10,1,experiment,NA,NA,0,0.9,0.1,0,1,31,1,NA
fcp-trial,71,459814,0.0-40.0-0.0,voc_e2,11832,"[{""event"":""fullscreenenter"",""trial"":1,""time"":3238}]",NA,NA,NA,NA,NA,5,#D89F1C,#3386FF,10,10,1,38,1,682.5,39,0,850.7999999523163,10,0,experiment,NA,NA,1,0.7,0.3,2,3,32,1,NA
fcp-trial,72,462322,0.0-41.0-0.0,voc_e2,11832,"[{""event"":""fullscreenenter"",""trial"":1,""time"":3238}]",NA,NA,NA,NA,NA,5,#1CD855,#FA92F8,0,10,0,38,1,433.60000002384186,39,0,565.3000000119209,10,1,experiment,NA,NA,0,0.1,0.9,1,0,33,1,NA
fcp-trial,73,465273,0.0-42.0-0.0,voc_e2,11832,"[{""event"":""fullscreenenter"",""trial"":1,""time"":3238}]",NA,NA,NA,NA,NA,6,#D89F1C,#3386FF,0,0,1,38,1,423.89999997615814,39,0,1020,0,0,experiment,NA,NA,1,0.7,0.3,2,3,34,1,NA
fcp-trial,74,468019,0.0-43.0-0.0,voc_e2,11832,"[{""event"":""fullscreenenter"",""trial"":1,""time"":3238}]",NA,NA,NA,NA,NA,2,#D8271C,#741CD8,10,10,1,38,1,564.6999999880791,39,0,672.9000000357628,10,0,experiment,NA,NA,2,0.5,0.5,4,5,35,1,NA
fcp-trial,75,470352,0.0-44.0-0.0,voc_e2,11832,"[{""event"":""fullscreenenter"",""trial"":1,""time"":3238}]",NA,NA,NA,NA,NA,4,#FA92F8,#1CD855,10,0,1,38,1,399.30000001192093,37,1,427.699999988079,10,1,experiment,NA,NA,0,0.9,0.1,0,1,36,1,NA
fcp-trial,76,472983,0.0-45.0-0.0,voc_e2,11832,"[{""event"":""fullscreenenter"",""trial"":1,""time"":3238}]",NA,NA,NA,NA,NA,1,#D89F1C,#3386FF,10,10,1,40,0,599.5999999642372,37,1,524.1000000238419,10,1,experiment,NA,NA,1,0.7,0.3,2,3,37,1,NA
fcp-trial,77,475937,0.0-46.0-0.0,voc_e2,11832,"[{""event"":""fullscreenenter"",""trial"":1,""time"":3238}]",NA,NA,NA,NA,NA,0,#D8271C,#741CD8,0,0,1,38,1,557.2000000476837,39,0,889.0999999642372,0,0,experiment,NA,NA,2,0.5,0.5,4,5,38,1,NA
fcp-trial,78,479828,0.0-47.0-0.0,voc_e2,11832,"[{""event"":""fullscreenenter"",""trial"":1,""time"":3238}]",NA,NA,NA,NA,NA,2,#3386FF,#D89F1C,0,0,0,38,1,537.8999999761581,39,0,1847.2999999523165,0,1,experiment,NA,NA,1,0.3,0.7,3,2,39,1,NA
fcp-trial,79,482470,0.0-48.0-0.0,voc_e2,11832,"[{""event"":""fullscreenenter"",""trial"":1,""time"":3238}]",NA,NA,NA,NA,NA,2,#1CD855,#FA92F8,0,10,0,38,1,503.30000001192093,39,0,631.1999999880791,10,1,experiment,NA,NA,0,0.1,0.9,1,0,40,1,NA
fcp-trial,80,485789,0.0-49.0-0.0,voc_e2,11832,"[{""event"":""fullscreenenter"",""trial"":1,""time"":3238}]",NA,NA,NA,NA,NA,1,#741CD8,#D8271C,10,10,0,38,1,1353.300000011921,39,0,461.10000002384186,10,1,experiment,NA,NA,2,0.5,0.5,5,4,41,1,NA
fcp-trial,81,488621,0.0-50.0-0.0,voc_e2,11832,"[{""event"":""fullscreenenter"",""trial"":1,""time"":3238}]",NA,NA,NA,NA,NA,3,#D89F1C,#3386FF,0,10,1,38,1,708.4000000357628,39,0,618,10,0,experiment,NA,NA,1,0.7,0.3,2,3,42,1,NA
fcp-trial,82,491207,0.0-51.0-0.0,voc_e2,11832,"[{""event"":""fullscreenenter"",""trial"":1,""time"":3238}]",NA,NA,NA,NA,NA,0,#1CD855,#FA92F8,0,0,0,38,1,575,39,0,503.699999988079,0,1,experiment,NA,NA,0,0.1,0.9,1,0,43,1,NA
fcp-trial,83,493574,0.0-52.0-0.0,voc_e2,11832,"[{""event"":""fullscreenenter"",""trial"":1,""time"":3238}]",NA,NA,NA,NA,NA,2,#D89F1C,#3386FF,0,10,1,38,1,374.39999997615814,39,0,485.699999988079,10,0,experiment,NA,NA,1,0.7,0.3,2,3,44,1,NA
fcp-trial,84,495920,0.0-53.0-0.0,voc_e2,11832,"[{""event"":""fullscreenenter"",""trial"":1,""time"":3238}]",NA,NA,NA,NA,NA,4,#741CD8,#D8271C,0,10,0,38,1,387.80000001192093,39,0,450.4000000357628,10,1,experiment,NA,NA,2,0.5,0.5,5,4,45,1,NA
fcp-trial,85,498551,0.0-54.0-0.0,voc_e2,11832,"[{""event"":""fullscreenenter"",""trial"":1,""time"":3238}]",NA,NA,NA,NA,NA,4,#3386FF,#D89F1C,0,0,0,40,0,550.9000000357628,39,0,574.6999999880791,0,1,experiment,NA,NA,1,0.3,0.7,3,2,46,2,NA
fcp-trial,86,501021,0.0-55.0-0.0,voc_e2,11832,"[{""event"":""fullscreenenter"",""trial"":1,""time"":3238}]",NA,NA,NA,NA,NA,6,#1CD855,#FA92F8,0,0,0,38,1,491.5999999642372,39,0,472.10000002384186,0,1,experiment,NA,NA,0,0.1,0.9,1,0,47,2,NA
fcp-trial,87,503407,0.0-56.0-0.0,voc_e2,11832,"[{""event"":""fullscreenenter"",""trial"":1,""time"":3238}]",NA,NA,NA,NA,NA,5,#FA92F8,#1CD855,10,0,1,38,1,330,37,1,549.4000000357628,10,1,experiment,NA,NA,0,0.9,0.1,0,1,48,2,NA
fcp-trial,88,506978,0.0-57.0-0.0,voc_e2,11832,"[{""event"":""fullscreenenter"",""trial"":1,""time"":3238}]",NA,NA,NA,NA,NA,5,#D8271C,#741CD8,10,10,1,38,1,471,37,1,1592.0999999642372,10,1,experiment,NA,NA,2,0.5,0.5,4,5,49,2,NA
fcp-trial,89,509653,0.0-58.0-0.0,voc_e2,11832,"[{""event"":""fullscreenenter"",""trial"":1,""time"":3238}]",NA,NA,NA,NA,NA,6,#D89F1C,#3386FF,10,0,1,38,1,482.30000001192093,39,0,683.1999999880791,0,0,experiment,NA,NA,1,0.7,0.3,2,3,50,2,NA
fcp-trial,90,511876,0.0-59.0-0.0,voc_e2,11832,"[{""event"":""fullscreenenter"",""trial"":1,""time"":3238}]",NA,NA,NA,NA,NA,1,#1CD855,#FA92F8,0,10,0,38,1,327.60000002384186,39,0,390.800000011921,10,1,experiment,NA,NA,0,0.1,0.9,1,0,51,2,NA
fcp-trial,91,515018,0.0-60.0-0.0,voc_e2,11832,"[{""event"":""fullscreenenter"",""trial"":1,""time"":3238}]",NA,NA,NA,NA,NA,0,#741CD8,#D8271C,0,0,0,38,1,468.9000000357628,39,0,1164.899999976158,0,1,experiment,NA,NA,2,0.5,0.5,5,4,52,2,NA
fcp-trial,92,517386,0.0-61.0-0.0,voc_e2,11832,"[{""event"":""fullscreenenter"",""trial"":1,""time"":3238}]",NA,NA,NA,NA,NA,2,#D8271C,#741CD8,0,0,1,38,1,478.10000002384186,37,1,383.300000011921,0,1,experiment,NA,NA,2,0.5,0.5,4,5,53,2,NA
fcp-trial,93,520787,0.0-62.0-0.0,voc_e2,11832,"[{""event"":""fullscreenenter"",""trial"":1,""time"":3238}]",NA,NA,NA,NA,NA,1,#D89F1C,#3386FF,10,0,1,38,1,597.8999999761581,37,1,1295.899999976158,10,1,experiment,NA,NA,1,0.7,0.3,2,3,54,2,NA
fcp-trial,94,523553,0.0-63.0-0.0,voc_e2,11832,"[{""event"":""fullscreenenter"",""trial"":1,""time"":3238}]",NA,NA,NA,NA,NA,3,#FA92F8,#1CD855,0,0,1,38,1,508.19999998807907,37,1,751.4000000357628,0,1,experiment,NA,NA,0,0.9,0.1,0,1,55,2,NA
fcp-trial,95,526321,0.0-64.0-0.0,voc_e2,11832,"[{""event"":""fullscreenenter"",""trial"":1,""time"":3238}]",NA,NA,NA,NA,NA,6,#741CD8,#D8271C,10,0,0,38,1,409.39999997615814,39,0,851.6999999880791,0,1,experiment,NA,NA,2,0.5,0.5,5,4,56,2,NA
fcp-trial,96,528967,0.0-65.0-0.0,voc_e2,11832,"[{""event"":""fullscreenenter"",""trial"":1,""time"":3238}]",NA,NA,NA,NA,NA,4,#1CD855,#FA92F8,0,10,0,38,1,656.1000000238419,39,0,481.10000002384186,10,1,experiment,NA,NA,0,0.1,0.9,1,0,57,2,NA
fcp-trial,97,532753,0.0-66.0-0.0,voc_e2,11832,"[{""event"":""fullscreenenter"",""trial"":1,""time"":3238}]",NA,NA,NA,NA,NA,0,#3386FF,#D89F1C,0,10,0,38,1,415.89999997615814,39,0,1864.300000011921,10,1,experiment,NA,NA,1,0.3,0.7,3,2,58,2,NA
fcp-trial,98,535039,0.0-67.0-0.0,voc_e2,11832,"[{""event"":""fullscreenenter"",""trial"":1,""time"":3238}]",NA,NA,NA,NA,NA,2,#FA92F8,#1CD855,10,0,1,38,1,376,37,1,404.10000002384186,10,1,experiment,NA,NA,0,0.9,0.1,0,1,59,2,NA
fcp-trial,99,538440,0.0-68.0-0.0,voc_e2,11832,"[{""event"":""fullscreenenter"",""trial"":1,""time"":3238}]",NA,NA,NA,NA,NA,3,#D8271C,#741CD8,10,10,1,38,1,405.5,39,0,1486.399999976158,10,0,experiment,NA,NA,2,0.5,0.5,4,5,60,2,NA
fcp-trial,100,542137,0.0-69.0-0.0,voc_e2,11832,"[{""event"":""fullscreenenter"",""trial"":1,""time"":3238}]",NA,NA,NA,NA,NA,3,#3386FF,#D89F1C,0,10,0,38,1,370.2999999523163,39,0,1818,10,1,experiment,NA,NA,1,0.3,0.7,3,2,61,2,NA
fcp-trial,101,545184,0.0-70.0-0.0,voc_e2,11832,"[{""event"":""fullscreenenter"",""trial"":1,""time"":3238}]",NA,NA,NA,NA,NA,1,#741CD8,#D8271C,10,10,0,40,0,1059,39,0,480.89999997615814,10,1,experiment,NA,NA,2,0.5,0.5,5,4,62,2,NA
fcp-trial,102,548906,0.0-71.0-0.0,voc_e2,11832,"[{""event"":""fullscreenenter"",""trial"":1,""time"":3238}]",NA,NA,NA,NA,NA,5,#3386FF,#D89F1C,0,0,0,40,0,1608.5,37,1,606.9000000357628,0,0,experiment,NA,NA,1,0.3,0.7,3,2,63,2,NA
fcp-trial,103,551267,0.0-72.0-0.0,voc_e2,11832,"[{""event"":""fullscreenenter"",""trial"":1,""time"":3238}]",NA,NA,NA,NA,NA,0,#3386FF,#D89F1C,10,0,0,38,1,555.5999999642372,39,0,281.9000000357628,0,1,experiment,NA,NA,1,0.3,0.7,3,2,64,2,NA
fcp-trial,104,554039,0.0-73.0-0.0,voc_e2,11832,"[{""event"":""fullscreenenter"",""trial"":1,""time"":3238}]",NA,NA,NA,NA,NA,2,#D8271C,#741CD8,10,0,1,38,1,408.39999997615814,39,0,784.0999999642372,0,0,experiment,NA,NA,2,0.5,0.5,4,5,65,2,NA
fcp-trial,105,556707,0.0-74.0-0.0,voc_e2,11832,"[{""event"":""fullscreenenter"",""trial"":1,""time"":3238}]",NA,NA,NA,NA,NA,4,#741CD8,#D8271C,0,10,0,38,1,523.5,39,0,636.0999999642372,10,1,experiment,NA,NA,2,0.5,0.5,5,4,66,2,NA
fcp-trial,106,559022,0.0-75.0-0.0,voc_e2,11832,"[{""event"":""fullscreenenter"",""trial"":1,""time"":3238}]",NA,NA,NA,NA,NA,3,#1CD855,#FA92F8,0,10,0,38,1,489.10000002384186,39,0,317.69999998807907,10,1,experiment,NA,NA,0,0.1,0.9,1,0,67,2,NA
fcp-trial,107,562308,0.0-76.0-0.0,voc_e2,11832,"[{""event"":""fullscreenenter"",""trial"":1,""time"":3238}]",NA,NA,NA,NA,NA,4,#D89F1C,#3386FF,0,0,1,38,1,409.80000001192093,37,1,1368.399999976158,0,1,experiment,NA,NA,1,0.7,0.3,2,3,68,2,NA
fcp-trial,108,565026,0.0-77.0-0.0,voc_e2,11832,"[{""event"":""fullscreenenter"",""trial"":1,""time"":3238}]",NA,NA,NA,NA,NA,6,#FA92F8,#1CD855,10,0,1,38,1,373.5,37,1,835.6999999880791,10,1,experiment,NA,NA,0,0.9,0.1,0,1,69,2,NA
fcp-trial,109,567989,0.0-78.0-0.0,voc_e2,11832,"[{""event"":""fullscreenenter"",""trial"":1,""time"":3238}]",NA,NA,NA,NA,NA,1,#741CD8,#D8271C,10,0,0,38,1,345.5999999642372,37,1,1111.100000023842,10,0,experiment,NA,NA,2,0.5,0.5,5,4,70,2,NA
fcp-trial,110,570274,0.0-79.0-0.0,voc_e2,11832,"[{""event"":""fullscreenenter"",""trial"":1,""time"":3238}]",NA,NA,NA,NA,NA,4,#1CD855,#FA92F8,0,10,0,38,1,422.89999997615814,39,0,353.4000000357628,10,1,experiment,NA,NA,0,0.1,0.9,1,0,71,2,NA
fcp-trial,111,572654,0.0-80.0-0.0,voc_e2,11832,"[{""event"":""fullscreenenter"",""trial"":1,""time"":3238}]",NA,NA,NA,NA,NA,3,#D89F1C,#3386FF,10,10,1,38,1,511.80000001192093,39,0,359.5,10,0,experiment,NA,NA,1,0.7,0.3,2,3,72,2,NA
fcp-trial,112,575637,0.0-81.0-0.0,voc_e2,11832,"[{""event"":""fullscreenenter"",""trial"":1,""time"":3238}]",NA,NA,NA,NA,NA,5,#3386FF,#D89F1C,0,10,0,38,1,403.30000001192093,39,0,1073,10,1,experiment,NA,NA,1,0.3,0.7,3,2,73,2,NA
fcp-trial,113,578058,0.0-82.0-0.0,voc_e2,11832,"[{""event"":""fullscreenenter"",""trial"":1,""time"":3238}]",NA,NA,NA,NA,NA,3,#741CD8,#D8271C,0,0,0,38,1,459,37,1,454.60000002384186,0,0,experiment,NA,NA,2,0.5,0.5,5,4,74,2,NA
fcp-trial,114,580773,0.0-83.0-0.0,voc_e2,11832,"[{""event"":""fullscreenenter"",""trial"":1,""time"":3238}]",NA,NA,NA,NA,NA,1,#1CD855,#FA92F8,10,10,0,40,0,472.5999999642372,37,1,732,10,0,experiment,NA,NA,0,0.1,0.9,1,0,75,2,NA
fcp-trial,115,583021,0.0-84.0-0.0,voc_e2,11832,"[{""event"":""fullscreenenter"",""trial"":1,""time"":3238}]",NA,NA,NA,NA,NA,5,#741CD8,#D8271C,0,0,0,38,1,454.19999998807907,39,0,284.5999999642372,0,1,experiment,NA,NA,2,0.5,0.5,5,4,76,2,NA
fcp-trial,116,585820,0.0-85.0-0.0,voc_e2,11832,"[{""event"":""fullscreenenter"",""trial"":1,""time"":3238}]",NA,NA,NA,NA,NA,6,#3386FF,#D89F1C,10,0,0,38,1,359.80000001192093,39,0,931.6999999880792,0,1,experiment,NA,NA,1,0.3,0.7,3,2,77,2,NA
fcp-trial,117,588240,0.0-86.0-0.0,voc_e2,11832,"[{""event"":""fullscreenenter"",""trial"":1,""time"":3238}]",NA,NA,NA,NA,NA,0,#741CD8,#D8271C,10,10,0,38,1,412,39,0,500.7999999523163,10,1,experiment,NA,NA,2,0.5,0.5,5,4,78,2,NA
fcp-trial,118,590623,0.0-87.0-0.0,voc_e2,11832,"[{""event"":""fullscreenenter"",""trial"":1,""time"":3238}]",NA,NA,NA,NA,NA,5,#1CD855,#FA92F8,0,10,0,40,0,461.19999998807907,37,1,414.199999988079,0,0,experiment,NA,NA,0,0.1,0.9,1,0,79,2,NA
fcp-trial,119,592925,0.0-88.0-0.0,voc_e2,11832,"[{""event"":""fullscreenenter"",""trial"":1,""time"":3238}]",NA,NA,NA,NA,NA,0,#FA92F8,#1CD855,10,0,1,38,1,370.89999997615814,37,1,422.300000011921,10,1,experiment,NA,NA,0,0.9,0.1,0,1,80,2,NA
fcp-trial,120,595140,0.0-89.0-0.0,voc_e2,11832,"[{""event"":""fullscreenenter"",""trial"":1,""time"":3238}]",NA,NA,NA,NA,NA,2,#FA92F8,#1CD855,10,0,1,38,1,387.4000000357628,37,1,318,10,1,experiment,NA,NA,0,0.9,0.1,0,1,81,2,NA
fcp-trial,121,598305,0.0-90.0-0.0,voc_e2,11832,"[{""event"":""fullscreenenter"",""trial"":1,""time"":3238}]",NA,NA,NA,NA,NA,2,#D89F1C,#3386FF,0,0,1,38,1,437.10000002384186,37,1,1218.600000023842,0,1,experiment,NA,NA,1,0.7,0.3,2,3,82,2,NA
fcp-trial,122,600871,0.0-91.0-0.0,voc_e2,11832,"[{""event"":""fullscreenenter"",""trial"":1,""time"":3238}]",NA,NA,NA,NA,NA,6,#741CD8,#D8271C,10,10,0,38,1,414.69999998807907,39,0,646.5,10,1,experiment,NA,NA,2,0.5,0.5,5,4,83,2,NA
fcp-trial,123,603251,0.0-92.0-0.0,voc_e2,11832,"[{""event"":""fullscreenenter"",""trial"":1,""time"":3238}]",NA,NA,NA,NA,NA,1,#3386FF,#D89F1C,0,10,0,38,1,378.89999997615814,39,0,496.5,10,1,experiment,NA,NA,1,0.3,0.7,3,2,84,2,NA
fcp-trial,124,605408,0.0-93.0-0.0,voc_e2,11832,"[{""event"":""fullscreenenter"",""trial"":1,""time"":3238}]",NA,NA,NA,NA,NA,5,#FA92F8,#1CD855,10,0,1,38,1,382.89999997615814,37,1,267.39999997615814,10,1,experiment,NA,NA,0,0.9,0.1,0,1,85,2,NA
fcp-trial,125,607885,0.0-94.0-0.0,voc_e2,11832,"[{""event"":""fullscreenenter"",""trial"":1,""time"":3238}]",NA,NA,NA,NA,NA,5,#D89F1C,#3386FF,10,10,1,38,1,326.69999998807907,39,0,641.2000000476837,10,0,experiment,NA,NA,1,0.7,0.3,2,3,86,2,NA
fcp-trial,126,610105,0.0-95.0-0.0,voc_e2,11832,"[{""event"":""fullscreenenter"",""trial"":1,""time"":3238}]",NA,NA,NA,NA,NA,1,#FA92F8,#1CD855,10,0,1,38,1,346.7999999523163,37,1,366.60000002384186,10,1,experiment,NA,NA,0,0.9,0.1,0,1,87,2,NA
fcp-trial,127,612952,0.0-96.0-0.0,voc_e2,11832,"[{""event"":""fullscreenenter"",""trial"":1,""time"":3238}]",NA,NA,NA,NA,NA,2,#3386FF,#D89F1C,0,10,0,38,1,459,37,1,881.8000000119209,0,0,experiment,NA,NA,1,0.3,0.7,3,2,88,2,NA
fcp-trial,128,615240,0.0-97.0-0.0,voc_e2,11832,"[{""event"":""fullscreenenter"",""trial"":1,""time"":3238}]",NA,NA,NA,NA,NA,3,#FA92F8,#1CD855,10,0,1,38,1,406.19999998807907,37,1,374.60000002384186,10,1,experiment,NA,NA,0,0.9,0.1,0,1,89,2,NA
fcp-trial,129,617951,0.0-98.0-0.0,voc_e2,11832,"[{""event"":""fullscreenenter"",""trial"":1,""time"":3238}]",NA,NA,NA,NA,NA,1,#D8271C,#741CD8,10,0,1,38,1,439,37,1,761,10,1,experiment,NA,NA,2,0.5,0.5,4,5,90,2,NA
fcp-trial,130,620205,0.0-99.0-0.0,voc_e2,11832,"[{""event"":""fullscreenenter"",""trial"":1,""time"":3238}]",NA,NA,NA,NA,NA,0,#D8271C,#741CD8,0,0,1,38,1,430.5,37,1,316.9000000357628,0,1,experiment,NA,NA,2,0.5,0.5,4,5,91,3,NA
fcp-trial,131,622557,0.0-100.0-0.0,voc_e2,11832,"[{""event"":""fullscreenenter"",""trial"":1,""time"":3238}]",NA,NA,NA,NA,NA,4,#D8271C,#741CD8,0,0,1,40,0,392.5,37,1,452.5,0,1,experiment,NA,NA,2,0.5,0.5,4,5,92,3,NA
fcp-trial,132,625186,0.0-101.0-0.0,voc_e2,11832,"[{""event"":""fullscreenenter"",""trial"":1,""time"":3238}]",NA,NA,NA,NA,NA,0,#D89F1C,#3386FF,10,0,1,38,1,538.8000000119209,39,0,582.8999999761581,0,0,experiment,NA,NA,1,0.7,0.3,2,3,93,3,NA
fcp-trial,133,627552,0.0-102.0-0.0,voc_e2,11832,"[{""event"":""fullscreenenter"",""trial"":1,""time"":3238}]",NA,NA,NA,NA,NA,6,#1CD855,#FA92F8,10,10,0,38,1,311.80000001192093,39,0,548.5999999642372,10,1,experiment,NA,NA,0,0.1,0.9,1,0,94,3,NA
fcp-trial,134,630126,0.0-103.0-0.0,voc_e2,11832,"[{""event"":""fullscreenenter"",""trial"":1,""time"":3238}]",NA,NA,NA,NA,NA,6,#741CD8,#D8271C,0,10,0,38,1,377.5,39,0,690.3999999761581,10,1,experiment,NA,NA,2,0.5,0.5,5,4,95,3,NA
fcp-trial,135,632507,0.0-104.0-0.0,voc_e2,11832,"[{""event"":""fullscreenenter"",""trial"":1,""time"":3238}]",NA,NA,NA,NA,NA,2,#FA92F8,#1CD855,10,0,1,38,1,555.6999999880791,37,1,319.10000002384186,10,1,experiment,NA,NA,0,0.9,0.1,0,1,96,3,NA
fcp-trial,136,634910,0.0-105.0-0.0,voc_e2,11832,"[{""event"":""fullscreenenter"",""trial"":1,""time"":3238}]",NA,NA,NA,NA,NA,4,#D89F1C,#3386FF,10,0,1,38,1,437.39999997615814,37,1,456.9000000357628,10,1,experiment,NA,NA,1,0.7,0.3,2,3,97,3,NA
fcp-trial,137,637020,0.0-106.0-0.0,voc_e2,11832,"[{""event"":""fullscreenenter"",""trial"":1,""time"":3238}]",NA,NA,NA,NA,NA,0,#FA92F8,#1CD855,10,0,1,38,1,275.69999998807907,37,1,327.80000001192093,10,1,experiment,NA,NA,0,0.9,0.1,0,1,98,3,NA
fcp-trial,138,639211,0.0-107.0-0.0,voc_e2,11832,"[{""event"":""fullscreenenter"",""trial"":1,""time"":3238}]",NA,NA,NA,NA,NA,2,#D8271C,#741CD8,10,10,1,38,1,276.89999997615814,39,0,408.199999988079,10,0,experiment,NA,NA,2,0.5,0.5,4,5,99,3,NA
fcp-trial,139,641557,0.0-108.0-0.0,voc_e2,11832,"[{""event"":""fullscreenenter"",""trial"":1,""time"":3238}]",NA,NA,NA,NA,NA,5,#D8271C,#741CD8,0,10,1,38,1,333.89999997615814,39,0,505.89999997615814,10,0,experiment,NA,NA,2,0.5,0.5,4,5,100,3,NA
fcp-trial,140,643872,0.0-109.0-0.0,voc_e2,11832,"[{""event"":""fullscreenenter"",""trial"":1,""time"":3238}]",NA,NA,NA,NA,NA,1,#D89F1C,#3386FF,10,0,1,38,1,412.39999997615814,39,0,393.60000002384186,0,0,experiment,NA,NA,1,0.7,0.3,2,3,101,3,NA
fcp-trial,141,645990,0.0-110.0-0.0,voc_e2,11832,"[{""event"":""fullscreenenter"",""trial"":1,""time"":3238}]",NA,NA,NA,NA,NA,4,#FA92F8,#1CD855,0,0,1,38,1,343.80000001192093,37,1,268.4000000357628,0,1,experiment,NA,NA,0,0.9,0.1,0,1,102,3,NA
fcp-trial,142,648788,0.0-111.0-0.0,voc_e2,11832,"[{""event"":""fullscreenenter"",""trial"":1,""time"":3238}]",NA,NA,NA,NA,NA,6,#3386FF,#D89F1C,0,0,0,38,1,781.4000000357628,39,0,505.9000000357628,0,1,experiment,NA,NA,1,0.3,0.7,3,2,103,3,NA
fcp-trial,143,651639,0.0-112.0-0.0,voc_e2,11832,"[{""event"":""fullscreenenter"",""trial"":1,""time"":3238}]",NA,NA,NA,NA,NA,3,#3386FF,#D89F1C,0,10,0,38,1,627,37,1,716.1999999880791,0,0,experiment,NA,NA,1,0.3,0.7,3,2,104,3,NA
fcp-trial,144,654771,0.0-113.0-0.0,voc_e2,11832,"[{""event"":""fullscreenenter"",""trial"":1,""time"":3238}]",NA,NA,NA,NA,NA,3,#741CD8,#D8271C,10,0,0,40,0,574.5999999642372,37,1,1050.100000023842,10,0,experiment,NA,NA,2,0.5,0.5,5,4,105,3,NA
audio-instructions,145,660290,0.0-114.0,voc_e2,11832,"[{""event"":""fullscreenenter"",""trial"":1,""time"":3238}]",NA,871.7000000476837,static/audio/pause.wav,NA,0,NA,NA,NA,NA,NA,NA,NA,NA,NA,NA,NA,NA,NA,NA,NA,NA,NA,NA,NA,NA,NA,NA,NA,NA,NA
fcp-trial,146,663632,0.0-115.0-0.0,voc_e2,11832,"[{""event"":""fullscreenenter"",""trial"":1,""time"":3238}]",NA,NA,NA,NA,NA,6,#741CD8,#D8271C,0,10,0,38,1,1525.3999999761581,39,0,305.60000002384186,10,1,experiment,NA,NA,2,0.5,0.5,5,4,106,3,NA
fcp-trial,147,665793,0.0-116.0-0.0,voc_e2,11832,"[{""event"":""fullscreenenter"",""trial"":1,""time"":3238}]",NA,NA,NA,NA,NA,6,#3386FF,#D89F1C,0,10,0,38,1,271,39,0,380.800000011921,10,1,experiment,NA,NA,1,0.3,0.7,3,2,107,3,NA
fcp-trial,148,667971,0.0-117.0-0.0,voc_e2,11832,"[{""event"":""fullscreenenter"",""trial"":1,""time"":3238}]",NA,NA,NA,NA,NA,5,#D89F1C,#3386FF,10,10,1,38,1,287.89999997615814,39,0,382.300000011921,10,0,experiment,NA,NA,1,0.7,0.3,2,3,108,3,NA
fcp-trial,149,670154,0.0-118.0-0.0,voc_e2,11832,"[{""event"":""fullscreenenter"",""trial"":1,""time"":3238}]",NA,NA,NA,NA,NA,6,#1CD855,#FA92F8,10,10,0,38,1,373,39,0,304.9000000357628,10,1,experiment,NA,NA,0,0.1,0.9,1,0,109,3,NA
fcp-trial,150,672260,0.0-119.0-0.0,voc_e2,11832,"[{""event"":""fullscreenenter"",""trial"":1,""time"":3238}]",NA,NA,NA,NA,NA,3,#741CD8,#D8271C,0,10,0,38,1,278.7000000476837,37,1,319.69999998807907,0,0,experiment,NA,NA,2,0.5,0.5,5,4,110,3,NA
fcp-trial,151,674434,0.0-120.0-0.0,voc_e2,11832,"[{""event"":""fullscreenenter"",""trial"":1,""time"":3238}]",NA,NA,NA,NA,NA,1,#1CD855,#FA92F8,0,10,0,38,1,337.4000000357628,39,0,327.69999998807907,10,1,experiment,NA,NA,0,0.1,0.9,1,0,111,3,NA
fcp-trial,152,676820,0.0-121.0-0.0,voc_e2,11832,"[{""event"":""fullscreenenter"",""trial"":1,""time"":3238}]",NA,NA,NA,NA,NA,2,#3386FF,#D89F1C,0,10,0,38,1,399.19999998807907,37,1,482,0,0,experiment,NA,NA,1,0.3,0.7,3,2,112,3,NA
fcp-trial,153,679038,0.0-122.0-0.0,voc_e2,11832,"[{""event"":""fullscreenenter"",""trial"":1,""time"":3238}]",NA,NA,NA,NA,NA,4,#3386FF,#D89F1C,0,10,0,38,1,301,39,0,410.39999997615814,10,1,experiment,NA,NA,1,0.3,0.7,3,2,113,3,NA
fcp-trial,154,681178,0.0-123.0-0.0,voc_e2,11832,"[{""event"":""fullscreenenter"",""trial"":1,""time"":3238}]",NA,NA,NA,NA,NA,2,#1CD855,#FA92F8,0,0,0,38,1,311,39,0,321.89999997615814,0,1,experiment,NA,NA,0,0.1,0.9,1,0,114,3,NA
fcp-trial,155,683895,0.0-124.0-0.0,voc_e2,11832,"[{""event"":""fullscreenenter"",""trial"":1,""time"":3238}]",NA,NA,NA,NA,NA,5,#D8271C,#741CD8,10,10,1,38,1,377.4000000357628,39,0,831,10,0,experiment,NA,NA,2,0.5,0.5,4,5,115,3,NA
fcp-trial,156,686107,0.0-125.0-0.0,voc_e2,11832,"[{""event"":""fullscreenenter"",""trial"":1,""time"":3238}]",NA,NA,NA,NA,NA,0,#741CD8,#D8271C,10,10,0,38,1,304.19999998807907,39,0,399.39999997615814,10,1,experiment,NA,NA,2,0.5,0.5,5,4,116,3,NA
fcp-trial,157,688271,0.0-126.0-0.0,voc_e2,11832,"[{""event"":""fullscreenenter"",""trial"":1,""time"":3238}]",NA,NA,NA,NA,NA,1,#D89F1C,#3386FF,10,0,1,38,1,308.30000001192093,37,1,350.7000000476837,10,1,experiment,NA,NA,1,0.7,0.3,2,3,117,3,NA
fcp-trial,158,690356,0.0-127.0-0.0,voc_e2,11832,"[{""event"":""fullscreenenter"",""trial"":1,""time"":3238}]",NA,NA,NA,NA,NA,5,#1CD855,#FA92F8,0,10,0,38,1,309.0999999642372,39,0,269.5999999642372,10,1,experiment,NA,NA,0,0.1,0.9,1,0,118,3,NA
fcp-trial,159,692489,0.0-128.0-0.0,voc_e2,11832,"[{""event"":""fullscreenenter"",""trial"":1,""time"":3238}]",NA,NA,NA,NA,NA,0,#FA92F8,#1CD855,10,0,1,38,1,326.19999998807907,39,0,300.19999998807907,0,0,experiment,NA,NA,0,0.9,0.1,0,1,119,3,NA
fcp-trial,160,694756,0.0-129.0-0.0,voc_e2,11832,"[{""event"":""fullscreenenter"",""trial"":1,""time"":3238}]",NA,NA,NA,NA,NA,3,#D89F1C,#3386FF,10,10,1,38,1,307.39999997615814,37,1,450.699999988079,10,1,experiment,NA,NA,1,0.7,0.3,2,3,120,3,NA
fcp-trial,161,697222,0.0-130.0-0.0,voc_e2,11832,"[{""event"":""fullscreenenter"",""trial"":1,""time"":3238}]",NA,NA,NA,NA,NA,4,#741CD8,#D8271C,10,0,0,38,1,413,37,1,544.8999999761581,10,0,experiment,NA,NA,2,0.5,0.5,5,4,121,3,NA
fcp-trial,162,699542,0.0-131.0-0.0,voc_e2,11832,"[{""event"":""fullscreenenter"",""trial"":1,""time"":3238}]",NA,NA,NA,NA,NA,0,#3386FF,#D89F1C,10,10,0,38,1,391.80000001192093,39,0,421.5999999642372,10,1,experiment,NA,NA,1,0.3,0.7,3,2,122,3,NA
fcp-trial,163,701775,0.0-132.0-0.0,voc_e2,11832,"[{""event"":""fullscreenenter"",""trial"":1,""time"":3238}]",NA,NA,NA,NA,NA,4,#1CD855,#FA92F8,0,10,0,38,1,297.19999998807907,39,0,427.60000002384186,10,1,experiment,NA,NA,0,0.1,0.9,1,0,123,3,NA
fcp-trial,164,703959,0.0-133.0-0.0,voc_e2,11832,"[{""event"":""fullscreenenter"",""trial"":1,""time"":3238}]",NA,NA,NA,NA,NA,1,#D8271C,#741CD8,0,10,1,38,1,307.10000002384186,37,1,369.199999988079,0,1,experiment,NA,NA,2,0.5,0.5,4,5,124,3,NA
fcp-trial,165,706143,0.0-134.0-0.0,voc_e2,11832,"[{""event"":""fullscreenenter"",""trial"":1,""time"":3238}]",NA,NA,NA,NA,NA,3,#FA92F8,#1CD855,10,0,1,38,1,328.5999999642372,39,0,347,0,0,experiment,NA,NA,0,0.9,0.1,0,1,125,3,NA
fcp-trial,166,708458,0.0-135.0-0.0,voc_e2,11832,"[{""event"":""fullscreenenter"",""trial"":1,""time"":3238}]",NA,NA,NA,NA,NA,2,#741CD8,#D8271C,10,10,0,38,1,321.30000001192093,39,0,485.699999988079,10,1,experiment,NA,NA,2,0.5,0.5,5,4,126,3,NA
fcp-trial,167,710989,0.0-136.0-0.0,voc_e2,11832,"[{""event"":""fullscreenenter"",""trial"":1,""time"":3238}]",NA,NA,NA,NA,NA,2,#1CD855,#FA92F8,0,10,0,38,1,358,39,0,666.5,10,1,experiment,NA,NA,0,0.1,0.9,1,0,127,3,NA
fcp-trial,168,713274,0.0-137.0-0.0,voc_e2,11832,"[{""event"":""fullscreenenter"",""trial"":1,""time"":3238}]",NA,NA,NA,NA,NA,5,#741CD8,#D8271C,10,10,0,38,1,459.30000001192093,37,1,320,10,0,experiment,NA,NA,2,0.5,0.5,5,4,128,3,NA
fcp-trial,169,715644,0.0-138.0-0.0,voc_e2,11832,"[{""event"":""fullscreenenter"",""trial"":1,""time"":3238}]",NA,NA,NA,NA,NA,6,#D89F1C,#3386FF,0,0,1,38,1,471.80000001192093,39,0,390,0,0,experiment,NA,NA,1,0.7,0.3,2,3,129,3,NA
fcp-trial,170,717895,0.0-139.0-0.0,voc_e2,11832,"[{""event"":""fullscreenenter"",""trial"":1,""time"":3238}]",NA,NA,NA,NA,NA,5,#1CD855,#FA92F8,0,10,0,38,1,482.4000000357628,39,0,261.60000002384186,10,1,experiment,NA,NA,0,0.1,0.9,1,0,130,3,NA
fcp-trial,171,720153,0.0-140.0-0.0,voc_e2,11832,"[{""event"":""fullscreenenter"",""trial"":1,""time"":3238}]",NA,NA,NA,NA,NA,1,#3386FF,#D89F1C,0,0,0,38,1,435.80000001192093,39,0,314.10000002384186,0,1,experiment,NA,NA,1,0.3,0.7,3,2,131,3,NA
fcp-trial,172,722608,0.0-141.0-0.0,voc_e2,11832,"[{""event"":""fullscreenenter"",""trial"":1,""time"":3238}]",NA,NA,NA,NA,NA,4,#741CD8,#D8271C,0,10,0,38,1,663.5999999642372,37,1,285.5999999642372,0,0,experiment,NA,NA,2,0.5,0.5,5,4,132,3,NA
fcp-trial,173,724773,0.0-142.0-0.0,voc_e2,11832,"[{""event"":""fullscreenenter"",""trial"":1,""time"":3238}]",NA,NA,NA,NA,NA,4,#FA92F8,#1CD855,10,0,1,38,1,257.89999997615814,37,1,399.9000000357628,10,1,experiment,NA,NA,0,0.9,0.1,0,1,133,3,NA
fcp-trial,174,727074,0.0-143.0-0.0,voc_e2,11832,"[{""event"":""fullscreenenter"",""trial"":1,""time"":3238}]",NA,NA,NA,NA,NA,3,#D8271C,#741CD8,0,10,1,40,0,359,39,0,435.0999999642372,10,0,experiment,NA,NA,2,0.5,0.5,4,5,134,3,NA
fcp-trial,175,730106,0.0-144.0-0.0,voc_e2,11832,"[{""event"":""fullscreenenter"",""trial"":1,""time"":3238}]",NA,NA,NA,NA,NA,6,#FA92F8,#1CD855,10,0,1,40,0,1021.9000000357628,39,0,503.5,0,0,experiment,NA,NA,0,0.9,0.1,0,1,135,3,NA
fcp-trial,176,732559,0.0-145.0-0.0,voc_e2,11832,"[{""event"":""fullscreenenter"",""trial"":1,""time"":3238}]",NA,NA,NA,NA,NA,2,#D89F1C,#3386FF,0,0,1,38,1,508.9000000357628,37,1,435.800000011921,0,1,experiment,NA,NA,1,0.7,0.3,2,3,136,4,NA
fcp-trial,177,734912,0.0-146.0-0.0,voc_e2,11832,"[{""event"":""fullscreenenter"",""trial"":1,""time"":3238}]",NA,NA,NA,NA,NA,5,#D89F1C,#3386FF,10,10,1,38,1,488.39999997615814,39,0,357.60000002384186,10,0,experiment,NA,NA,1,0.7,0.3,2,3,137,4,NA
fcp-trial,178,737177,0.0-147.0-0.0,voc_e2,11832,"[{""event"":""fullscreenenter"",""trial"":1,""time"":3238}]",NA,NA,NA,NA,NA,0,#1CD855,#FA92F8,10,10,0,38,1,450.69999998807907,39,0,305.89999997615814,10,1,experiment,NA,NA,0,0.1,0.9,1,0,138,4,NA
fcp-trial,179,741070,0.0-148.0-0.0,voc_e2,11832,"[{""event"":""fullscreenenter"",""trial"":1,""time"":3238}]",NA,NA,NA,NA,NA,1,#741CD8,#D8271C,10,0,0,40,0,1584.0999999642372,37,1,801.1999999880791,10,0,experiment,NA,NA,2,0.5,0.5,5,4,139,4,NA
fcp-trial,180,744071,0.0-149.0-0.0,voc_e2,11832,"[{""event"":""fullscreenenter"",""trial"":1,""time"":3238}]",NA,NA,NA,NA,NA,1,#1CD855,#FA92F8,10,10,0,38,1,494.19999998807907,39,0,1002.1999999880792,10,1,experiment,NA,NA,0,0.1,0.9,1,0,140,4,NA
fcp-trial,181,746771,0.0-150.0-0.0,voc_e2,11832,"[{""event"":""fullscreenenter"",""trial"":1,""time"":3238}]",NA,NA,NA,NA,NA,6,#D8271C,#741CD8,10,10,1,38,1,432,39,0,759.6000000238419,10,0,experiment,NA,NA,2,0.5,0.5,4,5,141,4,NA
fcp-trial,182,749352,0.0-151.0-0.0,voc_e2,11832,"[{""event"":""fullscreenenter"",""trial"":1,""time"":3238}]",NA,NA,NA,NA,NA,0,#D89F1C,#3386FF,0,0,1,40,0,458.69999998807907,37,1,618.1999999880791,0,1,experiment,NA,NA,1,0.7,0.3,2,3,142,4,NA
fcp-trial,183,752275,0.0-152.0-0.0,voc_e2,11832,"[{""event"":""fullscreenenter"",""trial"":1,""time"":3238}]",NA,NA,NA,NA,NA,0,#D8271C,#741CD8,0,10,1,38,1,930.7999999523163,37,1,486.60000002384186,0,1,experiment,NA,NA,2,0.5,0.5,4,5,143,4,NA
fcp-trial,184,755089,0.0-153.0-0.0,voc_e2,11832,"[{""event"":""fullscreenenter"",""trial"":1,""time"":3238}]",NA,NA,NA,NA,NA,4,#D89F1C,#3386FF,0,0,1,38,1,669.1999999880791,39,0,638.8000000119209,0,0,experiment,NA,NA,1,0.7,0.3,2,3,144,4,NA
fcp-trial,185,757322,0.0-154.0-0.0,voc_e2,11832,"[{""event"":""fullscreenenter"",""trial"":1,""time"":3238}]",NA,NA,NA,NA,NA,3,#1CD855,#FA92F8,0,10,0,38,1,359.89999997615814,39,0,366.7000000476837,10,1,experiment,NA,NA,0,0.1,0.9,1,0,145,4,NA
fcp-trial,186,759832,0.0-155.0-0.0,voc_e2,11832,"[{""event"":""fullscreenenter"",""trial"":1,""time"":3238}]",NA,NA,NA,NA,NA,2,#741CD8,#D8271C,0,0,0,38,1,557.8000000119209,37,1,444,0,0,experiment,NA,NA,2,0.5,0.5,5,4,146,4,NA
fcp-trial,187,762142,0.0-156.0-0.0,voc_e2,11832,"[{""event"":""fullscreenenter"",""trial"":1,""time"":3238}]",NA,NA,NA,NA,NA,3,#3386FF,#D89F1C,10,0,0,38,1,382.39999997615814,39,0,420.300000011921,0,1,experiment,NA,NA,1,0.3,0.7,3,2,147,4,NA
fcp-trial,188,764438,0.0-157.0-0.0,voc_e2,11832,"[{""event"":""fullscreenenter"",""trial"":1,""time"":3238}]",NA,NA,NA,NA,NA,0,#D89F1C,#3386FF,10,10,1,38,1,390.60000002384186,39,0,398.4000000357628,10,0,experiment,NA,NA,1,0.7,0.3,2,3,148,4,NA
fcp-trial,189,766793,0.0-158.0-0.0,voc_e2,11832,"[{""event"":""fullscreenenter"",""trial"":1,""time"":3238}]",NA,NA,NA,NA,NA,2,#D8271C,#741CD8,0,10,1,38,1,425,39,0,422,10,0,experiment,NA,NA,2,0.5,0.5,4,5,149,4,NA
fcp-trial,190,769570,0.0-159.0-0.0,voc_e2,11832,"[{""event"":""fullscreenenter"",""trial"":1,""time"":3238}]",NA,NA,NA,NA,NA,6,#D8271C,#741CD8,10,10,1,38,1,321.60000002384186,37,1,949.5999999642372,10,1,experiment,NA,NA,2,0.5,0.5,4,5,150,4,NA
fcp-trial,191,772089,0.0-160.0-0.0,voc_e2,11832,"[{""event"":""fullscreenenter"",""trial"":1,""time"":3238}]",NA,NA,NA,NA,NA,6,#3386FF,#D89F1C,10,0,0,38,1,477.7000000476837,37,1,534.5,10,0,experiment,NA,NA,1,0.3,0.7,3,2,151,4,NA
fcp-trial,192,774256,0.0-161.0-0.0,voc_e2,11832,"[{""event"":""fullscreenenter"",""trial"":1,""time"":3238}]",NA,NA,NA,NA,NA,5,#FA92F8,#1CD855,10,0,1,38,1,290.80000001192093,37,1,369.800000011921,10,1,experiment,NA,NA,0,0.9,0.1,0,1,152,4,NA
fcp-trial,193,776707,0.0-162.0-0.0,voc_e2,11832,"[{""event"":""fullscreenenter"",""trial"":1,""time"":3238}]",NA,NA,NA,NA,NA,3,#D89F1C,#3386FF,0,10,1,40,0,466.69999998807907,37,1,476.7999999523163,0,1,experiment,NA,NA,1,0.7,0.3,2,3,153,4,NA
fcp-trial,194,779389,0.0-163.0-0.0,voc_e2,11832,"[{""event"":""fullscreenenter"",""trial"":1,""time"":3238}]",NA,NA,NA,NA,NA,1,#FA92F8,#1CD855,10,0,1,38,1,473.10000002384186,37,1,701.0999999642372,10,1,experiment,NA,NA,0,0.9,0.1,0,1,154,4,NA
fcp-trial,195,781772,0.0-164.0-0.0,voc_e2,11832,"[{""event"":""fullscreenenter"",""trial"":1,""time"":3238}]",NA,NA,NA,NA,NA,1,#741CD8,#D8271C,10,10,0,38,1,382.19999998807907,37,1,492.0999999642372,10,0,experiment,NA,NA,2,0.5,0.5,5,4,155,4,NA
fcp-trial,196,784155,0.0-165.0-0.0,voc_e2,11832,"[{""event"":""fullscreenenter"",""trial"":1,""time"":3238}]",NA,NA,NA,NA,NA,2,#D89F1C,#3386FF,0,0,1,38,1,445.5999999642372,37,1,430.4000000357628,0,1,experiment,NA,NA,1,0.7,0.3,2,3,156,4,NA
fcp-trial,197,786404,0.0-166.0-0.0,voc_e2,11832,"[{""event"":""fullscreenenter"",""trial"":1,""time"":3238}]",NA,NA,NA,NA,NA,0,#1CD855,#FA92F8,0,0,0,38,1,374.2000000476837,39,0,365.5,0,1,experiment,NA,NA,0,0.1,0.9,1,0,157,4,NA
fcp-trial,198,789539,0.0-167.0-0.0,voc_e2,11832,"[{""event"":""fullscreenenter"",""trial"":1,""time"":3238}]",NA,NA,NA,NA,NA,5,#D8271C,#741CD8,10,0,1,38,1,345.30000001192093,39,0,1283.600000023842,0,0,experiment,NA,NA,2,0.5,0.5,4,5,158,4,NA
fcp-trial,199,792857,0.0-168.0-0.0,voc_e2,11832,"[{""event"":""fullscreenenter"",""trial"":1,""time"":3238}]",NA,NA,NA,NA,NA,4,#D89F1C,#3386FF,0,0,1,38,1,306.5,39,0,1503.5,0,0,experiment,NA,NA,1,0.7,0.3,2,3,159,4,NA
fcp-trial,200,795107,0.0-169.0-0.0,voc_e2,11832,"[{""event"":""fullscreenenter"",""trial"":1,""time"":3238}]",NA,NA,NA,NA,NA,4,#741CD8,#D8271C,0,0,0,38,1,307.69999998807907,37,1,434.699999988079,0,0,experiment,NA,NA,2,0.5,0.5,5,4,160,4,NA
fcp-trial,201,797361,0.0-170.0-0.0,voc_e2,11832,"[{""event"":""fullscreenenter"",""trial"":1,""time"":3238}]",NA,NA,NA,NA,NA,3,#FA92F8,#1CD855,10,0,1,38,1,373.5,37,1,374.0999999642372,10,1,experiment,NA,NA,0,0.9,0.1,0,1,161,4,NA
fcp-trial,202,799591,0.0-171.0-0.0,voc_e2,11832,"[{""event"":""fullscreenenter"",""trial"":1,""time"":3238}]",NA,NA,NA,NA,NA,4,#FA92F8,#1CD855,10,10,1,38,1,386.60000002384186,37,1,333.89999997615814,10,1,experiment,NA,NA,0,0.9,0.1,0,1,162,4,NA
fcp-trial,203,802674,0.0-172.0-0.0,voc_e2,11832,"[{""event"":""fullscreenenter"",""trial"":1,""time"":3238}]",NA,NA,NA,NA,NA,5,#D89F1C,#3386FF,0,10,1,40,0,1047.199999988079,37,1,527.5,0,1,experiment,NA,NA,1,0.7,0.3,2,3,163,4,NA
fcp-trial,204,805207,0.0-173.0-0.0,voc_e2,11832,"[{""event"":""fullscreenenter"",""trial"":1,""time"":3238}]",NA,NA,NA,NA,NA,6,#FA92F8,#1CD855,10,0,1,38,1,609.5,37,1,415.199999988079,10,1,experiment,NA,NA,0,0.9,0.1,0,1,164,4,NA
fcp-trial,205,807989,0.0-174.0-0.0,voc_e2,11832,"[{""event"":""fullscreenenter"",""trial"":1,""time"":3238}]",NA,NA,NA,NA,NA,0,#D8271C,#741CD8,0,10,1,38,1,539.8999999761581,37,1,734.6000000238419,0,1,experiment,NA,NA,2,0.5,0.5,4,5,165,4,NA
fcp-trial,206,810652,0.0-175.0-0.0,voc_e2,11832,"[{""event"":""fullscreenenter"",""trial"":1,""time"":3238}]",NA,NA,NA,NA,NA,3,#D8271C,#741CD8,10,10,1,38,1,439.60000002384186,39,0,717.3000000119209,10,0,experiment,NA,NA,2,0.5,0.5,4,5,166,4,NA
fcp-trial,207,813124,0.0-176.0-0.0,voc_e2,11832,"[{""event"":""fullscreenenter"",""trial"":1,""time"":3238}]",NA,NA,NA,NA,NA,1,#D89F1C,#3386FF,10,10,1,38,1,554.3000000119209,37,1,411.300000011921,10,1,experiment,NA,NA,1,0.7,0.3,2,3,167,4,NA
fcp-trial,208,815413,0.0-177.0-0.0,voc_e2,11832,"[{""event"":""fullscreenenter"",""trial"":1,""time"":3238}]",NA,NA,NA,NA,NA,2,#1CD855,#FA92F8,0,10,0,38,1,426,39,0,354.60000002384186,10,1,experiment,NA,NA,0,0.1,0.9,1,0,168,4,NA
fcp-trial,209,817926,0.0-178.0-0.0,voc_e2,11832,"[{""event"":""fullscreenenter"",""trial"":1,""time"":3238}]",NA,NA,NA,NA,NA,1,#3386FF,#D89F1C,0,10,0,38,1,435.69999998807907,39,0,570.3000000119209,10,1,experiment,NA,NA,1,0.3,0.7,3,2,169,4,NA
fcp-trial,210,820176,0.0-179.0-0.0,voc_e2,11832,"[{""event"":""fullscreenenter"",""trial"":1,""time"":3238}]",NA,NA,NA,NA,NA,0,#FA92F8,#1CD855,10,10,1,38,1,370.2000000476837,37,1,370.5,10,1,experiment,NA,NA,0,0.9,0.1,0,1,170,4,NA
fcp-trial,211,822565,0.0-180.0-0.0,voc_e2,11832,"[{""event"":""fullscreenenter"",""trial"":1,""time"":3238}]",NA,NA,NA,NA,NA,1,#FA92F8,#1CD855,10,10,1,38,1,406.69999998807907,37,1,474.60000002384186,10,1,experiment,NA,NA,0,0.9,0.1,0,1,171,4,NA
fcp-trial,212,825508,0.0-181.0-0.0,voc_e2,11832,"[{""event"":""fullscreenenter"",""trial"":1,""time"":3238}]",NA,NA,NA,NA,NA,3,#741CD8,#D8271C,10,0,0,38,1,416.2999999523163,39,0,1018.3000000119208,0,1,experiment,NA,NA,2,0.5,0.5,5,4,172,4,NA
fcp-trial,213,828058,0.0-182.0-0.0,voc_e2,11832,"[{""event"":""fullscreenenter"",""trial"":1,""time"":3238}]",NA,NA,NA,NA,NA,0,#D89F1C,#3386FF,10,10,1,38,1,527.1999999880791,39,0,516.4000000357628,10,0,experiment,NA,NA,1,0.7,0.3,2,3,173,4,NA
fcp-trial,214,830356,0.0-183.0-0.0,voc_e2,11832,"[{""event"":""fullscreenenter"",""trial"":1,""time"":3238}]",NA,NA,NA,NA,NA,6,#FA92F8,#1CD855,10,0,1,38,1,511.10000002384186,37,1,279.10000002384186,10,1,experiment,NA,NA,0,0.9,0.1,0,1,174,4,NA
fcp-trial,215,833238,0.0-184.0-0.0,voc_e2,11832,"[{""event"":""fullscreenenter"",""trial"":1,""time"":3238}]",NA,NA,NA,NA,NA,3,#D89F1C,#3386FF,0,0,1,38,1,473.30000001192093,37,1,903.399999976158,0,1,experiment,NA,NA,1,0.7,0.3,2,3,175,4,NA
fcp-trial,216,835756,0.0-185.0-0.0,voc_e2,11832,"[{""event"":""fullscreenenter"",""trial"":1,""time"":3238}]",NA,NA,NA,NA,NA,5,#D89F1C,#3386FF,0,0,1,38,1,525.1999999880791,37,1,485.5,0,1,experiment,NA,NA,1,0.7,0.3,2,3,176,4,NA
fcp-trial,217,838421,0.0-186.0-0.0,voc_e2,11832,"[{""event"":""fullscreenenter"",""trial"":1,""time"":3238}]",NA,NA,NA,NA,NA,1,#D8271C,#741CD8,10,10,1,38,1,641.1999999880791,39,0,515,10,0,experiment,NA,NA,2,0.5,0.5,4,5,177,4,NA
fcp-trial,218,840874,0.0-187.0-0.0,voc_e2,11832,"[{""event"":""fullscreenenter"",""trial"":1,""time"":3238}]",NA,NA,NA,NA,NA,6,#D8271C,#741CD8,10,10,1,38,1,546.3000000119209,39,0,397.699999988079,10,0,experiment,NA,NA,2,0.5,0.5,4,5,178,4,NA
fcp-trial,219,843425,0.0-188.0-0.0,voc_e2,11832,"[{""event"":""fullscreenenter"",""trial"":1,""time"":3238}]",NA,NA,NA,NA,NA,5,#FA92F8,#1CD855,10,0,1,38,1,556,37,1,486.300000011921,10,1,experiment,NA,NA,0,0.9,0.1,0,1,179,4,NA
fcp-trial,220,845704,0.0-189.0-0.0,voc_e2,11832,"[{""event"":""fullscreenenter"",""trial"":1,""time"":3238}]",NA,NA,NA,NA,NA,4,#3386FF,#D89F1C,0,10,0,38,1,408.5999999642372,37,1,363.39999997615814,0,0,experiment,NA,NA,1,0.3,0.7,3,2,180,4,NA
fcp-trial,221,848121,0.0-190.0-0.0,voc_e2,11832,"[{""event"":""fullscreenenter"",""trial"":1,""time"":3238}]",NA,NA,NA,NA,NA,0,#D8271C,#741CD8,10,0,1,38,1,397.80000001192093,39,0,513.6000000238419,0,0,experiment,NA,NA,2,0.5,0.5,4,5,181,5,NA
fcp-trial,222,850310,0.0-191.0-0.0,voc_e2,11832,"[{""event"":""fullscreenenter"",""trial"":1,""time"":3238}]",NA,NA,NA,NA,NA,2,#1CD855,#FA92F8,0,10,0,38,1,360.30000001192093,39,0,320.7000000476837,10,1,experiment,NA,NA,0,0.1,0.9,1,0,182,5,NA
fcp-trial,223,852561,0.0-192.0-0.0,voc_e2,11832,"[{""event"":""fullscreenenter"",""trial"":1,""time"":3238}]",NA,NA,NA,NA,NA,2,#D8271C,#741CD8,10,10,1,38,1,286.4000000357628,39,0,455.39999997615814,10,0,experiment,NA,NA,2,0.5,0.5,4,5,183,5,NA
fcp-trial,224,854738,0.0-193.0-0.0,voc_e2,11832,"[{""event"":""fullscreenenter"",""trial"":1,""time"":3238}]",NA,NA,NA,NA,NA,4,#1CD855,#FA92F8,0,10,0,38,1,355.69999998807907,39,0,312.80000001192093,10,1,experiment,NA,NA,0,0.1,0.9,1,0,184,5,NA
fcp-trial,225,857385,0.0-194.0-0.0,voc_e2,11832,"[{""event"":""fullscreenenter"",""trial"":1,""time"":3238}]",NA,NA,NA,NA,NA,2,#D89F1C,#3386FF,10,10,1,38,1,595.6999999880791,39,0,543.3000000119209,10,0,experiment,NA,NA,1,0.7,0.3,2,3,185,5,NA
fcp-trial,226,859890,0.0-195.0-0.0,voc_e2,11832,"[{""event"":""fullscreenenter"",""trial"":1,""time"":3238}]",NA,NA,NA,NA,NA,4,#D8271C,#741CD8,10,10,1,40,0,564,39,0,434.7000000476837,10,0,experiment,NA,NA,2,0.5,0.5,4,5,186,5,NA
fcp-trial,227,862407,0.0-196.0-0.0,voc_e2,11832,"[{""event"":""fullscreenenter"",""trial"":1,""time"":3238}]",NA,NA,NA,NA,NA,5,#D8271C,#741CD8,0,0,1,38,1,541.1999999880791,39,0,468.4000000357628,0,0,experiment,NA,NA,2,0.5,0.5,4,5,187,5,NA
fcp-trial,228,864607,0.0-197.0-0.0,voc_e2,11832,"[{""event"":""fullscreenenter"",""trial"":1,""time"":3238}]",NA,NA,NA,NA,NA,3,#FA92F8,#1CD855,10,0,1,38,1,321.19999998807907,37,1,371.60000002384186,10,1,experiment,NA,NA,0,0.9,0.1,0,1,188,5,NA
fcp-trial,229,866925,0.0-198.0-0.0,voc_e2,11832,"[{""event"":""fullscreenenter"",""trial"":1,""time"":3238}]",NA,NA,NA,NA,NA,6,#3386FF,#D89F1C,0,10,0,38,1,347.0999999642372,39,0,464,10,1,experiment,NA,NA,1,0.3,0.7,3,2,189,5,NA
fcp-trial,230,869308,0.0-199.0-0.0,voc_e2,11832,"[{""event"":""fullscreenenter"",""trial"":1,""time"":3238}]",NA,NA,NA,NA,NA,2,#3386FF,#D89F1C,0,10,0,38,1,355,39,0,518.8000000119209,10,1,experiment,NA,NA,1,0.3,0.7,3,2,190,5,NA
fcp-trial,231,871472,0.0-200.0-0.0,voc_e2,11832,"[{""event"":""fullscreenenter"",""trial"":1,""time"":3238}]",NA,NA,NA,NA,NA,1,#FA92F8,#1CD855,10,0,1,38,1,305.19999998807907,37,1,351.69999998807907,10,1,experiment,NA,NA,0,0.9,0.1,0,1,191,5,NA
fcp-trial,232,873762,0.0-201.0-0.0,voc_e2,11832,"[{""event"":""fullscreenenter"",""trial"":1,""time"":3238}]",NA,NA,NA,NA,NA,4,#FA92F8,#1CD855,10,0,1,38,1,458.69999998807907,37,1,323.60000002384186,10,1,experiment,NA,NA,0,0.9,0.1,0,1,192,5,NA
fcp-trial,233,876209,0.0-202.0-0.0,voc_e2,11832,"[{""event"":""fullscreenenter"",""trial"":1,""time"":3238}]",NA,NA,NA,NA,NA,4,#741CD8,#D8271C,0,0,0,38,1,519,37,1,419.89999997615814,0,0,experiment,NA,NA,2,0.5,0.5,5,4,193,5,NA
fcp-trial,234,879372,0.0-203.0-0.0,voc_e2,11832,"[{""event"":""fullscreenenter"",""trial"":1,""time"":3238}]",NA,NA,NA,NA,NA,3,#D89F1C,#3386FF,10,0,1,38,1,538.0999999642372,39,0,1116.4000000357628,0,0,experiment,NA,NA,1,0.7,0.3,2,3,194,5,NA
fcp-trial,235,881794,0.0-204.0-0.0,voc_e2,11832,"[{""event"":""fullscreenenter"",""trial"":1,""time"":3238}]",NA,NA,NA,NA,NA,0,#741CD8,#D8271C,10,0,0,38,1,395.89999997615814,39,0,517.6999999880791,0,1,experiment,NA,NA,2,0.5,0.5,5,4,195,5,NA
fcp-trial,236,884003,0.0-205.0-0.0,voc_e2,11832,"[{""event"":""fullscreenenter"",""trial"":1,""time"":3238}]",NA,NA,NA,NA,NA,0,#D89F1C,#3386FF,0,0,1,38,1,383.5,37,1,316.30000001192093,0,1,experiment,NA,NA,1,0.7,0.3,2,3,196,5,NA
fcp-trial,237,886241,0.0-206.0-0.0,voc_e2,11832,"[{""event"":""fullscreenenter"",""trial"":1,""time"":3238}]",NA,NA,NA,NA,NA,0,#FA92F8,#1CD855,10,0,1,38,1,411.10000002384186,37,1,319.80000001192093,10,1,experiment,NA,NA,0,0.9,0.1,0,1,197,5,NA
fcp-trial,238,888592,0.0-207.0-0.0,voc_e2,11832,"[{""event"":""fullscreenenter"",""trial"":1,""time"":3238}]",NA,NA,NA,NA,NA,1,#D8271C,#741CD8,0,0,1,40,0,455.5999999642372,39,0,384.5,0,0,experiment,NA,NA,2,0.5,0.5,4,5,198,5,NA
fcp-trial,239,891372,0.0-208.0-0.0,voc_e2,11832,"[{""event"":""fullscreenenter"",""trial"":1,""time"":3238}]",NA,NA,NA,NA,NA,5,#D89F1C,#3386FF,0,0,1,38,1,462.0999999642372,39,0,808.1999999880791,0,0,experiment,NA,NA,1,0.7,0.3,2,3,199,5,NA
fcp-trial,240,893724,0.0-209.0-0.0,voc_e2,11832,"[{""event"":""fullscreenenter"",""trial"":1,""time"":3238}]",NA,NA,NA,NA,NA,2,#D8271C,#741CD8,10,0,1,38,1,433.80000001192093,39,0,409.9000000357628,0,0,experiment,NA,NA,2,0.5,0.5,4,5,200,5,NA
fcp-trial,241,895951,0.0-210.0-0.0,voc_e2,11832,"[{""event"":""fullscreenenter"",""trial"":1,""time"":3238}]",NA,NA,NA,NA,NA,2,#FA92F8,#1CD855,10,0,1,38,1,356.19999998807907,37,1,361.10000002384186,10,1,experiment,NA,NA,0,0.9,0.1,0,1,201,5,NA
fcp-trial,242,898225,0.0-211.0-0.0,voc_e2,11832,"[{""event"":""fullscreenenter"",""trial"":1,""time"":3238}]",NA,NA,NA,NA,NA,6,#D89F1C,#3386FF,10,0,1,38,1,462.69999998807907,37,1,303.30000001192093,10,1,experiment,NA,NA,1,0.7,0.3,2,3,202,5,NA
fcp-trial,243,900707,0.0-212.0-0.0,voc_e2,11832,"[{""event"":""fullscreenenter"",""trial"":1,""time"":3238}]",NA,NA,NA,NA,NA,5,#D8271C,#741CD8,10,0,1,38,1,504.7999999523163,37,1,468.199999988079,10,1,experiment,NA,NA,2,0.5,0.5,4,5,203,5,NA
fcp-trial,244,903065,0.0-213.0-0.0,voc_e2,11832,"[{""event"":""fullscreenenter"",""trial"":1,""time"":3238}]",NA,NA,NA,NA,NA,6,#D8271C,#741CD8,0,0,1,38,1,457.19999998807907,37,1,393.39999997615814,0,1,experiment,NA,NA,2,0.5,0.5,4,5,204,5,NA
fcp-trial,245,905436,0.0-214.0-0.0,voc_e2,11832,"[{""event"":""fullscreenenter"",""trial"":1,""time"":3238}]",NA,NA,NA,NA,NA,3,#FA92F8,#1CD855,0,0,1,38,1,579.9000000357628,37,1,281.2000000476837,0,1,experiment,NA,NA,0,0.9,0.1,0,1,205,5,NA
fcp-trial,246,907788,0.0-215.0-0.0,voc_e2,11832,"[{""event"":""fullscreenenter"",""trial"":1,""time"":3238}]",NA,NA,NA,NA,NA,4,#3386FF,#D89F1C,0,10,0,38,1,438,39,0,407.89999997615814,10,1,experiment,NA,NA,1,0.3,0.7,3,2,206,5,NA
fcp-trial,247,910037,0.0-216.0-0.0,voc_e2,11832,"[{""event"":""fullscreenenter"",""trial"":1,""time"":3238}]",NA,NA,NA,NA,NA,3,#741CD8,#D8271C,10,10,0,38,1,358.60000002384186,39,0,381.7999999523163,10,1,experiment,NA,NA,2,0.5,0.5,5,4,207,5,NA
fcp-trial,248,912285,0.0-217.0-0.0,voc_e2,11832,"[{""event"":""fullscreenenter"",""trial"":1,""time"":3238}]",NA,NA,NA,NA,NA,5,#1CD855,#FA92F8,0,10,0,38,1,391.7000000476837,39,0,349.5,10,1,experiment,NA,NA,0,0.1,0.9,1,0,208,5,NA
fcp-trial,249,914471,0.0-218.0-0.0,voc_e2,11832,"[{""event"":""fullscreenenter"",""trial"":1,""time"":3238}]",NA,NA,NA,NA,NA,6,#1CD855,#FA92F8,0,0,0,38,1,301.19999998807907,39,0,364.89999997615814,0,1,experiment,NA,NA,0,0.1,0.9,1,0,209,5,NA
fcp-trial,250,916740,0.0-219.0-0.0,voc_e2,11832,"[{""event"":""fullscreenenter"",""trial"":1,""time"":3238}]",NA,NA,NA,NA,NA,1,#D89F1C,#3386FF,0,10,1,38,1,367.60000002384186,37,1,394.89999997615814,0,1,experiment,NA,NA,1,0.7,0.3,2,3,210,5,NA
audio-instructions,251,921783,0.0-220.0,voc_e2,11832,"[{""event"":""fullscreenenter"",""trial"":1,""time"":3238}]",NA,447.5,static/audio/pause.wav,NA,0,NA,NA,NA,NA,NA,NA,NA,NA,NA,NA,NA,NA,NA,NA,NA,NA,NA,NA,NA,NA,NA,NA,NA,NA,NA
fcp-trial,252,925811,0.0-221.0-0.0,voc_e2,11832,"[{""event"":""fullscreenenter"",""trial"":1,""time"":3238}]",NA,NA,NA,NA,NA,0,#741CD8,#D8271C,10,0,0,38,1,2147.800000011921,39,0,367.9000000357628,0,1,experiment,NA,NA,2,0.5,0.5,5,4,211,5,NA
fcp-trial,253,928076,0.0-222.0-0.0,voc_e2,11832,"[{""event"":""fullscreenenter"",""trial"":1,""time"":3238}]",NA,NA,NA,NA,NA,3,#3386FF,#D89F1C,0,10,0,38,1,401.10000002384186,37,1,356.5,0,0,experiment,NA,NA,1,0.3,0.7,3,2,212,5,NA
fcp-trial,254,930193,0.0-223.0-0.0,voc_e2,11832,"[{""event"":""fullscreenenter"",""trial"":1,""time"":3238}]",NA,NA,NA,NA,NA,3,#FA92F8,#1CD855,10,0,1,38,1,355.5,37,1,252.70000004768372,10,1,experiment,NA,NA,0,0.9,0.1,0,1,213,5,NA
fcp-trial,255,933707,0.0-224.0-0.0,voc_e2,11832,"[{""event"":""fullscreenenter"",""trial"":1,""time"":3238}]",NA,NA,NA,NA,NA,5,#D8271C,#741CD8,0,0,1,38,1,393,37,1,1613.0999999642372,0,1,experiment,NA,NA,2,0.5,0.5,4,5,214,5,NA
fcp-trial,256,936109,0.0-225.0-0.0,voc_e2,11832,"[{""event"":""fullscreenenter"",""trial"":1,""time"":3238}]",NA,NA,NA,NA,NA,2,#3386FF,#D89F1C,10,10,0,38,1,571.6999999880791,37,1,321.5,10,0,experiment,NA,NA,1,0.3,0.7,3,2,215,5,NA
fcp-trial,257,938410,0.0-226.0-0.0,voc_e2,11832,"[{""event"":""fullscreenenter"",""trial"":1,""time"":3238}]",NA,NA,NA,NA,NA,0,#1CD855,#FA92F8,0,10,0,38,1,503.19999998807907,39,0,288.5999999642372,10,1,experiment,NA,NA,0,0.1,0.9,1,0,216,5,NA
fcp-trial,258,940775,0.0-227.0-0.0,voc_e2,11832,"[{""event"":""fullscreenenter"",""trial"":1,""time"":3238}]",NA,NA,NA,NA,NA,1,#D8271C,#741CD8,10,10,1,38,1,455.0999999642372,39,0,400.89999997615814,10,0,experiment,NA,NA,2,0.5,0.5,4,5,217,5,NA
fcp-trial,259,942993,0.0-228.0-0.0,voc_e2,11832,"[{""event"":""fullscreenenter"",""trial"":1,""time"":3238}]",NA,NA,NA,NA,NA,0,#D89F1C,#3386FF,10,10,1,38,1,356,39,0,353.5999999642372,10,0,experiment,NA,NA,1,0.7,0.3,2,3,218,5,NA
fcp-trial,260,945360,0.0-229.0-0.0,voc_e2,11832,"[{""event"":""fullscreenenter"",""trial"":1,""time"":3238}]",NA,NA,NA,NA,NA,2,#D8271C,#741CD8,0,0,1,38,1,470.89999997615814,39,0,387.4000000357628,0,0,experiment,NA,NA,2,0.5,0.5,4,5,219,5,NA
fcp-trial,261,947692,0.0-230.0-0.0,voc_e2,11832,"[{""event"":""fullscreenenter"",""trial"":1,""time"":3238}]",NA,NA,NA,NA,NA,3,#D8271C,#741CD8,0,10,1,38,1,472.9000000357628,39,0,348.10000002384186,10,0,experiment,NA,NA,2,0.5,0.5,4,5,220,5,NA
fcp-trial,262,949927,0.0-231.0-0.0,voc_e2,11832,"[{""event"":""fullscreenenter"",""trial"":1,""time"":3238}]",NA,NA,NA,NA,NA,1,#1CD855,#FA92F8,0,0,0,38,1,446.89999997615814,39,0,280.10000002384186,0,1,experiment,NA,NA,0,0.1,0.9,1,0,221,5,NA
fcp-trial,263,952243,0.0-232.0-0.0,voc_e2,11832,"[{""event"":""fullscreenenter"",""trial"":1,""time"":3238}]",NA,NA,NA,NA,NA,4,#D89F1C,#3386FF,10,0,1,38,1,406.69999998807907,39,0,400.699999988079,0,0,experiment,NA,NA,1,0.7,0.3,2,3,222,5,NA
fcp-trial,264,954999,0.0-233.0-0.0,voc_e2,11832,"[{""event"":""fullscreenenter"",""trial"":1,""time"":3238}]",NA,NA,NA,NA,NA,6,#1CD855,#FA92F8,0,10,0,38,1,867.9000000357628,39,0,381.199999988079,10,1,experiment,NA,NA,0,0.1,0.9,1,0,223,5,NA
fcp-trial,265,957258,0.0-234.0-0.0,voc_e2,11832,"[{""event"":""fullscreenenter"",""trial"":1,""time"":3238}]",NA,NA,NA,NA,NA,6,#D89F1C,#3386FF,10,0,1,38,1,431.89999997615814,39,0,317.69999998807907,0,0,experiment,NA,NA,1,0.7,0.3,2,3,224,5,NA
fcp-trial,266,959461,0.0-235.0-0.0,voc_e2,11832,"[{""event"":""fullscreenenter"",""trial"":1,""time"":3238}]",NA,NA,NA,NA,NA,6,#741CD8,#D8271C,10,0,0,38,1,355.2000000476837,37,1,339,10,0,experiment,NA,NA,2,0.5,0.5,5,4,225,5,NA
fcp-trial,267,962139,0.0-236.0-0.0,voc_e2,11832,"[{""event"":""fullscreenenter"",""trial"":1,""time"":3238}]",NA,NA,NA,NA,NA,5,#3386FF,#D89F1C,10,10,0,38,1,404.80000001192093,37,1,763.9000000357628,10,0,experiment,NA,NA,1,0.3,0.7,3,2,226,6,NA
fcp-trial,268,964487,0.0-237.0-0.0,voc_e2,11832,"[{""event"":""fullscreenenter"",""trial"":1,""time"":3238}]",NA,NA,NA,NA,NA,4,#1CD855,#FA92F8,0,10,0,38,1,431,39,0,408.10000002384186,10,1,experiment,NA,NA,0,0.1,0.9,1,0,227,6,NA
fcp-trial,269,968589,0.0-238.0-0.0,voc_e2,11832,"[{""event"":""fullscreenenter"",""trial"":1,""time"":3238}]",NA,NA,NA,NA,NA,2,#FA92F8,#1CD855,10,0,1,40,0,1213.3999999761581,39,0,1383.300000011921,0,0,experiment,NA,NA,0,0.9,0.1,0,1,228,6,NA
fcp-trial,270,971295,0.0-239.0-0.0,voc_e2,11832,"[{""event"":""fullscreenenter"",""trial"":1,""time"":3238}]",NA,NA,NA,NA,NA,5,#FA92F8,#1CD855,10,0,1,38,1,824,37,1,377.5,10,1,experiment,NA,NA,0,0.9,0.1,0,1,229,6,NA
fcp-trial,271,974957,0.0-240.0-0.0,voc_e2,11832,"[{""event"":""fullscreenenter"",""trial"":1,""time"":3238}]",NA,NA,NA,NA,NA,4,#D8271C,#741CD8,10,0,1,38,1,1718.2999999523163,39,0,434.5,0,0,experiment,NA,NA,2,0.5,0.5,4,5,230,6,NA
fcp-trial,272,977448,0.0-241.0-0.0,voc_e2,11832,"[{""event"":""fullscreenenter"",""trial"":1,""time"":3238}]",NA,NA,NA,NA,NA,1,#3386FF,#D89F1C,0,10,0,38,1,448,37,1,532.1999999880791,0,0,experiment,NA,NA,1,0.3,0.7,3,2,231,6,NA
fcp-trial,273,979795,0.0-242.0-0.0,voc_e2,11832,"[{""event"":""fullscreenenter"",""trial"":1,""time"":3238}]",NA,NA,NA,NA,NA,6,#1CD855,#FA92F8,0,10,0,38,1,479.89999997615814,39,0,359.39999997615814,10,1,experiment,NA,NA,0,0.1,0.9,1,0,232,6,NA
fcp-trial,274,982110,0.0-243.0-0.0,voc_e2,11832,"[{""event"":""fullscreenenter"",""trial"":1,""time"":3238}]",NA,NA,NA,NA,NA,0,#3386FF,#D89F1C,10,0,0,38,1,473,37,1,332.7000000476837,10,0,experiment,NA,NA,1,0.3,0.7,3,2,233,6,NA
fcp-trial,275,984277,0.0-244.0-0.0,voc_e2,11832,"[{""event"":""fullscreenenter"",""trial"":1,""time"":3238}]",NA,NA,NA,NA,NA,4,#1CD855,#FA92F8,0,10,0,38,1,385.80000001192093,39,0,273.7999999523163,10,1,experiment,NA,NA,0,0.1,0.9,1,0,234,6,NA
fcp-trial,276,987005,0.0-245.0-0.0,voc_e2,11832,"[{""event"":""fullscreenenter"",""trial"":1,""time"":3238}]",NA,NA,NA,NA,NA,1,#D8271C,#741CD8,10,0,1,38,1,574.1999999880791,39,0,645,0,0,experiment,NA,NA,2,0.5,0.5,4,5,235,6,NA
fcp-trial,277,989106,0.0-246.0-0.0,voc_e2,11832,"[{""event"":""fullscreenenter"",""trial"":1,""time"":3238}]",NA,NA,NA,NA,NA,5,#741CD8,#D8271C,0,10,0,38,1,258.60000002384186,37,1,333.10000002384186,0,0,experiment,NA,NA,2,0.5,0.5,5,4,236,6,NA
fcp-trial,278,991272,0.0-247.0-0.0,voc_e2,11832,"[{""event"":""fullscreenenter"",""trial"":1,""time"":3238}]",NA,NA,NA,NA,NA,0,#FA92F8,#1CD855,10,0,1,38,1,374.69999998807907,37,1,282.89999997615814,10,1,experiment,NA,NA,0,0.9,0.1,0,1,237,6,NA
fcp-trial,279,993444,0.0-248.0-0.0,voc_e2,11832,"[{""event"":""fullscreenenter"",""trial"":1,""time"":3238}]",NA,NA,NA,NA,NA,4,#D89F1C,#3386FF,10,0,1,38,1,370.5,39,0,294,0,0,experiment,NA,NA,1,0.7,0.3,2,3,238,6,NA
fcp-trial,280,995893,0.0-249.0-0.0,voc_e2,11832,"[{""event"":""fullscreenenter"",""trial"":1,""time"":3238}]",NA,NA,NA,NA,NA,1,#D89F1C,#3386FF,0,0,1,38,1,360.60000002384186,37,1,583,0,1,experiment,NA,NA,1,0.7,0.3,2,3,239,6,NA
fcp-trial,281,998228,0.0-250.0-0.0,voc_e2,11832,"[{""event"":""fullscreenenter"",""trial"":1,""time"":3238}]",NA,NA,NA,NA,NA,0,#741CD8,#D8271C,0,10,0,38,1,422.89999997615814,39,0,403.699999988079,10,1,experiment,NA,NA,2,0.5,0.5,5,4,240,6,NA
fcp-trial,282,1000439,0.0-251.0-0.0,voc_e2,11832,"[{""event"":""fullscreenenter"",""trial"":1,""time"":3238}]",NA,NA,NA,NA,NA,2,#D8271C,#741CD8,0,0,1,38,1,386.5,37,1,316.69999998807907,0,1,experiment,NA,NA,2,0.5,0.5,4,5,241,6,NA
fcp-trial,283,1002707,0.0-252.0-0.0,voc_e2,11832,"[{""event"":""fullscreenenter"",""trial"":1,""time"":3238}]",NA,NA,NA,NA,NA,5,#1CD855,#FA92F8,0,10,0,38,1,425,39,0,333.39999997615814,10,1,experiment,NA,NA,0,0.1,0.9,1,0,242,6,NA
fcp-trial,284,1004877,0.0-253.0-0.0,voc_e2,11832,"[{""event"":""fullscreenenter"",""trial"":1,""time"":3238}]",NA,NA,NA,NA,NA,6,#D8271C,#741CD8,0,10,1,38,1,407.5,37,1,254.9000000357628,0,1,experiment,NA,NA,2,0.5,0.5,4,5,243,6,NA
fcp-trial,285,1007776,0.0-254.0-0.0,voc_e2,11832,"[{""event"":""fullscreenenter"",""trial"":1,""time"":3238}]",NA,NA,NA,NA,NA,2,#3386FF,#D89F1C,10,10,0,38,1,420.10000002384186,39,0,970,10,1,experiment,NA,NA,1,0.3,0.7,3,2,244,6,NA
fcp-trial,286,1010020,0.0-255.0-0.0,voc_e2,11832,"[{""event"":""fullscreenenter"",""trial"":1,""time"":3238}]",NA,NA,NA,NA,NA,1,#1CD855,#FA92F8,0,10,0,38,1,422.2000000476837,39,0,314.39999997615814,10,1,experiment,NA,NA,0,0.1,0.9,1,0,245,6,NA
fcp-trial,287,1012277,0.0-256.0-0.0,voc_e2,11832,"[{""event"":""fullscreenenter"",""trial"":1,""time"":3238}]",NA,NA,NA,NA,NA,3,#3386FF,#D89F1C,0,0,0,38,1,410.60000002384186,39,0,338.30000001192093,0,1,experiment,NA,NA,1,0.3,0.7,3,2,246,6,NA
fcp-trial,288,1015756,0.0-257.0-0.0,voc_e2,11832,"[{""event"":""fullscreenenter"",""trial"":1,""time"":3238}]",NA,NA,NA,NA,NA,3,#741CD8,#D8271C,10,10,0,38,1,387.19999998807907,37,1,1582.399999976158,10,0,experiment,NA,NA,2,0.5,0.5,5,4,247,6,NA
fcp-trial,289,1018107,0.0-258.0-0.0,voc_e2,11832,"[{""event"":""fullscreenenter"",""trial"":1,""time"":3238}]",NA,NA,NA,NA,NA,3,#FA92F8,#1CD855,10,0,1,38,1,358.4000000357628,37,1,484.699999988079,10,1,experiment,NA,NA,0,0.9,0.1,0,1,248,6,NA
fcp-trial,290,1020373,0.0-259.0-0.0,voc_e2,11832,"[{""event"":""fullscreenenter"",""trial"":1,""time"":3238}]",NA,NA,NA,NA,NA,4,#D8271C,#741CD8,0,0,1,38,1,329.9000000357628,39,0,425.5,0,0,experiment,NA,NA,2,0.5,0.5,4,5,249,6,NA
fcp-trial,291,1022658,0.0-260.0-0.0,voc_e2,11832,"[{""event"":""fullscreenenter"",""trial"":1,""time"":3238}]",NA,NA,NA,NA,NA,2,#FA92F8,#1CD855,10,0,1,38,1,475.19999998807907,37,1,302.39999997615814,10,1,experiment,NA,NA,0,0.9,0.1,0,1,250,6,NA
fcp-trial,292,1024992,0.0-261.0-0.0,voc_e2,11832,"[{""event"":""fullscreenenter"",""trial"":1,""time"":3238}]",NA,NA,NA,NA,NA,6,#3386FF,#D89F1C,10,10,0,38,1,438.10000002384186,39,0,386.5,10,1,experiment,NA,NA,1,0.3,0.7,3,2,251,6,NA
fcp-trial,293,1027440,0.0-262.0-0.0,voc_e2,11832,"[{""event"":""fullscreenenter"",""trial"":1,""time"":3238}]",NA,NA,NA,NA,NA,5,#D89F1C,#3386FF,10,0,1,38,1,604.8999999761581,37,1,333.19999998807907,10,1,experiment,NA,NA,1,0.7,0.3,2,3,252,6,NA
fcp-trial,294,1029745,0.0-263.0-0.0,voc_e2,11832,"[{""event"":""fullscreenenter"",""trial"":1,""time"":3238}]",NA,NA,NA,NA,NA,3,#D89F1C,#3386FF,10,0,1,38,1,424.2000000476837,37,1,372.300000011921,10,1,experiment,NA,NA,1,0.7,0.3,2,3,253,6,NA
fcp-trial,295,1032076,0.0-264.0-0.0,voc_e2,11832,"[{""event"":""fullscreenenter"",""trial"":1,""time"":3238}]",NA,NA,NA,NA,NA,2,#FA92F8,#1CD855,10,0,1,38,1,421.4000000357628,37,1,401.7000000476837,10,1,experiment,NA,NA,0,0.9,0.1,0,1,254,6,NA
fcp-trial,296,1034476,0.0-265.0-0.0,voc_e2,11832,"[{""event"":""fullscreenenter"",""trial"":1,""time"":3238}]",NA,NA,NA,NA,NA,1,#D8271C,#741CD8,10,0,1,38,1,387.80000001192093,37,1,503.7999999523163,10,1,experiment,NA,NA,2,0.5,0.5,4,5,255,6,NA
fcp-trial,297,1036676,0.0-266.0-0.0,voc_e2,11832,"[{""event"":""fullscreenenter"",""trial"":1,""time"":3238}]",NA,NA,NA,NA,NA,4,#1CD855,#FA92F8,10,10,0,38,1,420.10000002384186,39,0,273,10,1,experiment,NA,NA,0,0.1,0.9,1,0,256,6,NA
fcp-trial,298,1039388,0.0-267.0-0.0,voc_e2,11832,"[{""event"":""fullscreenenter"",""trial"":1,""time"":3238}]",NA,NA,NA,NA,NA,2,#3386FF,#D89F1C,0,0,0,38,1,401.69999998807907,39,0,805.8000000119209,0,1,experiment,NA,NA,1,0.3,0.7,3,2,257,6,NA
fcp-trial,299,1041794,0.0-268.0-0.0,voc_e2,11832,"[{""event"":""fullscreenenter"",""trial"":1,""time"":3238}]",NA,NA,NA,NA,NA,0,#FA92F8,#1CD855,10,0,1,38,1,544.6000000238419,37,1,356.0999999642372,10,1,experiment,NA,NA,0,0.9,0.1,0,1,258,6,NA
fcp-trial,300,1044069,0.0-269.0-0.0,voc_e2,11832,"[{""event"":""fullscreenenter"",""trial"":1,""time"":3238}]",NA,NA,NA,NA,NA,5,#3386FF,#D89F1C,0,0,0,38,1,486.5,39,0,283,0,1,experiment,NA,NA,1,0.3,0.7,3,2,259,6,NA
fcp-trial,301,1047109,0.0-270.0-0.0,voc_e2,11832,"[{""event"":""fullscreenenter"",""trial"":1,""time"":3238}]",NA,NA,NA,NA,NA,5,#741CD8,#D8271C,10,10,0,38,1,455.39999997615814,37,1,1078.899999976158,10,0,experiment,NA,NA,2,0.5,0.5,5,4,260,6,NA
fcp-trial,302,1049626,0.0-271.0-0.0,voc_e2,11832,"[{""event"":""fullscreenenter"",""trial"":1,""time"":3238}]",NA,NA,NA,NA,NA,6,#D89F1C,#3386FF,10,0,1,38,1,610.2999999523163,37,1,399,10,1,experiment,NA,NA,1,0.7,0.3,2,3,261,6,NA
fcp-trial,303,1052724,0.0-272.0-0.0,voc_e2,11832,"[{""event"":""fullscreenenter"",""trial"":1,""time"":3238}]",NA,NA,NA,NA,NA,2,#D8271C,#741CD8,10,0,1,38,1,961.4000000357628,39,0,628.6000000238419,0,0,experiment,NA,NA,2,0.5,0.5,4,5,262,6,NA
fcp-trial,304,1055755,0.0-273.0-0.0,voc_e2,11832,"[{""event"":""fullscreenenter"",""trial"":1,""time"":3238}]",NA,NA,NA,NA,NA,3,#FA92F8,#1CD855,10,0,1,38,1,777,37,1,743.6000000238419,10,1,experiment,NA,NA,0,0.9,0.1,0,1,263,6,NA
fcp-trial,305,1058411,0.0-274.0-0.0,voc_e2,11832,"[{""event"":""fullscreenenter"",""trial"":1,""time"":3238}]",NA,NA,NA,NA,NA,3,#741CD8,#D8271C,10,10,0,38,1,705.5,39,0,443.2000000476837,10,1,experiment,NA,NA,2,0.5,0.5,5,4,264,6,NA
fcp-trial,306,1060825,0.0-275.0-0.0,voc_e2,11832,"[{""event"":""fullscreenenter"",""trial"":1,""time"":3238}]",NA,NA,NA,NA,NA,0,#741CD8,#D8271C,0,0,0,38,1,536.9000000357628,39,0,368.800000011921,0,1,experiment,NA,NA,2,0.5,0.5,5,4,265,6,NA
fcp-trial,307,1063474,0.0-276.0-0.0,voc_e2,11832,"[{""event"":""fullscreenenter"",""trial"":1,""time"":3238}]",NA,NA,NA,NA,NA,0,#D89F1C,#3386FF,0,0,1,38,1,627.1000000238419,37,1,513.2000000476837,0,1,experiment,NA,NA,1,0.7,0.3,2,3,266,6,NA
fcp-trial,308,1066359,0.0-277.0-0.0,voc_e2,11832,"[{""event"":""fullscreenenter"",""trial"":1,""time"":3238}]",NA,NA,NA,NA,NA,4,#D89F1C,#3386FF,0,0,1,40,0,775,37,1,600.3000000119209,0,1,experiment,NA,NA,1,0.7,0.3,2,3,267,6,NA
fcp-trial,309,1068693,0.0-278.0-0.0,voc_e2,11832,"[{""event"":""fullscreenenter"",""trial"":1,""time"":3238}]",NA,NA,NA,NA,NA,1,#1CD855,#FA92F8,0,10,0,38,1,505.60000002384186,39,0,320.0999999642372,10,1,experiment,NA,NA,0,0.1,0.9,1,0,268,6,NA
fcp-trial,310,1070959,0.0-279.0-0.0,voc_e2,11832,"[{""event"":""fullscreenenter"",""trial"":1,""time"":3238}]",NA,NA,NA,NA,NA,4,#D8271C,#741CD8,0,0,1,38,1,405.0999999642372,39,0,351.5999999642372,0,0,experiment,NA,NA,2,0.5,0.5,4,5,269,6,NA
fcp-trial,311,1073289,0.0-280.0-0.0,voc_e2,11832,"[{""event"":""fullscreenenter"",""trial"":1,""time"":3238}]",NA,NA,NA,NA,NA,1,#D89F1C,#3386FF,0,0,1,38,1,438.19999998807907,37,1,382.4000000357628,0,1,experiment,NA,NA,1,0.7,0.3,2,3,270,6,NA
fcp-trial,312,1075493,0.0-281.0-0.0,voc_e2,11832,"[{""event"":""fullscreenenter"",""trial"":1,""time"":3238}]",NA,NA,NA,NA,NA,6,#1CD855,#FA92F8,0,10,0,38,1,358.2000000476837,39,0,337.4000000357628,10,1,experiment,NA,NA,0,0.1,0.9,1,0,271,7,NA
fcp-trial,313,1077808,0.0-282.0-0.0,voc_e2,11832,"[{""event"":""fullscreenenter"",""trial"":1,""time"":3238}]",NA,NA,NA,NA,NA,5,#FA92F8,#1CD855,10,0,1,38,1,452.39999997615814,37,1,353.80000001192093,10,1,experiment,NA,NA,0,0.9,0.1,0,1,272,7,NA
fcp-trial,314,1080171,0.0-283.0-0.0,voc_e2,11832,"[{""event"":""fullscreenenter"",""trial"":1,""time"":3238}]",NA,NA,NA,NA,NA,6,#741CD8,#D8271C,10,10,0,38,1,422.5,37,1,433.5,10,0,experiment,NA,NA,2,0.5,0.5,5,4,273,7,NA
fcp-trial,315,1082441,0.0-284.0-0.0,voc_e2,11832,"[{""event"":""fullscreenenter"",""trial"":1,""time"":3238}]",NA,NA,NA,NA,NA,6,#3386FF,#D89F1C,0,10,0,38,1,328.10000002384186,39,0,435.5,10,1,experiment,NA,NA,1,0.3,0.7,3,2,274,7,NA
fcp-trial,316,1084659,0.0-285.0-0.0,voc_e2,11832,"[{""event"":""fullscreenenter"",""trial"":1,""time"":3238}]",NA,NA,NA,NA,NA,0,#D8271C,#741CD8,0,10,1,38,1,407.5,39,0,301.39999997615814,10,0,experiment,NA,NA,2,0.5,0.5,4,5,275,7,NA
fcp-trial,317,1087060,0.0-286.0-0.0,voc_e2,11832,"[{""event"":""fullscreenenter"",""trial"":1,""time"":3238}]",NA,NA,NA,NA,NA,4,#741CD8,#D8271C,10,0,0,38,1,537.6999999880791,37,1,355.7000000476837,10,0,experiment,NA,NA,2,0.5,0.5,5,4,276,7,NA
fcp-trial,318,1089473,0.0-287.0-0.0,voc_e2,11832,"[{""event"":""fullscreenenter"",""trial"":1,""time"":3238}]",NA,NA,NA,NA,NA,1,#FA92F8,#1CD855,10,0,1,38,1,553.2999999523163,37,1,352.30000001192093,10,1,experiment,NA,NA,0,0.9,0.1,0,1,277,7,NA
fcp-trial,319,1091757,0.0-288.0-0.0,voc_e2,11832,"[{""event"":""fullscreenenter"",""trial"":1,""time"":3238}]",NA,NA,NA,NA,NA,4,#3386FF,#D89F1C,0,10,0,38,1,455.5,39,0,319.10000002384186,10,1,experiment,NA,NA,1,0.3,0.7,3,2,278,7,NA
fcp-trial,320,1094258,0.0-289.0-0.0,voc_e2,11832,"[{""event"":""fullscreenenter"",""trial"":1,""time"":3238}]",NA,NA,NA,NA,NA,1,#741CD8,#D8271C,0,0,0,38,1,640,37,1,350.5,0,0,experiment,NA,NA,2,0.5,0.5,5,4,279,7,NA
fcp-trial,321,1096993,0.0-290.0-0.0,voc_e2,11832,"[{""event"":""fullscreenenter"",""trial"":1,""time"":3238}]",NA,NA,NA,NA,NA,3,#FA92F8,#1CD855,10,0,1,38,1,756.5,37,1,471.4000000357628,10,1,experiment,NA,NA,0,0.9,0.1,0,1,280,7,NA
fcp-trial,322,1099259,0.0-291.0-0.0,voc_e2,11832,"[{""event"":""fullscreenenter"",""trial"":1,""time"":3238}]",NA,NA,NA,NA,NA,0,#1CD855,#FA92F8,0,0,0,38,1,510.0999999642372,39,0,250.39999997615817,0,1,experiment,NA,NA,0,0.1,0.9,1,0,281,7,NA
fcp-trial,323,1101839,0.0-292.0-0.0,voc_e2,11832,"[{""event"":""fullscreenenter"",""trial"":1,""time"":3238}]",NA,NA,NA,NA,NA,1,#3386FF,#D89F1C,0,10,0,38,1,656.9000000357628,37,1,414.89999997615814,0,0,experiment,NA,NA,1,0.3,0.7,3,2,282,7,NA
fcp-trial,324,1104176,0.0-293.0-0.0,voc_e2,11832,"[{""event"":""fullscreenenter"",""trial"":1,""time"":3238}]",NA,NA,NA,NA,NA,2,#FA92F8,#1CD855,10,0,1,38,1,477.89999997615814,37,1,352.69999998807907,10,1,experiment,NA,NA,0,0.9,0.1,0,1,283,7,NA
fcp-trial,325,1107170,0.0-294.0-0.0,voc_e2,11832,"[{""event"":""fullscreenenter"",""trial"":1,""time"":3238}]",NA,NA,NA,NA,NA,2,#741CD8,#D8271C,0,10,0,38,1,862.1999999880791,37,1,625.5,0,0,experiment,NA,NA,2,0.5,0.5,5,4,284,7,NA
fcp-trial,326,1109656,0.0-295.0-0.0,voc_e2,11832,"[{""event"":""fullscreenenter"",""trial"":1,""time"":3238}]",NA,NA,NA,NA,NA,5,#D89F1C,#3386FF,10,0,1,38,1,415.80000001192093,37,1,563.8000000119209,10,1,experiment,NA,NA,1,0.7,0.3,2,3,285,7,NA
fcp-trial,327,1112191,0.0-296.0-0.0,voc_e2,11832,"[{""event"":""fullscreenenter"",""trial"":1,""time"":3238}]",NA,NA,NA,NA,NA,3,#D89F1C,#3386FF,10,0,1,38,1,608.5,37,1,417.7999999523163,10,1,experiment,NA,NA,1,0.7,0.3,2,3,286,7,NA
fcp-trial,328,1114672,0.0-297.0-0.0,voc_e2,11832,"[{""event"":""fullscreenenter"",""trial"":1,""time"":3238}]",NA,NA,NA,NA,NA,4,#FA92F8,#1CD855,0,0,1,38,1,590,37,1,384.5999999642372,0,1,experiment,NA,NA,0,0.9,0.1,0,1,287,7,NA
fcp-trial,329,1117391,0.0-298.0-0.0,voc_e2,11832,"[{""event"":""fullscreenenter"",""trial"":1,""time"":3238}]",NA,NA,NA,NA,NA,5,#741CD8,#D8271C,10,10,0,38,1,784.8999999761581,37,1,428.300000011921,10,0,experiment,NA,NA,2,0.5,0.5,5,4,288,7,NA
fcp-trial,330,1119404,0.0-299.0-0.0,voc_e2,11832,"[{""event"":""fullscreenenter"",""trial"":1,""time"":3238}]",NA,NA,NA,NA,NA,2,#D89F1C,#3386FF,10,0,1,38,1,76.70000004768372,37,1,430.0999999642372,10,1,experiment,NA,NA,1,0.7,0.3,2,3,289,7,NA
fcp-trial,331,1122089,0.0-300.0-0.0,voc_e2,11832,"[{""event"":""fullscreenenter"",""trial"":1,""time"":3238}]",NA,NA,NA,NA,NA,3,#741CD8,#D8271C,10,0,0,40,0,460.4000000357628,37,1,718.5,10,0,experiment,NA,NA,2,0.5,0.5,5,4,290,7,NA
fcp-trial,332,1124273,0.0-301.0-0.0,voc_e2,11832,"[{""event"":""fullscreenenter"",""trial"":1,""time"":3238}]",NA,NA,NA,NA,NA,5,#FA92F8,#1CD855,10,0,1,38,1,345.5999999642372,37,1,330.5999999642372,10,1,experiment,NA,NA,0,0.9,0.1,0,1,291,7,NA
fcp-trial,333,1127056,0.0-302.0-0.0,voc_e2,11832,"[{""event"":""fullscreenenter"",""trial"":1,""time"":3238}]",NA,NA,NA,NA,NA,6,#D8271C,#741CD8,10,0,1,38,1,393,39,0,885.1000000238419,0,0,experiment,NA,NA,2,0.5,0.5,4,5,292,7,NA
fcp-trial,334,1129374,0.0-303.0-0.0,voc_e2,11832,"[{""event"":""fullscreenenter"",""trial"":1,""time"":3238}]",NA,NA,NA,NA,NA,0,#D89F1C,#3386FF,10,10,1,38,1,382.19999998807907,37,1,431.10000002384186,10,1,experiment,NA,NA,1,0.7,0.3,2,3,293,7,NA
fcp-trial,335,1131557,0.0-304.0-0.0,voc_e2,11832,"[{""event"":""fullscreenenter"",""trial"":1,""time"":3238}]",NA,NA,NA,NA,NA,6,#FA92F8,#1CD855,10,10,1,38,1,360.39999997615814,37,1,312.30000001192093,10,1,experiment,NA,NA,0,0.9,0.1,0,1,294,7,NA
fcp-trial,336,1133813,0.0-305.0-0.0,voc_e2,11832,"[{""event"":""fullscreenenter"",""trial"":1,""time"":3238}]",NA,NA,NA,NA,NA,0,#FA92F8,#1CD855,10,0,1,38,1,398.9000000357628,37,1,347.5999999642372,10,1,experiment,NA,NA,0,0.9,0.1,0,1,295,7,NA
fcp-trial,337,1135921,0.0-306.0-0.0,voc_e2,11832,"[{""event"":""fullscreenenter"",""trial"":1,""time"":3238}]",NA,NA,NA,NA,NA,4,#3386FF,#D89F1C,10,0,0,38,1,231.5,39,0,368.39999997615814,0,1,experiment,NA,NA,1,0.3,0.7,3,2,296,7,NA
fcp-trial,338,1138075,0.0-307.0-0.0,voc_e2,11832,"[{""event"":""fullscreenenter"",""trial"":1,""time"":3238}]",NA,NA,NA,NA,NA,3,#3386FF,#D89F1C,0,10,0,38,1,278.69999998807907,39,0,367.800000011921,10,1,experiment,NA,NA,1,0.3,0.7,3,2,297,7,NA
fcp-trial,339,1140228,0.0-308.0-0.0,voc_e2,11832,"[{""event"":""fullscreenenter"",""trial"":1,""time"":3238}]",NA,NA,NA,NA,NA,5,#FA92F8,#1CD855,10,0,1,38,1,387.60000002384186,37,1,256.5999999642372,10,1,experiment,NA,NA,0,0.9,0.1,0,1,298,7,NA
fcp-trial,340,1142491,0.0-309.0-0.0,voc_e2,11832,"[{""event"":""fullscreenenter"",""trial"":1,""time"":3238}]",NA,NA,NA,NA,NA,0,#D89F1C,#3386FF,10,0,1,38,1,428.80000001192093,37,1,326.19999998807907,10,1,experiment,NA,NA,1,0.7,0.3,2,3,299,7,NA
fcp-trial,341,1144878,0.0-310.0-0.0,voc_e2,11832,"[{""event"":""fullscreenenter"",""trial"":1,""time"":3238}]",NA,NA,NA,NA,NA,5,#D8271C,#741CD8,0,10,1,38,1,347.19999998807907,39,0,530.3000000119209,10,0,experiment,NA,NA,2,0.5,0.5,4,5,300,7,NA
fcp-trial,342,1147079,0.0-311.0-0.0,voc_e2,11832,"[{""event"":""fullscreenenter"",""trial"":1,""time"":3238}]",NA,NA,NA,NA,NA,6,#741CD8,#D8271C,0,0,0,38,1,401.7999999523163,37,1,289.5999999642372,0,0,experiment,NA,NA,2,0.5,0.5,5,4,301,7,NA
fcp-trial,343,1149640,0.0-312.0-0.0,voc_e2,11832,"[{""event"":""fullscreenenter"",""trial"":1,""time"":3238}]",NA,NA,NA,NA,NA,3,#FA92F8,#1CD855,10,0,1,38,1,383.39999997615814,37,1,668.5,10,1,experiment,NA,NA,0,0.9,0.1,0,1,302,7,NA
fcp-trial,344,1152506,0.0-313.0-0.0,voc_e2,11832,"[{""event"":""fullscreenenter"",""trial"":1,""time"":3238}]",NA,NA,NA,NA,NA,1,#FA92F8,#1CD855,10,0,1,38,1,1036.199999988079,37,1,323.7000000476837,10,1,experiment,NA,NA,0,0.9,0.1,0,1,303,7,NA
fcp-trial,345,1155207,0.0-314.0-0.0,voc_e2,11832,"[{""event"":""fullscreenenter"",""trial"":1,""time"":3238}]",NA,NA,NA,NA,NA,2,#D89F1C,#3386FF,10,0,1,40,0,688.8000000119209,37,1,503.0999999642372,10,1,experiment,NA,NA,1,0.7,0.3,2,3,304,7,NA
fcp-trial,346,1158281,0.0-315.0-0.0,voc_e2,11832,"[{""event"":""fullscreenenter"",""trial"":1,""time"":3238}]",NA,NA,NA,NA,NA,3,#741CD8,#D8271C,10,10,0,40,0,1089.199999988079,39,0,475.5,10,1,experiment,NA,NA,2,0.5,0.5,5,4,305,7,NA
fcp-trial,347,1160968,0.0-316.0-0.0,voc_e2,11832,"[{""event"":""fullscreenenter"",""trial"":1,""time"":3238}]",NA,NA,NA,NA,NA,1,#D8271C,#741CD8,10,0,1,38,1,801.3999999761581,39,0,378.7999999523163,0,0,experiment,NA,NA,2,0.5,0.5,4,5,306,7,NA
fcp-trial,348,1163360,0.0-317.0-0.0,voc_e2,11832,"[{""event"":""fullscreenenter"",""trial"":1,""time"":3238}]",NA,NA,NA,NA,NA,6,#1CD855,#FA92F8,0,10,0,38,1,545.6999999880791,39,0,339.80000001192093,10,1,experiment,NA,NA,0,0.1,0.9,1,0,307,7,NA
fcp-trial,349,1166039,0.0-318.0-0.0,voc_e2,11832,"[{""event"":""fullscreenenter"",""trial"":1,""time"":3238}]",NA,NA,NA,NA,NA,1,#3386FF,#D89F1C,0,0,0,38,1,737.6000000238419,39,0,433.89999997615814,0,1,experiment,NA,NA,1,0.3,0.7,3,2,308,7,NA
fcp-trial,350,1168772,0.0-319.0-0.0,voc_e2,11832,"[{""event"":""fullscreenenter"",""trial"":1,""time"":3238}]",NA,NA,NA,NA,NA,4,#1CD855,#FA92F8,0,0,0,40,0,528.1999999880791,37,1,698.4000000357628,0,0,experiment,NA,NA,0,0.1,0.9,1,0,309,7,NA
fcp-trial,351,1172205,0.0-320.0-0.0,voc_e2,11832,"[{""event"":""fullscreenenter"",""trial"":1,""time"":3238}]",NA,NA,NA,NA,NA,2,#D8271C,#741CD8,10,0,1,38,1,640.9000000357628,39,0,1282.300000011921,0,0,experiment,NA,NA,2,0.5,0.5,4,5,310,7,NA
fcp-trial,352,1174777,0.0-321.0-0.0,voc_e2,11832,"[{""event"":""fullscreenenter"",""trial"":1,""time"":3238}]",NA,NA,NA,NA,NA,6,#D89F1C,#3386FF,0,0,1,38,1,742.0999999642372,37,1,322.5,0,1,experiment,NA,NA,1,0.7,0.3,2,3,311,7,NA
fcp-trial,353,1177922,0.0-322.0-0.0,voc_e2,11832,"[{""event"":""fullscreenenter"",""trial"":1,""time"":3238}]",NA,NA,NA,NA,NA,2,#FA92F8,#1CD855,10,0,1,38,1,483.80000001192093,37,1,1151.199999988079,10,1,experiment,NA,NA,0,0.9,0.1,0,1,312,7,NA
fcp-trial,354,1182185,0.0-323.0-0.0,voc_e2,11832,"[{""event"":""fullscreenenter"",""trial"":1,""time"":3238}]",NA,NA,NA,NA,NA,5,#D89F1C,#3386FF,10,10,1,38,1,584.6000000238419,37,1,2173.699999988079,10,1,experiment,NA,NA,1,0.7,0.3,2,3,313,7,NA
fcp-trial,355,1184589,0.0-324.0-0.0,voc_e2,11832,"[{""event"":""fullscreenenter"",""trial"":1,""time"":3238}]",NA,NA,NA,NA,NA,0,#741CD8,#D8271C,10,0,0,38,1,429.30000001192093,37,1,467.300000011921,10,0,experiment,NA,NA,2,0.5,0.5,5,4,314,7,NA
fcp-trial,356,1186872,0.0-325.0-0.0,voc_e2,11832,"[{""event"":""fullscreenenter"",""trial"":1,""time"":3238}]",NA,NA,NA,NA,NA,4,#741CD8,#D8271C,10,0,0,38,1,376.30000001192093,37,1,400.5,10,0,experiment,NA,NA,2,0.5,0.5,5,4,315,7,NA
audio-instructions,357,1193825,0.0-326.0,voc_e2,11832,"[{""event"":""fullscreenenter"",""trial"":1,""time"":3238}]",NA,1156.600000023842,static/audio/finished.wav,NA,0,NA,NA,NA,NA,NA,NA,NA,NA,NA,NA,NA,NA,NA,NA,NA,NA,NA,NA,NA,NA,NA,NA,NA,NA,NA
audio-instructions,358,1205095,0.0-327.0-0.0,voc_e2,11832,"[{""event"":""fullscreenenter"",""trial"":1,""time"":3238}]",NA,432.800000011921,static/audio/explicit1.wav,NA,0,NA,NA,NA,NA,NA,NA,NA,NA,NA,NA,NA,NA,NA,NA,NA,NA,NA,NA,NA,NA,NA,NA,NA,NA,NA
audio-instructions,359,1213183,0.0-327.0-1.0,voc_e2,11832,"[{""event"":""fullscreenenter"",""trial"":1,""time"":3238}]",NA,491.89999997615814,static/audio/explicit2.wav,NA,0,NA,NA,NA,NA,NA,NA,NA,NA,NA,NA,NA,NA,NA,NA,NA,NA,NA,NA,NA,NA,NA,NA,NA,NA,NA
image-slider-response,360,1220055,0.0-328.0,voc_e2,11832,"[{""event"":""fullscreenenter"",""trial"":1,""time"":3238}]",NA,6862.5,static/img/machines/machine2.png,NA,NA,NA,NA,NA,NA,NA,NA,NA,NA,NA,NA,NA,NA,NA,NA,explicit,NA,NA,NA,NA,NA,NA,NA,NA,NA,6
image-slider-response,361,1222815,0.0-329.0,voc_e2,11832,"[{""event"":""fullscreenenter"",""trial"":1,""time"":3238}]",NA,2755,static/img/machines/machine1.png,NA,NA,NA,NA,NA,NA,NA,NA,NA,NA,NA,NA,NA,NA,NA,NA,explicit,NA,NA,NA,NA,NA,NA,NA,NA,NA,5
image-slider-response,362,1225336,0.0-330.0,voc_e2,11832,"[{""event"":""fullscreenenter"",""trial"":1,""time"":3238}]",NA,2519.100000023842,static/img/machines/machine4.png,NA,NA,NA,NA,NA,NA,NA,NA,NA,NA,NA,NA,NA,NA,NA,NA,explicit,NA,NA,NA,NA,NA,NA,NA,NA,NA,6
image-slider-response,363,1234983,0.0-331.0,voc_e2,11832,"[{""event"":""fullscreenenter"",""trial"":1,""time"":3238}]",NA,9644.399999976158,static/img/machines/machine6.png,NA,NA,NA,NA,NA,NA,NA,NA,NA,NA,NA,NA,NA,NA,NA,NA,explicit,NA,NA,NA,NA,NA,NA,NA,NA,NA,1
image-slider-response,364,1237588,0.0-332.0,voc_e2,11832,"[{""event"":""fullscreenenter"",""trial"":1,""time"":3238}]",NA,2604,static/img/machines/machine5.png,NA,NA,NA,NA,NA,NA,NA,NA,NA,NA,NA,NA,NA,NA,NA,NA,explicit,NA,NA,NA,NA,NA,NA,NA,NA,NA,9
image-slider-response,365,1240882,0.0-333.0,voc_e2,11832,"[{""event"":""fullscreenenter"",""trial"":1,""time"":3238}]",NA,3291.599999964237,static/img/machines/machine3.png,NA,NA,NA,NA,NA,NA,NA,NA,NA,NA,NA,NA,NA,NA,NA,NA,explicit,NA,NA,NA,NA,NA,NA,NA,NA,NA,5
