subID,trial,leftBandit,rightBandit,selectedBandit,banditKeyResp,RT,accuracy,diff,correct
voc017a,1,bandit90,bandit10,bandit90,1,3.1804,1,0.8,1
voc017a,2,bandit30,bandit90,bandit90,2,2.3525,1,0.6,1
voc017a,3,bandit50a,bandit90,bandit90,2,1.1334,1,0.4,1
voc017a,4,bandit70,bandit90,bandit90,2,1.867,1,0.2,1
voc017a,5,bandit50a,bandit30,bandit30,2,2.8907,-1,0.2,0
voc017a,6,bandit50a,bandit70,bandit70,2,1.0256,1,0.2,1
voc017a,7,bandit50b,bandit30,bandit30,2,2.3001,-1,0.2,0
voc017a,8,bandit50a,bandit50b,bandit50b,2,3.2748,0,0,0
voc017a,9,bandit50b,bandit90,bandit90,2,0.89129,1,0.4,1
voc017a,10,bandit70,bandit30,bandit70,1,1.579,1,0.4,1
voc017a,11,bandit50b,bandit10,bandit50b,1,3.6547,1,0.4,1
voc017a,12,bandit50b,bandit70,bandit70,2,0.96098,1,0.2,1
voc017a,13,bandit30,bandit10,bandit10,2,2.2689,-1,0.2,0
voc017a,14,bandit50a,bandit10,bandit50a,1,2.2142,1,0.4,1
voc017a,15,bandit70,bandit10,bandit70,1,0.87939,1,0.6,1
voc017a,16,bandit10,bandit50a,bandit50a,2,0.84721,1,0.4,1
voc017a,17,bandit90,bandit70,bandit90,1,1.456,1,0.2,1
voc017a,18,bandit30,bandit50b,bandit30,1,4.6717,-1,0.2,0
voc017a,19,bandit10,bandit30,bandit30,2,1.9292,1,0.2,1
voc017a,20,bandit10,bandit90,bandit90,2,0.69529,1,0.8,1
voc017a,21,bandit70,bandit50b,bandit70,1,2.6139,1,0.2,1
voc017a,22,bandit10,bandit50b,bandit50b,2,1.1849,1,0.4,1
voc017a,23,bandit70,bandit50a,bandit70,1,1.6271,1,0.2,1
voc017a,24,bandit50b,bandit50a,bandit50b,1,3.2942,0,0,0
voc017a,25,bandit90,bandit50a,bandit90,1,1.3819,1,0.4,1
voc017a,26,bandit90,bandit30,bandit90,1,1.042,1,0.6,1
voc017a,27,bandit10,bandit70,bandit70,2,1.4189,1,0.6,1
voc017a,28,bandit30,bandit70,bandit70,2,2.7013,1,0.4,1
voc017a,29,bandit90,bandit50b,bandit90,1,0.73161,1,0.4,1
voc017a,30,bandit30,bandit50a,bandit30,1,2.1774,-1,0.2,0
voc017a,31,bandit50a,bandit10,bandit50a,1,1.6376,1,0.4,1
voc017a,32,bandit50a,bandit50b,bandit50b,2,2.0943,0,0,0
voc017a,33,bandit70,bandit90,bandit90,2,5.5747,1,0.2,1
voc017a,34,bandit70,bandit10,bandit70,1,1.292,1,0.6,1
voc017a,35,bandit50b,bandit90,bandit90,2,1.2433,1,0.4,1
voc017a,36,bandit50b,bandit30,bandit30,2,4.0676,-1,0.2,0
voc017a,37,bandit90,bandit10,bandit90,1,0.86121,1,0.8,1
voc017a,38,bandit50a,bandit70,bandit70,2,1.0861,1,0.2,1
voc017a,39,bandit50a,bandit30,bandit30,2,1.6857,-1,0.2,0
voc017a,40,bandit50b,bandit10,bandit50b,1,2.0758,1,0.4,1
voc017a,41,bandit30,bandit10,bandit30,1,1.172,1,0.2,1
voc017a,42,bandit70,bandit30,bandit70,1,2.7527,1,0.4,1
voc017a,43,bandit50b,bandit70,bandit70,2,0.70151,1,0.2,1
voc017a,44,bandit50a,bandit90,bandit90,2,0.81183,1,0.4,1
voc017a,45,bandit30,bandit90,bandit90,2,0.92717,1,0.6,1
voc017a,46,bandit10,bandit70,bandit70,2,0.85266,1,0.6,1
voc017a,47,bandit30,bandit70,bandit70,2,1.3491,1,0.4,1
voc017a,48,bandit70,bandit50a,bandit70,1,2.3616,1,0.2,1
voc017a,49,bandit10,bandit90,bandit90,2,1.4394,1,0.8,1
voc017a,50,bandit90,bandit70,bandit90,1,0.52106,1,0.2,1
voc017a,51,bandit10,bandit30,bandit30,2,1.4375,1,0.2,1
voc017a,52,bandit30,bandit50a,bandit30,1,1.7116,-1,0.2,0
voc017a,53,bandit10,bandit50b,bandit50b,2,1.1427,1,0.4,1
voc017a,54,bandit70,bandit50b,bandit70,1,1.3155,1,0.2,1
voc017a,55,bandit90,bandit50b,bandit90,1,0.67326,1,0.4,1
voc017a,56,bandit30,bandit50b,bandit30,1,3.2415,-1,0.2,0
voc017a,57,bandit90,bandit30,bandit90,1,0.62699,1,0.6,1
voc017a,58,bandit50b,bandit50a,bandit50b,1,3.0133,0,0,0
voc017a,59,bandit90,bandit50a,bandit90,1,0.56751,1,0.4,1
voc017a,60,bandit10,bandit50a,bandit50a,2,0.73948,1,0.4,1
voc017a,61,bandit70,bandit90,bandit90,2,0.8485,1,0.2,1
voc017a,62,bandit50a,bandit50b,bandit50b,2,1.3129,0,0,0
voc017a,63,bandit90,bandit10,bandit90,1,0.86264,1,0.8,1
voc017a,64,bandit30,bandit10,bandit30,1,0.84771,1,0.2,1
voc017a,65,bandit50a,bandit30,bandit30,2,5.2709,-1,0.2,0
voc017a,66,bandit50b,bandit70,bandit70,2,1.0807,1,0.2,1
voc017a,67,bandit70,bandit30,bandit70,1,1.2556,1,0.4,1
voc017a,68,bandit50a,bandit70,bandit70,2,0.91283,1,0.2,1
voc017a,69,bandit50a,bandit90,bandit90,2,0.70286,1,0.4,1
voc017a,70,bandit50a,bandit10,bandit50a,1,1.1099,1,0.4,1
voc017a,71,bandit70,bandit10,bandit70,1,0.82041,1,0.6,1
voc017a,72,bandit50b,bandit10,bandit50b,1,2.4003,1,0.4,1
voc017a,73,bandit50b,bandit90,bandit90,2,0.56929,1,0.4,1
voc017a,74,bandit50b,bandit30,bandit30,2,1.3812,-1,0.2,0
voc017a,75,bandit30,bandit90,bandit90,2,1.8725,1,0.6,1
voc017a,76,bandit10,bandit70,bandit70,2,0.82486,1,0.6,1
voc017a,77,bandit30,bandit70,bandit70,2,1.0905,1,0.4,1
voc017a,78,bandit90,bandit30,bandit90,1,1.433,1,0.6,1
voc017a,79,bandit30,bandit50a,bandit50a,2,4.7865,1,0.2,1
voc017a,80,bandit70,bandit50b,bandit70,1,1.5753,1,0.2,1
voc017a,81,bandit30,bandit50b,bandit30,1,1.156,-1,0.2,0
voc017a,82,bandit50b,bandit50a,bandit50b,1,2.4404,0,0,0
voc017a,83,bandit90,bandit50b,bandit90,1,0.6732,1,0.4,1
voc017a,84,bandit10,bandit50a,bandit50a,2,1.8737,1,0.4,1
voc017a,85,bandit70,bandit50a,bandit70,1,1.5051,1,0.2,1
voc017a,86,bandit90,bandit50a,bandit90,1,0.58416,1,0.4,1
voc017a,87,bandit10,bandit30,bandit30,2,0.67597,1,0.2,1
voc017a,88,bandit10,bandit90,bandit90,2,0.57124,1,0.8,1
voc017a,89,bandit90,bandit70,bandit90,1,0.47109,1,0.2,1
voc017a,90,bandit10,bandit50b,bandit50b,2,1.2787,1,0.4,1
voc018a,1,bandit70,bandit30,bandit70,1,5.5874,1,0.4,1
voc018a,2,bandit50a,bandit30,bandit50a,1,5.2876,1,0.2,1
voc018a,3,bandit50a,bandit90,bandit90,2,0.98419,1,0.4,1
voc018a,4,bandit90,bandit10,bandit90,1,0.71589,1,0.8,1
voc018a,5,bandit50b,bandit90,bandit90,2,0.88901,1,0.4,1
voc018a,6,bandit50a,bandit70,bandit70,2,3.6165,1,0.2,1
voc018a,7,bandit70,bandit10,bandit70,1,9.0105,1,0.6,1
voc018a,8,bandit30,bandit90,bandit90,2,0.93606,1,0.6,1
voc018a,9,bandit50b,bandit10,bandit50b,1,10.813,1,0.4,1
voc018a,10,bandit50b,bandit70,bandit70,2,3.37,1,0.2,1
voc018a,11,bandit30,bandit10,bandit30,1,4.5427,1,0.2,1
voc018a,12,bandit50b,bandit30,bandit50b,1,19.6205,1,0.2,1
voc018a,13,bandit50a,bandit50b,bandit50a,1,2.6287,0,0,0
voc018a,14,bandit50a,bandit10,bandit50a,1,1.3828,1,0.4,1
voc018a,15,bandit70,bandit90,bandit90,2,0.77873,1,0.2,1
voc018a,16,bandit30,bandit50b,bandit50b,2,8.1908,1,0.2,1
voc018a,17,bandit10,bandit50a,bandit50a,2,5.5964,1,0.4,1
voc018a,18,bandit70,bandit50a,bandit70,1,2.7761,1,0.2,1
voc018a,19,bandit10,bandit70,bandit70,2,1.8203,1,0.6,1
voc018a,20,bandit90,bandit70,bandit90,1,1.0703,1,0.2,1
voc018a,21,bandit90,bandit50a,bandit90,1,1.2216,1,0.4,1
voc018a,22,bandit10,bandit30,bandit30,2,8.6328,1,0.2,1
voc018a,23,bandit30,bandit50a,bandit50a,2,10.3567,1,0.2,1
voc018a,24,bandit90,bandit50b,bandit90,1,0.95664,1,0.4,1
voc018a,25,bandit50b,bandit50a,bandit50a,2,4.577,0,0,0
voc018a,26,bandit30,bandit70,bandit70,2,1.7576,1,0.4,1
voc018a,27,bandit10,bandit90,bandit90,2,0.7948,1,0.8,1
voc018a,28,bandit70,bandit50b,bandit70,1,4.7485,1,0.2,1
voc018a,29,bandit10,bandit50b,bandit50b,2,1.5869,1,0.4,1
voc018a,30,bandit90,bandit30,bandit90,1,0.67787,1,0.6,1
voc018a,31,bandit50b,bandit30,bandit50b,1,6.0627,1,0.2,1
voc018a,32,bandit30,bandit90,bandit90,2,0.91265,1,0.6,1
voc018a,33,bandit70,bandit30,bandit70,1,6.3422,1,0.4,1
voc018a,34,bandit50b,bandit90,bandit90,2,0.95679,1,0.4,1
voc018a,35,bandit50a,bandit50b,bandit50a,1,1.449,0,0,0
voc018a,36,bandit50b,bandit70,bandit70,2,4.6101,1,0.2,1
voc018a,37,bandit50a,bandit10,bandit50a,1,1.7021,1,0.4,1
voc018a,38,bandit70,bandit10,bandit70,1,2.6772,1,0.6,1
voc018a,39,bandit50a,bandit70,bandit70,2,3.3887,1,0.2,1
voc018a,40,bandit30,bandit10,bandit30,1,6.7447,1,0.2,1
voc018a,41,bandit50a,bandit90,bandit90,2,1.0721,1,0.4,1
voc018a,42,bandit50b,bandit10,bandit50b,1,3.2479,1,0.4,1
voc018a,43,bandit50a,bandit30,bandit50a,1,4.1688,1,0.2,1
voc018a,44,bandit90,bandit10,bandit90,1,0.63731,1,0.8,1
voc018a,45,bandit70,bandit90,bandit90,2,0.855,1,0.2,1
voc018a,46,bandit90,bandit50a,bandit90,1,0.98331,1,0.4,1
voc018a,47,bandit30,bandit50a,bandit50a,2,3.2188,1,0.2,1
voc018a,48,bandit70,bandit50a,bandit70,1,4.7179,1,0.2,1
voc018a,49,bandit30,bandit50b,bandit50b,2,2.1803,1,0.2,1
voc018a,50,bandit50b,bandit50a,bandit50a,2,4.7112,0,0,0
voc018a,51,bandit70,bandit50b,bandit70,1,6.9283,1,0.2,1
voc018a,52,bandit10,bandit70,bandit70,2,2.7036,1,0.6,1
voc018a,53,bandit10,bandit50a,bandit50a,2,1.4698,1,0.4,1
voc018a,54,bandit10,bandit30,bandit30,2,4.7256,1,0.2,1
voc018a,55,bandit10,bandit50b,bandit50b,2,1.1733,1,0.4,1
voc018a,56,bandit90,bandit50b,bandit90,1,0.89757,1,0.4,1
voc018a,57,bandit30,bandit70,bandit70,2,7.399,1,0.4,1
voc018a,58,bandit90,bandit30,bandit90,1,1.1804,1,0.6,1
voc018a,59,bandit90,bandit70,bandit90,1,0.57691,1,0.2,1
voc018a,60,bandit10,bandit90,bandit90,2,0.45969,1,0.8,1
voc018a,61,bandit50b,bandit70,bandit70,2,3.1002,1,0.2,1
voc018a,62,bandit50a,bandit10,bandit50a,1,1.0433,1,0.4,1
voc018a,63,bandit70,bandit90,bandit90,2,1.2036,1,0.2,1
voc018a,64,bandit50b,bandit10,bandit50b,1,1.6626,1,0.4,1
voc018a,65,bandit50b,bandit30,bandit50b,1,3.9991,1,0.2,1
voc018a,66,bandit30,bandit90,bandit90,2,0.88301,1,0.6,1
voc018a,67,bandit50a,bandit50b,bandit50a,1,1.6424,0,0,0
voc018a,68,bandit30,bandit10,bandit30,1,1.579,1,0.2,1
voc018a,69,bandit50b,bandit90,bandit90,2,0.59936,1,0.4,1
voc018a,70,bandit70,bandit10,bandit70,1,2.0343,1,0.6,1
voc018a,71,bandit70,bandit30,bandit70,1,6.8284,1,0.4,1
voc018a,72,bandit90,bandit10,bandit90,1,0.55903,1,0.8,1
voc018a,73,bandit50a,bandit30,bandit50a,1,0.81172,1,0.2,1
voc018a,74,bandit50a,bandit70,bandit70,2,5.0867000000000004,1,0.2,1
voc018a,75,bandit50a,bandit90,bandit90,2,0.63841,1,0.4,1
voc018a,76,bandit70,bandit50b,bandit70,1,2.1114,1,0.2,1
voc018a,77,bandit10,bandit70,bandit70,2,0.96654,1,0.6,1
voc018a,78,bandit10,bandit50a,bandit50a,2,1.0586,1,0.4,1
voc018a,79,bandit30,bandit50b,bandit50b,2,3.554,1,0.2,1
voc018a,80,bandit90,bandit50a,bandit90,1,1.1276,1,0.4,1
voc018a,81,bandit10,bandit30,bandit30,2,3.5027,1,0.2,1
voc018a,82,bandit90,bandit70,bandit90,1,1.3168,1,0.2,1
voc018a,83,bandit70,bandit50a,bandit70,1,5.0517,1,0.2,1
voc018a,84,bandit10,bandit90,bandit90,2,0.71744,1,0.8,1
voc018a,85,bandit30,bandit50a,bandit50a,2,10.2915,1,0.2,1
voc018a,86,bandit30,bandit70,bandit70,2,0.78082,1,0.4,1
voc018a,87,bandit10,bandit50b,bandit50b,2,3.3683,1,0.4,1
voc018a,88,bandit90,bandit30,bandit90,1,0.91002,1,0.6,1
voc018a,89,bandit50b,bandit50a,bandit50a,2,1.4124,0,0,0
voc018a,90,bandit90,bandit50b,bandit90,1,0.86932,1,0.4,1
voc019a,1,bandit90,bandit10,bandit90,1,5.4803,1,0.8,1
voc019a,2,bandit50b,bandit90,bandit90,2,1.668,1,0.4,1
voc019a,3,bandit50a,bandit30,bandit50a,1,2.185,1,0.2,1
voc019a,4,bandit50b,bandit10,bandit50b,1,2.1058,1,0.4,1
voc019a,5,bandit50a,bandit10,bandit50a,1,2.1346,1,0.4,1
voc019a,6,bandit30,bandit10,bandit30,1,1.1686,1,0.2,1
voc019a,7,bandit50a,bandit70,bandit70,2,0.84175,1,0.2,1
voc019a,8,bandit30,bandit90,bandit90,2,1.2743,1,0.6,1
voc019a,9,bandit70,bandit10,bandit70,1,0.93599,1,0.6,1
voc019a,10,bandit50b,bandit30,bandit50b,1,2.835,1,0.2,1
voc019a,11,bandit50b,bandit70,bandit70,2,1.0498,1,0.2,1
voc019a,12,bandit50a,bandit90,bandit90,2,0.88881,1,0.4,1
voc019a,13,bandit70,bandit30,bandit70,1,0.82971,1,0.4,1
voc019a,14,bandit50a,bandit50b,bandit50b,2,2.2377,0,0,0
voc019a,15,bandit70,bandit90,bandit90,2,1.5402,1,0.2,1
voc019a,16,bandit50b,bandit50a,bandit50b,1,3.2873,0,0,0
voc019a,17,bandit10,bandit50a,bandit50a,2,1.4977,1,0.4,1
voc019a,18,bandit10,bandit30,bandit30,2,0.87922,1,0.2,1
voc019a,19,bandit30,bandit50a,bandit50a,2,1.908,1,0.2,1
voc019a,20,bandit10,bandit90,bandit90,2,0.99266,1,0.8,1
voc019a,21,bandit90,bandit50b,bandit90,1,0.90568,1,0.4,1
voc019a,22,bandit30,bandit70,bandit70,2,0.78215,1,0.4,1
voc019a,23,bandit10,bandit70,bandit70,2,0.72056,1,0.6,1
voc019a,24,bandit70,bandit50b,bandit70,1,0.91645,1,0.2,1
voc019a,25,bandit10,bandit50b,bandit50b,2,1.0973,1,0.4,1
voc019a,26,bandit90,bandit30,bandit90,1,0.82926,1,0.6,1
voc019a,27,bandit30,bandit50b,bandit50b,2,3.7335,1,0.2,1
voc019a,28,bandit70,bandit50a,bandit70,1,0.83744,1,0.2,1
voc019a,29,bandit90,bandit50a,bandit90,1,1.1096,1,0.4,1
voc019a,30,bandit90,bandit70,bandit90,1,0.5145,1,0.2,1
voc019a,31,bandit50a,bandit10,bandit50a,1,1.894,1,0.4,1
voc019a,32,bandit70,bandit30,bandit70,1,0.92437,1,0.4,1
voc019a,33,bandit50a,bandit30,bandit50a,1,1.6559,1,0.2,1
voc019a,34,bandit50b,bandit70,bandit70,2,3.0867,1,0.2,1
voc019a,35,bandit50b,bandit30,bandit30,2,0.66571,-1,0.2,0
voc019a,36,bandit50a,bandit50b,bandit50b,2,4.4804,0,0,0
voc019a,37,bandit70,bandit90,bandit90,2,1.9559,1,0.2,1
voc019a,38,bandit50b,bandit10,bandit50b,1,4.3333,1,0.4,1
voc019a,39,bandit90,bandit10,bandit90,1,0.87934,1,0.8,1
voc019a,40,bandit30,bandit90,bandit90,2,1.1321,1,0.6,1
voc019a,41,bandit50a,bandit90,bandit90,2,0.73558,1,0.4,1
voc019a,42,bandit70,bandit10,bandit70,1,1.3557,1,0.6,1
voc019a,43,bandit50b,bandit90,bandit90,2,0.77373,1,0.4,1
voc019a,44,bandit50a,bandit70,bandit70,2,1.5276,1,0.2,1
voc019a,45,bandit30,bandit10,bandit30,1,0.74752,1,0.2,1
voc019a,46,bandit30,bandit50a,bandit30,1,2.7908,-1,0.2,0
voc019a,47,bandit30,bandit50b,bandit30,1,0.83848,-1,0.2,0
voc019a,48,bandit90,bandit50b,bandit90,1,0.79779,1,0.4,1
voc019a,49,bandit90,bandit70,bandit90,1,0.60742,1,0.2,1
voc019a,50,bandit10,bandit30,bandit30,2,0.80734,1,0.2,1
voc019a,51,bandit90,bandit50a,bandit90,1,0.70495,1,0.4,1
voc019a,52,bandit30,bandit70,bandit70,2,0.83817,1,0.4,1
voc019a,53,bandit10,bandit90,bandit90,2,0.8129,1,0.8,1
voc019a,54,bandit10,bandit50a,bandit50a,2,0.90208,1,0.4,1
voc019a,55,bandit70,bandit50a,bandit70,1,1.8192,1,0.2,1
voc019a,56,bandit70,bandit50b,bandit70,1,0.77753,1,0.2,1
voc019a,57,bandit90,bandit30,bandit90,1,0.82109,1,0.6,1
voc019a,58,bandit10,bandit70,bandit70,2,1.0525,1,0.6,1
voc019a,59,bandit50b,bandit50a,bandit50a,2,4.1632,0,0,0
voc019a,60,bandit10,bandit50b,bandit50b,2,0.84406,1,0.4,1
voc019a,61,bandit70,bandit30,bandit70,1,1.1633,1,0.4,1
voc019a,62,bandit30,bandit90,bandit30,1,0.82166,-1,0.6,0
voc019a,63,bandit50b,bandit90,bandit90,2,0.62904,1,0.4,1
voc019a,64,bandit50b,bandit70,bandit70,2,0.9489,1,0.2,1
voc019a,65,bandit30,bandit10,bandit30,1,1.3126,1,0.2,1
voc019a,66,bandit50a,bandit50b,bandit50a,1,2.501,0,0,0
voc019a,67,bandit90,bandit10,bandit90,1,0.87984,1,0.8,1
voc019a,68,bandit70,bandit10,bandit70,1,0.84476,1,0.6,1
voc019a,69,bandit50a,bandit10,bandit50a,1,0.68587,1,0.4,1
voc019a,70,bandit50a,bandit70,bandit70,2,1.0348,1,0.2,1
voc019a,71,bandit50b,bandit30,bandit30,2,1.6345,-1,0.2,0
voc019a,72,bandit70,bandit90,bandit90,2,0.72873,1,0.2,1
voc019a,73,bandit50a,bandit30,bandit30,2,2.4533,-1,0.2,0
voc019a,74,bandit50a,bandit90,bandit90,2,0.81067,1,0.4,1
voc019a,75,bandit50b,bandit10,bandit50b,1,0.73182,1,0.4,1
voc019a,76,bandit70,bandit50a,bandit70,1,0.75095,1,0.2,1
voc019a,77,bandit90,bandit50b,bandit90,1,0.75437,1,0.4,1
voc019a,78,bandit30,bandit50a,bandit30,1,1.6857,-1,0.2,0
voc019a,79,bandit50b,bandit50a,bandit50b,1,1.4497,0,0,0
voc019a,80,bandit10,bandit90,bandit90,2,1.2646,1,0.8,1
voc019a,81,bandit10,bandit50b,bandit50b,2,0.97505,1,0.4,1
voc019a,82,bandit90,bandit30,bandit90,1,1.1601,1,0.6,1
voc019a,83,bandit30,bandit50b,bandit30,1,1.2265,-1,0.2,0
voc019a,84,bandit10,bandit30,bandit30,2,0.69063,1,0.2,1
voc019a,85,bandit30,bandit70,bandit70,2,0.84944,1,0.4,1
voc019a,86,bandit90,bandit70,bandit90,1,0.68835,1,0.2,1
voc019a,87,bandit90,bandit50a,bandit50a,2,0.62892,-1,0.4,0
voc019a,88,bandit70,bandit50b,bandit70,1,1.0295,1,0.2,1
voc019a,89,bandit10,bandit70,bandit70,2,0.8053,1,0.6,1
voc019a,90,bandit10,bandit50a,bandit50a,2,0.78973,1,0.4,1
voc020a,1,bandit50b,bandit90,bandit90,2,2.9491,1,0.4,1
voc020a,2,bandit50a,bandit90,bandit90,2,1.0694,1,0.4,1
voc020a,3,bandit70,bandit90,bandit90,2,1.2198,1,0.2,1
voc020a,4,bandit50a,bandit30,bandit50a,1,1.0449,1,0.2,1
voc020a,5,bandit70,bandit30,bandit70,1,1.8518,1,0.4,1
voc020a,6,bandit50b,bandit70,bandit70,2,2.1139,1,0.2,1
voc020a,7,bandit50a,bandit10,bandit50a,1,1.3246,1,0.4,1
voc020a,8,bandit50a,bandit70,bandit70,2,2.4584,1,0.2,1
voc020a,9,bandit70,bandit10,bandit70,1,2.9273,1,0.6,1
voc020a,10,bandit50b,bandit10,bandit50b,1,0.94611,1,0.4,1
voc020a,11,bandit50a,bandit50b,bandit50a,1,1.9404,0,0,0
voc020a,12,bandit50b,bandit30,bandit50b,1,4.6796,1,0.2,1
voc020a,13,bandit30,bandit10,bandit30,1,1.674,1,0.2,1
voc020a,14,bandit30,bandit90,bandit90,2,0.98472,1,0.6,1
voc020a,15,bandit90,bandit10,bandit90,1,0.80932,1,0.8,1
voc020a,16,bandit10,bandit70,bandit70,2,2.9786,1,0.6,1
voc020a,17,bandit90,bandit50b,bandit90,1,1.308,1,0.4,1
voc020a,18,bandit30,bandit50a,bandit50a,2,1.7194,1,0.2,1
voc020a,19,bandit90,bandit50a,bandit90,1,0.68341,1,0.4,1
voc020a,20,bandit10,bandit50a,bandit50a,2,4.7616,1,0.4,1
voc020a,21,bandit50b,bandit50a,bandit50a,2,1.9529,0,0,0
voc020a,22,bandit10,bandit50b,bandit50b,2,2.6116,1,0.4,1
voc020a,23,bandit30,bandit70,bandit70,2,3.1153,1,0.4,1
voc020a,24,bandit90,bandit30,bandit90,1,0.87744,1,0.6,1
voc020a,25,bandit10,bandit30,bandit30,2,3.036,1,0.2,1
voc020a,26,bandit70,bandit50a,bandit70,1,5.0022,1,0.2,1
voc020a,27,bandit10,bandit90,bandit90,2,0.66278,1,0.8,1
voc020a,28,bandit70,bandit50b,bandit70,1,1.5824,1,0.2,1
voc020a,29,bandit90,bandit70,bandit90,1,0.73579,1,0.2,1
voc020a,30,bandit30,bandit50b,bandit50b,2,3.379,1,0.2,1
voc020a,31,bandit50b,bandit10,bandit50b,1,0.97946,1,0.4,1
voc020a,32,bandit30,bandit10,bandit30,1,1.1007,1,0.2,1
voc020a,33,bandit70,bandit90,bandit90,2,0.77027,1,0.2,1
voc020a,34,bandit30,bandit90,bandit90,2,0.67536,1,0.6,1
voc020a,35,bandit50b,bandit70,bandit70,2,1.7461,1,0.2,1
voc020a,36,bandit50a,bandit30,bandit50a,1,1.8121,1,0.2,1
voc020a,37,bandit50b,bandit30,bandit50b,1,2.1732,1,0.2,1
voc020a,38,bandit90,bandit10,bandit90,1,0.89463,1,0.8,1
voc020a,39,bandit50a,bandit10,bandit50a,1,1.3239,1,0.4,1
voc020a,40,bandit70,bandit30,bandit70,1,1.487,1,0.4,1
voc020a,41,bandit50a,bandit90,bandit90,2,0.86945,1,0.4,1
voc020a,42,bandit50a,bandit50b,bandit50a,1,1.3945,0,0,0
voc020a,43,bandit70,bandit10,bandit70,1,3.1636,1,0.6,1
voc020a,44,bandit50a,bandit70,bandit70,2,4.7891,1,0.2,1
voc020a,45,bandit50b,bandit90,bandit90,2,1.3558,1,0.4,1
voc020a,46,bandit30,bandit50a,bandit50a,2,2.4545,1,0.2,1
voc020a,47,bandit10,bandit50b,bandit50b,2,1.5316,1,0.4,1
voc020a,48,bandit10,bandit70,bandit70,2,1.5512,1,0.6,1
voc020a,49,bandit70,bandit50b,bandit70,1,4.1454,1,0.2,1
voc020a,50,bandit30,bandit70,bandit70,2,0.87465,1,0.4,1
voc020a,51,bandit90,bandit30,bandit90,1,0.72875,1,0.6,1
voc020a,52,bandit30,bandit50b,bandit50b,2,1.4603,1,0.2,1
voc020a,53,bandit70,bandit50a,bandit70,1,2.8752,1,0.2,1
voc020a,54,bandit90,bandit50a,bandit90,1,0.86398,1,0.4,1
voc020a,55,bandit10,bandit50a,bandit50a,2,0.92572,1,0.4,1
voc020a,56,bandit50b,bandit50a,bandit50a,2,3.1224,0,0,0
voc020a,57,bandit10,bandit30,bandit30,2,2.5559,1,0.2,1
voc020a,58,bandit90,bandit50b,bandit90,1,0.85382,1,0.4,1
voc020a,59,bandit90,bandit70,bandit90,1,1.2609,1,0.2,1
voc020a,60,bandit10,bandit90,bandit90,2,0.50706,1,0.8,1
voc020a,61,bandit50a,bandit10,bandit50a,1,1.1051,1,0.4,1
voc020a,62,bandit70,bandit10,bandit70,1,0.90997,1,0.6,1
voc020a,63,bandit30,bandit10,bandit30,1,0.84977,1,0.2,1
voc020a,64,bandit50b,bandit30,bandit50b,1,1.5859,1,0.2,1
voc020a,65,bandit50a,bandit70,bandit70,2,1.6498,1,0.2,1
voc020a,66,bandit50a,bandit30,bandit50a,1,1.769,1,0.2,1
voc020a,67,bandit70,bandit30,bandit70,1,1.0497,1,0.4,1
voc020a,68,bandit90,bandit10,bandit90,1,0.64951,1,0.8,1
voc020a,69,bandit50b,bandit70,bandit70,2,2.6788,1,0.2,1
voc020a,70,bandit50b,bandit90,bandit90,2,0.95685,1,0.4,1
voc020a,71,bandit70,bandit90,bandit90,2,0.58383,1,0.2,1
voc020a,72,bandit50a,bandit90,bandit90,2,0.56938,1,0.4,1
voc020a,73,bandit50a,bandit50b,bandit50a,1,1.2189,0,0,0
voc020a,74,bandit50b,bandit10,bandit50b,1,1.0196,1,0.4,1
voc020a,75,bandit30,bandit90,bandit90,2,0.78746,1,0.6,1
voc020a,76,bandit10,bandit90,bandit90,2,0.70169,1,0.8,1
voc020a,77,bandit30,bandit70,bandit70,2,1.234,1,0.4,1
voc020a,78,bandit90,bandit50a,bandit90,1,0.76905,1,0.4,1
voc020a,79,bandit10,bandit30,bandit30,2,0.85952,1,0.2,1
voc020a,80,bandit50b,bandit50a,bandit50a,2,1.235,0,0,0
voc020a,81,bandit90,bandit50b,bandit90,1,0.56928,1,0.4,1
voc020a,82,bandit90,bandit70,bandit90,1,0.76444,1,0.2,1
voc020a,83,bandit70,bandit50b,bandit70,1,0.80609,1,0.2,1
voc020a,84,bandit30,bandit50b,bandit50b,2,0.86317,1,0.2,1
voc020a,85,bandit10,bandit50a,bandit50a,2,1.1814,1,0.4,1
voc020a,86,bandit30,bandit50a,bandit50a,2,0.99017,1,0.2,1
voc020a,87,bandit90,bandit30,bandit90,1,0.6163,1,0.6,1
voc020a,88,bandit10,bandit70,bandit70,2,0.7042,1,0.6,1
voc020a,89,bandit10,bandit50b,bandit50b,2,0.74097,1,0.4,1
voc020a,90,bandit70,bandit50a,bandit70,1,1.3693,1,0.2,1
voc021a,1,bandit90,bandit10,bandit90,1,0.95186,1,0.8,1
voc021a,2,bandit30,bandit90,bandit90,2,0.74109,1,0.6,1
voc021a,3,bandit50a,bandit90,bandit90,2,0.63417,1,0.4,1
voc021a,4,bandit70,bandit90,bandit90,2,0.55501,1,0.2,1
voc021a,5,bandit50a,bandit30,bandit50a,1,1.6468,1,0.2,1
voc021a,6,bandit50a,bandit70,bandit70,2,1.2877,1,0.2,1
voc021a,7,bandit50b,bandit30,bandit50b,1,3.5753,1,0.2,1
voc021a,8,bandit50a,bandit50b,bandit50b,2,0.88376,0,0,0
voc021a,9,bandit50b,bandit90,bandit90,2,1.1873,1,0.4,1
voc021a,10,bandit70,bandit30,bandit70,1,1.207,1,0.4,1
voc021a,11,bandit50b,bandit10,bandit50b,1,1.4564,1,0.4,1
voc021a,12,bandit50b,bandit70,bandit70,2,2.0741,1,0.2,1
voc021a,13,bandit30,bandit10,bandit30,1,1.762,1,0.2,1
voc021a,14,bandit50a,bandit10,bandit50a,1,1.3833,1,0.4,1
voc021a,15,bandit70,bandit10,bandit70,1,1.5301,1,0.6,1
voc021a,16,bandit10,bandit50a,bandit50a,2,0.92025,1,0.4,1
voc021a,17,bandit90,bandit70,bandit90,1,0.8942,1,0.2,1
voc021a,18,bandit30,bandit50b,bandit50b,2,8.3011,1,0.2,1
voc021a,19,bandit10,bandit30,bandit30,2,0.89399,1,0.2,1
voc021a,20,bandit10,bandit90,bandit90,2,0.99669,1,0.8,1
voc021a,21,bandit70,bandit50b,bandit70,1,1.4397,1,0.2,1
voc021a,22,bandit10,bandit50b,bandit50b,2,0.82598,1,0.4,1
voc021a,23,bandit70,bandit50a,bandit70,1,1.4121,1,0.2,1
voc021a,24,bandit50b,bandit50a,bandit50b,1,2.1655,0,0,0
voc021a,25,bandit90,bandit50a,bandit90,1,0.88291,1,0.4,1
voc021a,26,bandit90,bandit30,bandit90,1,0.63474,1,0.6,1
voc021a,27,bandit10,bandit70,bandit70,2,1.3462,1,0.6,1
voc021a,28,bandit30,bandit70,bandit70,2,0.78271,1,0.4,1
voc021a,29,bandit90,bandit50b,bandit90,1,0.61903,1,0.4,1
voc021a,30,bandit30,bandit50a,bandit30,1,2.0927,-1,0.2,0
voc021a,31,bandit50a,bandit10,bandit50a,1,0.92428,1,0.4,1
voc021a,32,bandit50a,bandit50b,bandit50a,1,1.4741,0,0,0
voc021a,33,bandit70,bandit90,bandit90,2,1.0257,1,0.2,1
voc021a,34,bandit70,bandit10,bandit70,1,1.1873,1,0.6,1
voc021a,35,bandit50b,bandit90,bandit90,2,1.1038,1,0.4,1
voc021a,36,bandit50b,bandit30,bandit50b,1,1.3655,1,0.2,1
voc021a,37,bandit90,bandit10,bandit90,1,1.2503,1,0.8,1
voc021a,38,bandit50a,bandit70,bandit70,2,1.499,1,0.2,1
voc021a,39,bandit50a,bandit30,bandit50a,1,1.4404,1,0.2,1
voc021a,40,bandit50b,bandit10,bandit50b,1,1.2181,1,0.4,1
voc021a,41,bandit30,bandit10,bandit30,1,0.95729,1,0.2,1
voc021a,42,bandit70,bandit30,bandit70,1,0.80907,1,0.4,1
voc021a,43,bandit50b,bandit70,bandit70,2,1.2279,1,0.2,1
voc021a,44,bandit50a,bandit90,bandit90,2,0.87861,1,0.4,1
voc021a,45,bandit30,bandit90,bandit90,2,0.60531,1,0.6,1
voc021a,46,bandit10,bandit70,bandit70,2,0.94377,1,0.6,1
voc021a,47,bandit30,bandit70,bandit70,2,0.94173,1,0.4,1
voc021a,48,bandit70,bandit50a,bandit70,1,1.1462,1,0.2,1
voc021a,49,bandit10,bandit90,bandit90,2,0.68613,1,0.8,1
voc021a,50,bandit90,bandit70,bandit90,1,1.0455,1,0.2,1
voc021a,51,bandit10,bandit30,bandit30,2,0.71158,1,0.2,1
voc021a,52,bandit30,bandit50a,bandit50a,2,2.1023,1,0.2,1
voc021a,53,bandit10,bandit50b,bandit50b,2,1.4606,1,0.4,1
voc021a,54,bandit70,bandit50b,bandit70,1,1.2293,1,0.2,1
voc021a,55,bandit90,bandit50b,bandit90,1,0.71877,1,0.4,1
voc021a,56,bandit30,bandit50b,bandit50b,2,1.5726,1,0.2,1
voc021a,57,bandit90,bandit30,bandit90,1,0.72082,1,0.6,1
voc021a,58,bandit50b,bandit50a,bandit50a,2,2.6707,0,0,0
voc021a,59,bandit90,bandit50a,bandit90,1,0.999,1,0.4,1
voc021a,60,bandit10,bandit50a,bandit50a,2,0.7779,1,0.4,1
voc021a,61,bandit70,bandit90,bandit90,2,0.83763,1,0.2,1
voc021a,62,bandit50a,bandit50b,bandit50b,2,1.6392,0,0,0
voc021a,63,bandit90,bandit10,bandit90,1,0.70443,1,0.8,1
voc021a,64,bandit30,bandit10,bandit30,1,0.95778,1,0.2,1
voc021a,65,bandit50a,bandit30,bandit50a,1,2.2989,1,0.2,1
voc021a,66,bandit50b,bandit70,bandit70,2,0.69024,1,0.2,1
voc021a,67,bandit70,bandit30,bandit70,1,0.65786,1,0.4,1
voc021a,68,bandit50a,bandit70,bandit70,2,0.57747,1,0.2,1
voc021a,69,bandit50a,bandit90,bandit90,2,0.78061,1,0.4,1
voc021a,70,bandit50a,bandit10,bandit50a,1,0.88071,1,0.4,1
voc021a,71,bandit70,bandit10,bandit70,1,1.2873000000000001,1,0.6,1
voc021a,72,bandit50b,bandit10,bandit50b,1,1.2473,1,0.4,1
voc021a,73,bandit50b,bandit90,bandit90,2,0.75193,1,0.4,1
voc021a,74,bandit50b,bandit30,bandit30,2,1.9881,-1,0.2,0
voc021a,75,bandit30,bandit90,bandit90,2,0.68024,1,0.6,1
voc021a,76,bandit10,bandit70,bandit70,2,0.79093,1,0.6,1
voc021a,77,bandit30,bandit70,bandit70,2,0.89074,1,0.4,1
voc021a,78,bandit90,bandit30,bandit90,1,0.69778,1,0.6,1
voc021a,79,bandit30,bandit50a,bandit30,1,2.4966,-1,0.2,0
voc021a,80,bandit70,bandit50b,bandit70,1,0.60698,1,0.2,1
voc021a,81,bandit30,bandit50b,bandit30,1,1.1301,-1,0.2,0
voc021a,82,bandit50b,bandit50a,bandit50b,1,2.7422,0,0,0
voc021a,83,bandit90,bandit50b,bandit90,1,0.84509,1,0.4,1
voc021a,84,bandit10,bandit50a,bandit50a,2,0.98227,1,0.4,1
voc021a,85,bandit70,bandit50a,bandit70,1,0.80931,1,0.2,1
voc021a,86,bandit90,bandit50a,bandit90,1,0.7789,1,0.4,1
voc021a,87,bandit10,bandit30,bandit30,2,0.87994000000000006,1,0.2,1
voc021a,88,bandit10,bandit90,bandit90,2,0.81492,1,0.8,1
voc021a,89,bandit90,bandit70,bandit90,1,0.8164,1,0.2,1
voc021a,90,bandit10,bandit50b,bandit50b,2,0.79473,1,0.4,1
voc022a,1,bandit90,bandit10,bandit90,1,2.003,1,0.8,1
voc022a,2,bandit30,bandit90,bandit90,2,1.6598,1,0.6,1
voc022a,3,bandit50a,bandit90,bandit90,2,1.2973,1,0.4,1
voc022a,4,bandit70,bandit90,bandit90,2,1.4299,1,0.2,1
voc022a,5,bandit50a,bandit30,bandit30,2,2.4688,-1,0.2,0
voc022a,6,bandit50a,bandit70,bandit70,2,3.6097,1,0.2,1
voc022a,7,bandit50b,bandit30,bandit50b,1,1.7999,1,0.2,1
voc022a,8,bandit50a,bandit50b,bandit50b,2,1.8012,0,0,0
voc022a,9,bandit50b,bandit90,bandit90,2,1.0339,1,0.4,1
voc022a,10,bandit70,bandit30,bandit30,2,2.609,-1,0.4,0
voc022a,11,bandit50b,bandit10,bandit50b,1,2.7839,1,0.4,1
voc022a,12,bandit50b,bandit70,bandit50b,1,2.199,-1,0.2,0
voc022a,13,bandit30,bandit10,bandit30,1,1.7679,1,0.2,1
voc022a,14,bandit50a,bandit10,bandit50a,1,3.9134,1,0.4,1
voc022a,15,bandit70,bandit10,bandit70,1,2.3163,1,0.6,1
voc022a,16,bandit10,bandit50a,bandit50a,2,1.4556,1,0.4,1
voc022a,17,bandit90,bandit70,bandit90,1,0.98121,1,0.2,1
voc022a,18,bandit30,bandit50b,bandit50b,2,3.0149,1,0.2,1
voc022a,19,bandit10,bandit30,bandit30,2,1.4295,1,0.2,1
voc022a,20,bandit10,bandit90,bandit90,2,0.75817,1,0.8,1
voc022a,21,bandit70,bandit50b,bandit70,1,4.4247,1,0.2,1
voc022a,22,bandit10,bandit50b,bandit50b,2,1.9662,1,0.4,1
voc022a,23,bandit70,bandit50a,bandit70,1,3.0155,1,0.2,1
voc022a,24,bandit50b,bandit50a,bandit50b,1,3.4772,0,0,0
voc022a,25,bandit90,bandit50a,bandit90,1,0.78615,1,0.4,1
voc022a,26,bandit90,bandit30,bandit90,1,0.78879,1,0.6,1
voc022a,27,bandit10,bandit70,bandit70,2,1.1573,1,0.6,1
voc022a,28,bandit30,bandit70,bandit30,1,1.2318,-1,0.4,0
voc022a,29,bandit90,bandit50b,bandit90,1,0.79111,1,0.4,1
voc022a,30,bandit30,bandit50a,bandit30,1,3.1208,-1,0.2,0
voc022a,31,bandit50a,bandit10,bandit50a,1,1.1639,1,0.4,1
voc022a,32,bandit50a,bandit50b,bandit50a,1,2.2452,0,0,0
voc022a,33,bandit70,bandit90,bandit90,2,1.6123,1,0.2,1
voc022a,34,bandit70,bandit10,bandit70,1,1.1484,1,0.6,1
voc022a,35,bandit50b,bandit90,bandit90,2,0.96608,1,0.4,1
voc022a,36,bandit50b,bandit30,bandit30,2,2.0814,-1,0.2,0
voc022a,37,bandit90,bandit10,bandit90,1,0.90967,1,0.8,1
voc022a,38,bandit50a,bandit70,bandit70,2,1.5624,1,0.2,1
voc022a,39,bandit50a,bandit30,bandit30,2,4.8763,-1,0.2,0
voc022a,40,bandit50b,bandit10,bandit50b,1,1.4005,1,0.4,1
voc022a,41,bandit30,bandit10,bandit30,1,1.5128,1,0.2,1
voc022a,42,bandit70,bandit30,bandit30,2,2.9892,-1,0.4,0
voc022a,43,bandit50b,bandit70,bandit70,2,2.3329,1,0.2,1
voc022a,44,bandit50a,bandit90,bandit90,2,0.67106,1,0.4,1
voc022a,45,bandit30,bandit90,bandit90,2,0.78203,1,0.6,1
voc022a,46,bandit10,bandit70,bandit70,2,1.2543,1,0.6,1
voc022a,47,bandit30,bandit70,bandit30,1,2.0781,-1,0.4,0
voc022a,48,bandit70,bandit50a,bandit70,1,2.0113,1,0.2,1
voc022a,49,bandit10,bandit90,bandit90,2,0.72297,1,0.8,1
voc022a,50,bandit90,bandit70,bandit90,1,0.9024,1,0.2,1
voc022a,51,bandit10,bandit30,bandit30,2,1.0519,1,0.2,1
voc022a,52,bandit30,bandit50a,bandit30,1,1.2751,-1,0.2,0
voc022a,53,bandit10,bandit50b,bandit50b,2,1.1611,1,0.4,1
voc022a,54,bandit70,bandit50b,bandit50b,2,1.1946,-1,0.2,0
voc022a,55,bandit90,bandit50b,bandit90,1,0.74826,1,0.4,1
voc022a,56,bandit30,bandit50b,bandit50b,2,0.9592,1,0.2,1
voc022a,57,bandit90,bandit30,bandit90,1,0.77043,1,0.6,1
voc022a,58,bandit50b,bandit50a,bandit50b,1,1.1403,0,0,0
voc022a,59,bandit90,bandit50a,bandit90,1,0.63152,1,0.4,1
voc022a,60,bandit10,bandit50a,bandit50a,2,0.88724,1,0.4,1
voc022a,61,bandit70,bandit90,bandit90,2,0.74896,1,0.2,1
voc022a,62,bandit50a,bandit50b,bandit50a,1,1.816,0,0,0
voc022a,63,bandit90,bandit10,bandit90,1,1.2311,1,0.8,1
voc022a,64,bandit30,bandit10,bandit30,1,1.2713,1,0.2,1
voc022a,65,bandit50a,bandit30,bandit30,2,0.87666,-1,0.2,0
voc022a,66,bandit50b,bandit70,bandit50b,1,2.9228,-1,0.2,0
voc022a,67,bandit70,bandit30,bandit30,2,1.1497,-1,0.4,0
voc022a,68,bandit50a,bandit70,bandit70,2,2.0794,1,0.2,1
voc022a,69,bandit50a,bandit90,bandit90,2,0.5562,1,0.4,1
voc022a,70,bandit50a,bandit10,bandit50a,1,0.93638,1,0.4,1
voc022a,71,bandit70,bandit10,bandit70,1,0.69112,1,0.6,1
voc022a,72,bandit50b,bandit10,bandit50b,1,1.0242,1,0.4,1
voc022a,73,bandit50b,bandit90,bandit90,2,0.69744,1,0.4,1
voc022a,74,bandit50b,bandit30,bandit50b,1,2.3903,1,0.2,1
voc022a,75,bandit30,bandit90,bandit90,2,0.87112,1,0.6,1
voc022a,76,bandit10,bandit70,bandit70,2,0.98098,1,0.6,1
voc022a,77,bandit30,bandit70,bandit70,2,3.1825,1,0.4,1
voc022a,78,bandit90,bandit30,bandit90,1,1.8942,1,0.6,1
voc022a,79,bandit30,bandit50a,bandit30,1,1.2512,-1,0.2,0
voc022a,80,bandit70,bandit50b,bandit50b,2,1.6654,-1,0.2,0
voc022a,81,bandit30,bandit50b,bandit30,1,0.84717,-1,0.2,0
voc022a,82,bandit50b,bandit50a,bandit50a,2,1.8219,0,0,0
voc022a,83,bandit90,bandit50b,bandit90,1,0.94957,1,0.4,1
voc022a,84,bandit10,bandit50a,bandit50a,2,1.0004,1,0.4,1
voc022a,85,bandit70,bandit50a,bandit70,1,1.9291,1,0.2,1
voc022a,86,bandit90,bandit50a,bandit90,1,0.76386,1,0.4,1
voc022a,87,bandit10,bandit30,bandit30,2,0.90218,1,0.2,1
voc022a,88,bandit10,bandit90,bandit90,2,0.71592,1,0.8,1
voc022a,89,bandit90,bandit70,bandit90,1,0.86295,1,0.2,1
voc022a,90,bandit10,bandit50b,bandit50b,2,1.7661,1,0.4,1
voc023a,1,bandit90,bandit10,bandit90,1,7.4559,1,0.8,1
voc023a,2,bandit30,bandit90,bandit90,2,14.4193,1,0.6,1
voc023a,3,bandit50a,bandit90,bandit90,2,1.8735,1,0.4,1
voc023a,4,bandit70,bandit90,bandit90,2,1.8065,1,0.2,1
voc023a,5,bandit50a,bandit30,bandit50a,1,8.911,1,0.2,1
voc023a,6,bandit50a,bandit70,bandit70,2,0.82276,1,0.2,1
voc023a,7,bandit50b,bandit30,bandit30,2,5.2296,-1,0.2,0
voc023a,8,bandit50a,bandit50b,bandit50a,1,5.6275,0,0,0
voc023a,9,bandit50b,bandit90,bandit90,2,1.1436,1,0.4,1
voc023a,10,bandit70,bandit30,bandit70,1,1.9796,1,0.4,1
voc023a,11,bandit50b,bandit10,bandit10,2,4.0528,-1,0.4,0
voc023a,12,bandit50b,bandit70,bandit70,2,0.84935,1,0.2,1
voc023a,13,bandit30,bandit10,bandit10,2,3.6556,-1,0.2,0
voc023a,14,bandit50a,bandit10,bandit50a,1,4.6441,1,0.4,1
voc023a,15,bandit70,bandit10,bandit70,1,0.76916,1,0.6,1
voc023a,16,bandit10,bandit50a,bandit10,1,7.2836,-1,0.4,0
voc023a,17,bandit90,bandit70,bandit70,2,0.82938,-1,0.2,0
voc023a,18,bandit30,bandit50b,bandit30,1,10.9173,-1,0.2,0
voc023a,19,bandit10,bandit30,bandit10,1,9.6503,-1,0.2,0
voc023a,20,bandit10,bandit90,bandit90,2,1.1082,1,0.8,1
voc023a,21,bandit70,bandit50b,bandit70,1,1.0001,1,0.2,1
voc023a,22,bandit10,bandit50b,bandit10,1,1.7698,-1,0.4,0
voc023a,23,bandit70,bandit50a,bandit70,1,0.93114,1,0.2,1
voc023a,24,bandit50b,bandit50a,bandit50a,2,4.5262,0,0,0
voc023a,25,bandit90,bandit50a,bandit90,1,1.8159,1,0.4,1
voc023a,26,bandit90,bandit30,bandit90,1,5.4475,1,0.6,1
voc023a,27,bandit10,bandit70,bandit70,2,1.2676,1,0.6,1
voc023a,28,bandit30,bandit70,bandit70,2,4.6015,1,0.4,1
voc023a,29,bandit90,bandit50b,bandit90,1,5.7914,1,0.4,1
voc023a,30,bandit30,bandit50a,bandit30,1,3.2533,-1,0.2,0
voc023a,31,bandit50a,bandit10,bandit10,2,4.9226,-1,0.4,0
voc023a,32,bandit50a,bandit50b,bandit50a,1,1.4438,0,0,0
voc023a,33,bandit70,bandit90,bandit70,1,2.0106,-1,0.2,0
voc023a,34,bandit70,bandit10,bandit70,1,2.1307,1,0.6,1
voc023a,35,bandit50b,bandit90,bandit90,2,1.7176,1,0.4,1
voc023a,36,bandit50b,bandit30,bandit30,2,3.2491,-1,0.2,0
voc023a,37,bandit90,bandit10,bandit90,1,2.7738,1,0.8,1
voc023a,38,bandit50a,bandit70,bandit70,2,1.6788,1,0.2,1
voc023a,39,bandit50a,bandit30,bandit30,2,5.1005,-1,0.2,0
voc023a,40,bandit50b,bandit10,bandit10,2,2.0948,-1,0.4,0
voc023a,41,bandit30,bandit10,bandit10,2,9.7714,-1,0.2,0
voc023a,42,bandit70,bandit30,bandit70,1,1.6866,1,0.4,1
voc023a,43,bandit50b,bandit70,bandit70,2,0.70841,1,0.2,1
voc023a,44,bandit50a,bandit90,bandit90,2,0.99188,1,0.4,1
voc023a,45,bandit30,bandit90,bandit90,2,2.6185,1,0.6,1
voc023a,46,bandit10,bandit70,bandit70,2,0.68132,1,0.6,1
voc023a,47,bandit30,bandit70,bandit70,2,2.7103,1,0.4,1
voc023a,48,bandit70,bandit50a,bandit70,1,0.82606,1,0.2,1
voc023a,49,bandit10,bandit90,bandit90,2,1.3302,1,0.8,1
voc023a,50,bandit90,bandit70,bandit90,1,0.63742,1,0.2,1
voc023a,51,bandit10,bandit30,bandit10,1,1.1417,-1,0.2,0
voc023a,52,bandit30,bandit50a,bandit30,1,1.7284,-1,0.2,0
voc023a,53,bandit10,bandit50b,bandit10,1,4.3243,-1,0.4,0
voc023a,54,bandit70,bandit50b,bandit70,1,0.72601,1,0.2,1
voc023a,55,bandit90,bandit50b,bandit90,1,1.2174,1,0.4,1
voc023a,56,bandit30,bandit50b,bandit30,1,2.8177,-1,0.2,0
voc023a,57,bandit90,bandit30,bandit90,1,1.8321,1,0.6,1
voc023a,58,bandit50b,bandit50a,bandit50a,2,4.4153,0,0,0
voc023a,59,bandit90,bandit50a,bandit90,1,0.82964,1,0.4,1
voc023a,60,bandit10,bandit50a,bandit10,1,1.2127,-1,0.4,0
voc023a,61,bandit70,bandit90,bandit70,1,1.397,-1,0.2,0
voc023a,62,bandit50a,bandit50b,bandit50a,1,2.6614,0,0,0
voc023a,63,bandit90,bandit10,bandit90,1,1.4673,1,0.8,1
voc023a,64,bandit30,bandit10,bandit30,1,3.1213,1,0.2,1
voc023a,65,bandit50a,bandit30,bandit30,2,1.659,-1,0.2,0
voc023a,66,bandit50b,bandit70,bandit70,2,2.2503,1,0.2,1
voc023a,67,bandit70,bandit30,bandit70,1,0.56732,1,0.4,1
voc023a,68,bandit50a,bandit70,bandit70,2,0.97798,1,0.2,1
voc023a,69,bandit50a,bandit90,bandit90,2,1.8034,1,0.4,1
voc023a,70,bandit50a,bandit10,bandit10,2,1.1804,-1,0.4,0
voc023a,71,bandit70,bandit10,bandit70,1,0.51714,1,0.6,1
voc023a,72,bandit50b,bandit10,bandit10,2,1.3939,-1,0.4,0
voc023a,73,bandit50b,bandit90,bandit90,2,0.931,1,0.4,1
voc023a,74,bandit50b,bandit30,bandit30,2,2.6061,-1,0.2,0
voc023a,75,bandit30,bandit90,bandit90,2,1.5503,1,0.6,1
voc023a,76,bandit10,bandit70,bandit70,2,0.56831,1,0.6,1
voc023a,77,bandit30,bandit70,bandit70,2,1.1064,1,0.4,1
voc023a,78,bandit90,bandit30,bandit90,1,0.72785,1,0.6,1
voc023a,79,bandit30,bandit50a,bandit50a,2,1.3882,1,0.2,1
voc023a,80,bandit70,bandit50b,bandit70,1,2.6368,1,0.2,1
voc023a,81,bandit30,bandit50b,bandit50b,2,3.3873,1,0.2,1
voc023a,82,bandit50b,bandit50a,bandit50a,2,1.1462,0,0,0
voc023a,83,bandit90,bandit50b,bandit90,1,1.069,1,0.4,1
voc023a,84,bandit10,bandit50a,bandit10,1,0.83556,-1,0.4,0
voc023a,85,bandit70,bandit50a,bandit70,1,2.4898,1,0.2,1
voc023a,86,bandit90,bandit50a,bandit90,1,1.0312,1,0.4,1
voc023a,87,bandit10,bandit30,bandit10,1,0.89451,-1,0.2,0
voc023a,88,bandit10,bandit90,bandit90,2,0.73176,1,0.8,1
voc023a,89,bandit90,bandit70,bandit70,2,3.6232,-1,0.2,0
voc023a,90,bandit10,bandit50b,bandit10,1,2.2223,-1,0.4,0
voc024a,1,bandit50b,bandit10,bandit50b,1,2.5969,1,0.4,1
voc024a,2,bandit30,bandit90,bandit90,2,1.2844,1,0.6,1
voc024a,3,bandit50a,bandit50b,bandit50b,2,1.5937,0,0,0
voc024a,4,bandit30,bandit10,bandit30,1,2.0433,1,0.2,1
voc024a,5,bandit50a,bandit70,bandit70,2,1.4647,1,0.2,1
voc024a,6,bandit70,bandit10,bandit70,1,0.8552,1,0.6,1
voc024a,7,bandit70,bandit90,bandit90,2,1.4619,1,0.2,1
voc024a,8,bandit50a,bandit30,bandit50a,1,2.109,1,0.2,1
voc024a,9,bandit70,bandit30,bandit70,1,0.97646,1,0.4,1
voc024a,10,bandit50a,bandit10,bandit50a,1,0.96216,1,0.4,1
voc024a,11,bandit50a,bandit90,bandit90,2,0.85997,1,0.4,1
voc024a,12,bandit90,bandit10,bandit90,1,0.77918,1,0.8,1
voc024a,13,bandit50b,bandit90,bandit90,2,0.9175,1,0.4,1
voc024a,14,bandit50b,bandit30,bandit50b,1,1.3692,1,0.2,1
voc024a,15,bandit50b,bandit70,bandit70,2,0.84349,1,0.2,1
voc024a,16,bandit30,bandit50a,bandit50a,2,3.0098,1,0.2,1
voc024a,17,bandit70,bandit50b,bandit70,1,0.9455,1,0.2,1
voc024a,18,bandit10,bandit90,bandit90,2,0.95753,1,0.8,1
voc024a,19,bandit10,bandit30,bandit30,2,2.0076,1,0.2,1
voc024a,20,bandit90,bandit50a,bandit90,1,1.7349,1,0.4,1
voc024a,21,bandit70,bandit50a,bandit70,1,0.74746,1,0.2,1
voc024a,22,bandit10,bandit50b,bandit50b,2,1.4222,1,0.4,1
voc024a,23,bandit10,bandit70,bandit70,2,1.1896,1,0.6,1
voc024a,24,bandit50b,bandit50a,bandit50a,2,1.7988,0,0,0
voc024a,25,bandit90,bandit30,bandit90,1,0.99051,1,0.6,1
voc024a,26,bandit30,bandit70,bandit70,2,0.95238,1,0.4,1
voc024a,27,bandit90,bandit50b,bandit90,1,0.96346,1,0.4,1
voc024a,28,bandit30,bandit50b,bandit50b,2,1.2525,1,0.2,1
voc024a,29,bandit90,bandit70,bandit90,1,0.87593,1,0.2,1
voc024a,30,bandit10,bandit50a,bandit50a,2,1.8661,1,0.4,1
voc024a,31,bandit30,bandit10,bandit10,2,1.512,-1,0.2,0
voc024a,32,bandit90,bandit10,bandit90,1,0.93182,1,0.8,1
voc024a,33,bandit70,bandit90,bandit90,2,1.8553,1,0.2,1
voc024a,34,bandit50a,bandit30,bandit50a,1,2.0456,1,0.2,1
voc024a,35,bandit50b,bandit70,bandit70,2,1.1,1,0.2,1
voc024a,36,bandit50b,bandit10,bandit50b,1,1.6572,1,0.4,1
voc024a,37,bandit50a,bandit90,bandit90,2,1.4954,1,0.4,1
voc024a,38,bandit50b,bandit90,bandit90,2,0.88411,1,0.4,1
voc024a,39,bandit50b,bandit30,bandit50b,1,1.2739,1,0.2,1
voc024a,40,bandit70,bandit30,bandit70,1,0.76682,1,0.4,1
voc024a,41,bandit50a,bandit50b,bandit50b,2,1.0816,0,0,0
voc024a,42,bandit50a,bandit70,bandit50a,1,0.91897,-1,0.2,0
voc024a,43,bandit50a,bandit10,bandit50a,1,0.84378,1,0.4,1
voc024a,44,bandit70,bandit10,bandit70,1,0.70681,1,0.6,1
voc024a,45,bandit30,bandit90,bandit90,2,0.95161,1,0.6,1
voc024a,46,bandit90,bandit30,bandit90,1,1.1389,1,0.6,1
voc024a,47,bandit50b,bandit50a,bandit50b,1,1.661,0,0,0
voc024a,48,bandit30,bandit50b,bandit50b,2,1.3316,1,0.2,1
voc024a,49,bandit10,bandit50a,bandit50a,2,1.4313,1,0.4,1
voc024a,50,bandit10,bandit50b,bandit50b,2,0.90993,1,0.4,1
voc024a,51,bandit90,bandit70,bandit90,1,0.89875,1,0.2,1
voc024a,52,bandit10,bandit90,bandit90,2,0.82287,1,0.8,1
voc024a,53,bandit70,bandit50a,bandit70,1,0.72781,1,0.2,1
voc024a,54,bandit30,bandit50a,bandit50a,2,1.1323,1,0.2,1
voc024a,55,bandit90,bandit50a,bandit90,1,0.86409,1,0.4,1
voc024a,56,bandit90,bandit50b,bandit90,1,0.82145,1,0.4,1
voc024a,57,bandit70,bandit50b,bandit70,1,0.82995,1,0.2,1
voc024a,58,bandit10,bandit30,bandit30,2,1.3098,1,0.2,1
voc024a,59,bandit30,bandit70,bandit70,2,1.2014,1,0.4,1
voc024a,60,bandit10,bandit70,bandit70,2,0.77095,1,0.6,1
voc024a,61,bandit50b,bandit90,bandit90,2,0.80449,1,0.4,1
voc024a,62,bandit70,bandit90,bandit90,2,1.5416,1,0.2,1
voc024a,63,bandit90,bandit10,bandit90,1,0.75243,1,0.8,1
voc024a,64,bandit30,bandit90,bandit90,2,0.8512,1,0.6,1
voc024a,65,bandit30,bandit10,bandit10,2,1.6024,-1,0.2,0
voc024a,66,bandit50b,bandit10,bandit50b,1,1.0673,1,0.4,1
voc024a,67,bandit50a,bandit70,bandit70,2,1.1362,1,0.2,1
voc024a,68,bandit50a,bandit30,bandit50a,1,1.2037,1,0.2,1
voc024a,69,bandit50a,bandit10,bandit50a,1,0.65297,1,0.4,1
voc024a,70,bandit50b,bandit30,bandit30,2,1.3002,-1,0.2,0
voc024a,71,bandit70,bandit10,bandit70,1,0.88849,1,0.6,1
voc024a,72,bandit50b,bandit70,bandit70,2,1.085,1,0.2,1
voc024a,73,bandit70,bandit30,bandit70,1,0.72272,1,0.4,1
voc024a,74,bandit50a,bandit50b,bandit50b,2,1.2802,0,0,0
voc024a,75,bandit50a,bandit90,bandit90,2,1.1408,1,0.4,1
voc024a,76,bandit90,bandit50a,bandit90,1,1.1438,1,0.4,1
voc024a,77,bandit30,bandit50b,bandit50b,2,2.4749,1,0.2,1
voc024a,78,bandit30,bandit50a,bandit50a,2,1.4321,1,0.2,1
voc024a,79,bandit90,bandit30,bandit90,1,0.80755999999999994,1,0.6,1
voc024a,80,bandit10,bandit30,bandit30,2,1.5998000000000001,1,0.2,1
voc024a,81,bandit10,bandit90,bandit90,2,0.96075,1,0.8,1
voc024a,82,bandit70,bandit50a,bandit70,1,1.0349,1,0.2,1
voc024a,83,bandit10,bandit50a,bandit50a,2,1.4508,1,0.4,1
voc024a,84,bandit10,bandit50b,bandit50b,2,1.729,1,0.4,1
voc024a,85,bandit70,bandit50b,bandit70,1,0.8367,1,0.2,1
voc024a,86,bandit10,bandit70,bandit70,2,0.78062,1,0.6,1
voc024a,87,bandit30,bandit70,bandit70,2,0.70194,1,0.4,1
voc024a,88,bandit90,bandit50b,bandit90,1,0.8502,1,0.4,1
voc024a,89,bandit90,bandit70,bandit70,2,0.75386,-1,0.2,0
voc024a,90,bandit50b,bandit50a,bandit50b,1,1.6762,0,0,0
voc025a,1,bandit30,bandit90,bandit90,2,2.1023,1,0.6,1
voc025a,2,bandit50b,bandit30,bandit30,2,2.4902,-1,0.2,0
voc025a,3,bandit50a,bandit90,bandit90,2,1.6475,1,0.4,1
voc025a,4,bandit70,bandit90,bandit90,2,1.1491,1,0.2,1
voc025a,5,bandit50a,bandit70,bandit70,2,1.0882,1,0.2,1
voc025a,6,bandit50b,bandit10,bandit50b,1,3.9817,1,0.4,1
voc025a,7,bandit50a,bandit30,bandit30,2,1.5172,-1,0.2,0
voc025a,8,bandit50b,bandit70,bandit70,2,1.0643,1,0.2,1
voc025a,9,bandit70,bandit10,bandit70,1,1.958,1,0.6,1
voc025a,10,bandit70,bandit30,bandit70,1,1.7042,1,0.4,1
voc025a,11,bandit90,bandit10,bandit90,1,1.0518,1,0.8,1
voc025a,12,bandit50a,bandit50b,bandit50a,1,2.9948,0,0,0
voc025a,13,bandit50a,bandit10,bandit50a,1,2.7151,1,0.4,1
voc025a,14,bandit30,bandit10,bandit30,1,1.054,1,0.2,1
voc025a,15,bandit50b,bandit90,bandit90,2,0.68555,1,0.4,1
voc025a,16,bandit30,bandit70,bandit70,2,1.531,1,0.4,1
voc025a,17,bandit10,bandit70,bandit70,2,1.8048,1,0.6,1
voc025a,18,bandit90,bandit50b,bandit90,1,0.76637,1,0.4,1
voc025a,19,bandit70,bandit50b,bandit70,1,1.287,1,0.2,1
voc025a,20,bandit10,bandit90,bandit90,2,0.72415,1,0.8,1
voc025a,21,bandit90,bandit50a,bandit90,1,0.49736,1,0.4,1
voc025a,22,bandit10,bandit30,bandit30,2,0.98161,1,0.2,1
voc025a,23,bandit90,bandit70,bandit90,1,0.85615,1,0.2,1
voc025a,24,bandit10,bandit50a,bandit10,1,1.1912,-1,0.4,0
voc025a,25,bandit30,bandit50b,bandit30,1,2.0312,-1,0.2,0
voc025a,26,bandit30,bandit50a,bandit30,1,0.81485,-1,0.2,0
voc025a,27,bandit50b,bandit50a,bandit50b,1,1.9507,0,0,0
voc025a,28,bandit70,bandit50a,bandit70,1,1.5126,1,0.2,1
voc025a,29,bandit90,bandit30,bandit90,1,0.86904,1,0.6,1
voc025a,30,bandit10,bandit50b,bandit50b,2,1.9867,1,0.4,1
voc025a,31,bandit50a,bandit50b,bandit50a,1,3.9715,0,0,0
voc025a,32,bandit50a,bandit10,bandit50a,1,0.91548,1,0.4,1
voc025a,33,bandit30,bandit90,bandit90,2,0.69561,1,0.6,1
voc025a,34,bandit50a,bandit70,bandit70,2,0.86863,1,0.2,1
voc025a,35,bandit50b,bandit10,bandit50b,1,2.8355,1,0.4,1
voc025a,36,bandit30,bandit10,bandit30,1,1.8334,1,0.2,1
voc025a,37,bandit70,bandit30,bandit70,1,1.3442,1,0.4,1
voc025a,38,bandit90,bandit10,bandit90,1,0.96324,1,0.8,1
voc025a,39,bandit70,bandit10,bandit70,1,2.6458,1,0.6,1
voc025a,40,bandit70,bandit90,bandit90,2,0.65193,1,0.2,1
voc025a,41,bandit50a,bandit30,bandit30,2,0.86703,-1,0.2,0
voc025a,42,bandit50a,bandit90,bandit90,2,1.0172,1,0.4,1
voc025a,43,bandit50b,bandit30,bandit30,2,1.2485,-1,0.2,0
voc025a,44,bandit50b,bandit90,bandit90,2,0.75102,1,0.4,1
voc025a,45,bandit50b,bandit70,bandit70,2,1.2663,1,0.2,1
voc025a,46,bandit30,bandit50b,bandit50b,2,4.3126,1,0.2,1
voc025a,47,bandit90,bandit70,bandit90,1,0.80207,1,0.2,1
voc025a,48,bandit30,bandit70,bandit70,2,1.332,1,0.4,1
voc025a,49,bandit10,bandit50a,bandit50a,2,4.3184,1,0.4,1
voc025a,50,bandit10,bandit90,bandit90,2,1.3925,1,0.8,1
voc025a,51,bandit50b,bandit50a,bandit50a,2,2.7702,0,0,0
voc025a,52,bandit90,bandit50b,bandit90,1,0.72962,1,0.4,1
voc025a,53,bandit10,bandit50b,bandit50b,2,1.7098,1,0.4,1
voc025a,54,bandit90,bandit30,bandit90,1,0.6666,1,0.6,1
voc025a,55,bandit30,bandit50a,bandit30,1,1.4232,-1,0.2,0
voc025a,56,bandit10,bandit70,bandit70,2,1.6484,1,0.6,1
voc025a,57,bandit70,bandit50b,bandit70,1,0.82202,1,0.2,1
voc025a,58,bandit70,bandit50a,bandit70,1,1.943,1,0.2,1
voc025a,59,bandit90,bandit50a,bandit90,1,0.72105,1,0.4,1
voc025a,60,bandit10,bandit30,bandit30,2,1.1894,1,0.2,1
voc025a,61,bandit50a,bandit50b,bandit50b,2,2.4861,0,0,0
voc025a,62,bandit70,bandit90,bandit90,2,1.5548,1,0.2,1
voc025a,63,bandit50b,bandit70,bandit70,2,3.1983,1,0.2,1
voc025a,64,bandit50b,bandit30,bandit50b,1,1.9569,1,0.2,1
voc025a,65,bandit50a,bandit10,bandit50a,1,1.99,1,0.4,1
voc025a,66,bandit50b,bandit10,bandit50b,1,2.0724,1,0.4,1
voc025a,67,bandit50a,bandit30,bandit30,2,1.564,-1,0.2,0
voc025a,68,bandit70,bandit10,bandit70,1,0.63893,1,0.6,1
voc025a,69,bandit70,bandit30,bandit70,1,0.70245,1,0.4,1
voc025a,70,bandit50a,bandit70,bandit70,2,0.75504,1,0.2,1
voc025a,71,bandit50b,bandit90,bandit90,2,0.72697,1,0.4,1
voc025a,72,bandit30,bandit10,bandit30,1,2.5787,1,0.2,1
voc025a,73,bandit90,bandit10,bandit90,1,0.60342,1,0.8,1
voc025a,74,bandit50a,bandit90,bandit90,2,0.44503,1,0.4,1
voc025a,75,bandit30,bandit90,bandit90,2,0.40415,1,0.6,1
voc025a,76,bandit30,bandit70,bandit70,2,0.997,1,0.4,1
voc025a,77,bandit10,bandit70,bandit70,2,0.90187,1,0.6,1
voc025a,78,bandit10,bandit30,bandit30,2,2.0186,1,0.2,1
voc025a,79,bandit30,bandit50a,bandit30,1,1.4505,-1,0.2,0
voc025a,80,bandit70,bandit50b,bandit70,1,1.009,1,0.2,1
voc025a,81,bandit90,bandit70,bandit90,1,1.1129,1,0.2,1
voc025a,82,bandit10,bandit50b,bandit50b,2,4.3732,1,0.4,1
voc025a,83,bandit90,bandit30,bandit90,1,1.1812,1,0.6,1
voc025a,84,bandit10,bandit50a,bandit50a,2,1.2299,1,0.4,1
voc025a,85,bandit30,bandit50b,bandit30,1,2.0695,-1,0.2,0
voc025a,86,bandit50b,bandit50a,bandit50a,2,1.5785,0,0,0
voc025a,87,bandit10,bandit90,bandit90,2,0.96428,1,0.8,1
voc025a,88,bandit90,bandit50a,bandit90,1,0.94288,1,0.4,1
voc025a,89,bandit90,bandit50b,bandit90,1,0.68967,1,0.4,1
voc025a,90,bandit70,bandit50a,bandit70,1,1.1117,1,0.2,1
voc026a,1,bandit50b,bandit10,bandit50b,1,12.1369,1,0.4,1
voc026a,2,bandit50a,bandit70,bandit70,2,1.3006,1,0.2,1
voc026a,3,bandit30,bandit10,bandit10,2,0.72032,-1,0.2,0
voc026a,4,bandit30,bandit90,bandit90,2,0.48576,1,0.6,1
voc026a,5,bandit70,bandit30,bandit70,1,2.2594,1,0.4,1
voc026a,6,bandit50a,bandit10,bandit50a,1,1.441,1,0.4,1
voc026a,7,bandit50b,bandit30,bandit50b,1,0.7286,1,0.2,1
voc026a,8,bandit50a,bandit90,bandit90,2,0.5249,1,0.4,1
voc026a,9,bandit70,bandit90,bandit90,2,0.70518,1,0.2,1
voc026a,10,bandit50a,bandit50b,bandit50a,1,0.81278,0,0,0
voc026a,11,bandit50b,bandit90,bandit90,2,0.56598,1,0.4,1
voc026a,12,bandit50a,bandit30,bandit50a,1,0.49727,1,0.2,1
voc026a,13,bandit90,bandit10,bandit90,1,0.40549,1,0.8,1
voc026a,14,bandit70,bandit10,bandit10,2,0.40614,-1,0.6,0
voc026a,15,bandit50b,bandit70,bandit50b,1,0.2327,-1,0.2,0
voc026a,16,bandit70,bandit50b,bandit70,1,0.24814,1,0.2,1
voc026a,17,bandit30,bandit70,bandit70,2,0.62226,1,0.4,1
voc026a,18,bandit30,bandit50a,bandit50a,2,1.9268,1,0.2,1
voc026a,19,bandit10,bandit30,bandit30,2,2.307,1,0.2,1
voc026a,20,bandit90,bandit50b,bandit90,1,0.82369,1,0.4,1
voc026a,21,bandit10,bandit50a,bandit50a,2,1.0634,1,0.4,1
voc026a,22,bandit50b,bandit50a,bandit50a,2,1.5968,0,0,0
voc026a,23,bandit10,bandit50b,bandit50b,2,1.3094,1,0.4,1
voc026a,24,bandit10,bandit90,bandit90,2,0.69083,1,0.8,1
voc026a,25,bandit90,bandit30,bandit90,1,0.60788,1,0.6,1
voc026a,26,bandit30,bandit50b,bandit50b,2,0.92189,1,0.2,1
voc026a,27,bandit70,bandit50a,bandit70,1,0.6056,1,0.2,1
voc026a,28,bandit90,bandit50a,bandit50a,2,0.47808,-1,0.4,0
voc026a,29,bandit90,bandit70,bandit70,2,0.47632,-1,0.2,0
voc026a,30,bandit10,bandit70,bandit10,1,0.35607,-1,0.6,0
voc026a,31,bandit70,bandit10,bandit70,1,0.61441,1,0.6,1
voc026a,32,bandit50b,bandit10,bandit10,2,0.51041,-1,0.4,0
voc026a,33,bandit50b,bandit90,bandit90,2,0.61979,1,0.4,1
voc026a,34,bandit30,bandit90,bandit90,2,0.58765,1,0.6,1
voc026a,35,bandit90,bandit10,bandit90,1,0.58156,1,0.8,1
voc026a,36,bandit70,bandit30,bandit70,1,1.1994,1,0.4,1
voc026a,37,bandit50a,bandit70,bandit50a,1,0.51237,-1,0.2,0
voc026a,38,bandit50b,bandit70,bandit70,2,0.82826,1,0.2,1
voc026a,39,bandit50a,bandit30,bandit50a,1,0.33228,1,0.2,1
voc026a,40,bandit50a,bandit90,bandit90,2,0.38434,1,0.4,1
voc026a,41,bandit50a,bandit10,bandit50a,1,0.49146,1,0.4,1
voc026a,42,bandit30,bandit10,bandit30,1,1.2959,1,0.2,1
voc026a,43,bandit50b,bandit30,bandit50b,1,5.4124,1,0.2,1
voc026a,44,bandit50a,bandit50b,bandit50a,1,0.83425,0,0,0
voc026a,45,bandit70,bandit90,bandit90,2,0.69805,1,0.2,1
voc026a,46,bandit70,bandit50a,bandit50a,2,2.3824,-1,0.2,0
voc026a,47,bandit30,bandit50a,bandit50a,2,0.70346,1,0.2,1
voc026a,48,bandit90,bandit50a,bandit90,1,0.70829,1,0.4,1
voc026a,49,bandit90,bandit70,bandit90,1,0.67317,1,0.2,1
voc026a,50,bandit10,bandit30,bandit30,2,1.5678,1,0.2,1
voc026a,51,bandit90,bandit50b,bandit90,1,0.78446,1,0.4,1
voc026a,52,bandit30,bandit50b,bandit50b,2,1.2502,1,0.2,1
voc026a,53,bandit10,bandit50a,bandit50a,2,0.47311,1,0.4,1
voc026a,54,bandit10,bandit90,bandit90,2,1.528,1,0.8,1
voc026a,55,bandit70,bandit50b,bandit70,1,1.7006,1,0.2,1
voc026a,56,bandit10,bandit70,bandit70,2,1.1193,1,0.6,1
voc026a,57,bandit50b,bandit50a,bandit50b,1,0.92396,0,0,0
voc026a,58,bandit10,bandit50b,bandit50b,2,1.3837,1,0.4,1
voc026a,59,bandit90,bandit30,bandit90,1,0.57667,1,0.6,1
voc026a,60,bandit30,bandit70,bandit70,2,0.52422,1,0.4,1
voc026a,61,bandit90,bandit10,bandit10,2,0.37583,-1,0.8,0
voc026a,62,bandit70,bandit30,bandit70,1,1.7846e-4,1,0.4,1
voc026a,63,bandit50a,bandit30,bandit30,2,0.30773,-1,0.2,0
voc026a,64,bandit50b,bandit10,bandit10,2,0.56857,-1,0.4,0
voc026a,65,bandit70,bandit90,bandit90,2,0.51626,1,0.2,1
voc026a,66,bandit30,bandit90,bandit90,2,0.58361,1,0.6,1
voc026a,67,bandit50b,bandit90,bandit90,2,0.35388,1,0.4,1
voc026a,68,bandit30,bandit10,bandit30,1,0.63635,1,0.2,1
voc026a,69,bandit70,bandit10,bandit70,1,0.55691,1,0.6,1
voc026a,70,bandit50a,bandit70,bandit70,2,0.76826,1,0.2,1
voc026a,71,bandit50a,bandit50b,bandit50a,1,0.61802,0,0,0
voc026a,72,bandit50b,bandit70,bandit70,2,1.0975,1,0.2,1
voc026a,73,bandit50b,bandit30,bandit50b,1,0.66309,1,0.2,1
voc026a,74,bandit50a,bandit90,bandit90,2,0.53287,1,0.4,1
voc026a,75,bandit50a,bandit10,bandit50a,1,0.42481,1,0.4,1
voc026a,76,bandit10,bandit50b,bandit50b,2,0.44917,1,0.4,1
voc026a,77,bandit90,bandit50a,bandit90,1,0.58409,1,0.4,1
voc026a,78,bandit70,bandit50b,bandit50b,2,0.59441,-1,0.2,0
voc026a,79,bandit50b,bandit50a,bandit50b,1,0.61157,0,0,0
voc026a,80,bandit10,bandit50a,bandit50a,2,0.37254,1,0.4,1
voc026a,81,bandit10,bandit30,bandit10,1,0.35954,-1,0.2,0
voc026a,82,bandit90,bandit50b,bandit90,1,1.794e-4,1,0.4,1
voc026a,83,bandit30,bandit50b,bandit30,1,1.8024e-4,-1,0.2,0
voc026a,84,bandit30,bandit70,bandit70,2,0.36585,1,0.4,1
voc026a,85,bandit30,bandit50a,bandit50a,2,0.43236,1,0.2,1
voc026a,86,bandit90,bandit30,bandit90,1,0.38402,1,0.6,1
voc026a,87,bandit70,bandit50a,bandit50a,2,0.38553,-1,0.2,0
voc026a,88,bandit10,bandit70,bandit10,1,0.41938,-1,0.6,0
voc026a,89,bandit90,bandit70,bandit70,2,0.1878,-1,0.2,0
voc026a,90,bandit10,bandit90,bandit10,1,0.31789,-1,0.8,0
voc027a,1,bandit90,bandit10,bandit90,1,1.9926,1,0.8,1
voc027a,2,bandit70,bandit90,bandit90,2,1.3882,1,0.2,1
voc027a,3,bandit50a,bandit90,bandit90,2,0.71978,1,0.4,1
voc027a,4,bandit70,bandit30,bandit70,1,1.1339,1,0.4,1
voc027a,5,bandit50b,bandit90,bandit90,2,1.0822,1,0.4,1
voc027a,6,bandit70,bandit10,bandit70,1,1.1061,1,0.6,1
voc027a,7,bandit50a,bandit70,bandit70,2,1.2087,1,0.2,1
voc027a,8,bandit30,bandit90,bandit30,1,0.78679,-1,0.6,0
voc027a,9,bandit50a,bandit30,bandit30,2,1.9829,-1,0.2,0
voc027a,10,bandit50a,bandit10,bandit50a,1,1.8429,1,0.4,1
voc027a,11,bandit50a,bandit50b,bandit50b,2,1.2277,0,0,0
voc027a,12,bandit50b,bandit30,bandit50b,1,0.62983,1,0.2,1
voc027a,13,bandit30,bandit10,bandit30,1,1.3665,1,0.2,1
voc027a,14,bandit50b,bandit10,bandit50b,1,1.2995,1,0.4,1
voc027a,15,bandit50b,bandit70,bandit70,2,0.62494,1,0.2,1
voc027a,16,bandit10,bandit50b,bandit50b,2,1.0592,1,0.4,1
voc027a,17,bandit90,bandit30,bandit90,1,0.44419,1,0.6,1
voc027a,18,bandit10,bandit50a,bandit50a,2,1.4282,1,0.4,1
voc027a,19,bandit30,bandit50b,bandit50b,2,1.5743,1,0.2,1
voc027a,20,bandit30,bandit70,bandit70,2,1.1394,1,0.4,1
voc027a,21,bandit50b,bandit50a,bandit50b,1,0.5687,0,0,0
voc027a,22,bandit90,bandit50b,bandit50b,2,0.44334,-1,0.4,0
voc027a,23,bandit70,bandit50a,bandit70,1,0.74084,1,0.2,1
voc027a,24,bandit30,bandit50a,bandit30,1,1.5949,-1,0.2,0
voc027a,25,bandit10,bandit90,bandit90,2,0.62908,1,0.8,1
voc027a,26,bandit70,bandit50b,bandit50b,2,2.1113,-1,0.2,0
voc027a,27,bandit10,bandit30,bandit30,2,1.3098,1,0.2,1
voc027a,28,bandit90,bandit70,bandit90,1,0.63635,1,0.2,1
voc027a,29,bandit10,bandit70,bandit70,2,0.86208,1,0.6,1
voc027a,30,bandit90,bandit50a,bandit90,1,0.49536,1,0.4,1
voc027a,31,bandit90,bandit10,bandit90,1,0.68525,1,0.8,1
voc027a,32,bandit50a,bandit10,bandit50a,1,2.717,1,0.4,1
voc027a,33,bandit70,bandit10,bandit70,1,1.684,1,0.6,1
voc027a,34,bandit50a,bandit90,bandit90,2,0.77115,1,0.4,1
voc027a,35,bandit50b,bandit30,bandit50b,1,0.55945,1,0.2,1
voc027a,36,bandit50a,bandit70,bandit70,2,0.67583,1,0.2,1
voc027a,37,bandit30,bandit90,bandit90,2,0.44283,1,0.6,1
voc027a,38,bandit70,bandit90,bandit70,1,0.57259,-1,0.2,0
voc027a,39,bandit50b,bandit70,bandit70,2,0.67211,1,0.2,1
voc027a,40,bandit30,bandit10,bandit30,1,1.008,1,0.2,1
voc027a,41,bandit50a,bandit30,bandit30,2,0.61018,-1,0.2,0
voc027a,42,bandit50b,bandit10,bandit50b,1,0.53253,1,0.4,1
voc027a,43,bandit50a,bandit50b,bandit50b,2,0.53013,0,0,0
voc027a,44,bandit70,bandit30,bandit70,1,0.56656,1,0.4,1
voc027a,45,bandit50b,bandit90,bandit90,2,0.45076,1,0.4,1
voc027a,46,bandit30,bandit70,bandit70,2,0.84227,1,0.4,1
voc027a,47,bandit90,bandit70,bandit90,1,0.41228,1,0.2,1
voc027a,48,bandit70,bandit50a,bandit70,1,0.59037,1,0.2,1
voc027a,49,bandit90,bandit50a,bandit90,1,0.43363,1,0.4,1
voc027a,50,bandit10,bandit30,bandit30,2,0.74632,1,0.2,1
voc027a,51,bandit10,bandit50a,bandit10,1,0.67973,-1,0.4,0
voc027a,52,bandit10,bandit70,bandit70,2,0.43877,1,0.6,1
voc027a,53,bandit30,bandit50b,bandit50b,2,0.98355,1,0.2,1
voc027a,54,bandit10,bandit50b,bandit50b,2,0.74728000000000006,1,0.4,1
voc027a,55,bandit70,bandit50b,bandit50b,2,1.2634,-1,0.2,0
voc027a,56,bandit90,bandit50b,bandit90,1,0.56678,1,0.4,1
voc027a,57,bandit30,bandit50a,bandit30,1,1.4111,-1,0.2,0
voc027a,58,bandit50b,bandit50a,bandit50b,1,0.56549,0,0,0
voc027a,59,bandit90,bandit30,bandit90,1,1.0098,1,0.6,1
voc027a,60,bandit10,bandit90,bandit90,2,0.89243,1,0.8,1
voc027a,61,bandit50a,bandit50b,bandit50b,2,0.82771,0,0,0
voc027a,62,bandit50b,bandit10,bandit50b,1,1.189,1,0.4,1
voc027a,63,bandit50a,bandit90,bandit90,2,1.1195,1,0.4,1
voc027a,64,bandit70,bandit10,bandit70,1,1.1339,1,0.6,1
voc027a,65,bandit50b,bandit90,bandit90,2,0.55551,1,0.4,1
voc027a,66,bandit50b,bandit70,bandit50b,1,1.3195,-1,0.2,0
voc027a,67,bandit50a,bandit70,bandit70,2,0.50221,1,0.2,1
voc027a,68,bandit70,bandit90,bandit90,2,0.40353,1,0.2,1
voc027a,69,bandit30,bandit10,bandit30,1,1.0226,1,0.2,1
voc027a,70,bandit70,bandit30,bandit70,1,0.48099,1,0.4,1
voc027a,71,bandit50a,bandit30,bandit30,2,0.63196,-1,0.2,0
voc027a,72,bandit50a,bandit10,bandit50a,1,0.52924,1,0.4,1
voc027a,73,bandit90,bandit10,bandit90,1,0.4951,1,0.8,1
voc027a,74,bandit50b,bandit30,bandit50b,1,0.84572,1,0.2,1
voc027a,75,bandit30,bandit90,bandit90,2,0.44638,1,0.6,1
voc027a,76,bandit90,bandit30,bandit90,1,0.40779,1,0.6,1
voc027a,77,bandit50b,bandit50a,bandit50b,1,0.61819,0,0,0
voc027a,78,bandit90,bandit70,bandit90,1,0.41934,1,0.2,1
voc027a,79,bandit10,bandit30,bandit30,2,1.5171,1,0.2,1
voc027a,80,bandit30,bandit50a,bandit30,1,0.79508,-1,0.2,0
voc027a,81,bandit90,bandit50b,bandit90,1,0.59149,1,0.4,1
voc027a,82,bandit10,bandit50b,bandit50b,2,0.59345,1,0.4,1
voc027a,83,bandit70,bandit50a,bandit70,1,0.82968,1,0.2,1
voc027a,84,bandit10,bandit70,bandit70,2,0.41416,1,0.6,1
voc027a,85,bandit90,bandit50a,bandit90,1,0.61565,1,0.4,1
voc027a,86,bandit70,bandit50b,bandit70,1,0.84956,1,0.2,1
voc027a,87,bandit10,bandit50a,bandit50a,2,1.2028,1,0.4,1
voc027a,88,bandit10,bandit90,bandit90,2,0.42157,1,0.8,1
voc027a,89,bandit30,bandit50b,bandit50b,2,0.72707,1,0.2,1
voc027a,90,bandit30,bandit70,bandit70,2,0.41251,1,0.4,1
voc028a,1,bandit70,bandit10,bandit70,1,2.4692,1,0.6,1
voc028a,2,bandit50a,bandit30,bandit50a,1,1.2456,1,0.2,1
voc028a,3,bandit50a,bandit10,bandit50a,1,0.83961,1,0.4,1
voc028a,4,bandit70,bandit30,bandit70,1,0.98418,1,0.4,1
voc028a,5,bandit50b,bandit30,bandit50b,1,0.9786,1,0.2,1
voc028a,6,bandit50a,bandit50b,bandit50a,1,0.87863,0,0,0
voc028a,7,bandit50b,bandit10,bandit10,2,0.78291,-1,0.4,0
voc028a,8,bandit50b,bandit70,bandit70,2,0.71332,1,0.2,1
voc028a,9,bandit50a,bandit70,bandit70,2,1.943,1,0.2,1
voc028a,10,bandit70,bandit90,bandit90,2,0.7488,1,0.2,1
voc028a,11,bandit30,bandit90,bandit90,2,0.58513,1,0.6,1
voc028a,12,bandit50b,bandit90,bandit90,2,0.73218,1,0.4,1
voc028a,13,bandit90,bandit10,bandit90,1,0.61759,1,0.8,1
voc028a,14,bandit50a,bandit90,bandit90,2,0.54007,1,0.4,1
voc028a,15,bandit30,bandit10,bandit30,1,0.9845,1,0.2,1
voc028a,16,bandit70,bandit50a,bandit70,1,0.78043,1,0.2,1
voc028a,17,bandit90,bandit50a,bandit90,1,0.75845,1,0.4,1
voc028a,18,bandit90,bandit70,bandit90,1,0.75482,1,0.2,1
voc028a,19,bandit90,bandit50b,bandit90,1,0.56005,1,0.4,1
voc028a,20,bandit70,bandit50b,bandit70,1,1.0283,1,0.2,1
voc028a,21,bandit10,bandit70,bandit70,2,0.75883,1,0.6,1
voc028a,22,bandit30,bandit70,bandit70,2,0.85882,1,0.4,1
voc028a,23,bandit50b,bandit50a,bandit50a,2,0.85927,0,0,0
voc028a,24,bandit10,bandit90,bandit90,2,0.65928,1,0.8,1
voc028a,25,bandit90,bandit30,bandit90,1,0.60435,1,0.6,1
voc028a,26,bandit30,bandit50a,bandit50a,2,0.86279,1,0.2,1
voc028a,27,bandit10,bandit50b,bandit10,1,0.8309,-1,0.4,0
voc028a,28,bandit10,bandit50a,bandit10,1,0.46334,-1,0.4,0
voc028a,29,bandit30,bandit50b,bandit30,1,0.98379,-1,0.2,0
voc028a,30,bandit10,bandit30,bandit30,2,0.76313,1,0.2,1
voc028a,31,bandit50b,bandit30,bandit30,2,0.6146,-1,0.2,0
voc028a,32,bandit30,bandit10,bandit30,1,0.52951,1,0.2,1
voc028a,33,bandit90,bandit10,bandit90,1,0.70294,1,0.8,1
voc028a,34,bandit50a,bandit30,bandit50a,1,1.7257,1,0.2,1
voc028a,35,bandit50a,bandit10,bandit50a,1,0.39562,1,0.4,1
voc028a,36,bandit50b,bandit90,bandit90,2,0.55769,1,0.4,1
voc028a,37,bandit70,bandit10,bandit70,1,0.5548,1,0.6,1
voc028a,38,bandit70,bandit90,bandit90,2,0.75897,1,0.2,1
voc028a,39,bandit30,bandit90,bandit90,2,0.54764,1,0.6,1
voc028a,40,bandit50a,bandit90,bandit90,2,0.40834,1,0.4,1
voc028a,41,bandit50a,bandit70,bandit50a,1,0.81047,-1,0.2,0
voc028a,42,bandit50b,bandit10,bandit10,2,1.2053,-1,0.4,0
voc028a,43,bandit50a,bandit50b,bandit50a,1,0.95891,0,0,0
voc028a,44,bandit70,bandit30,bandit70,1,1.3644,1,0.4,1
voc028a,45,bandit50b,bandit70,bandit70,2,0.58469,1,0.2,1
voc028a,46,bandit90,bandit50b,bandit90,1,0.57165,1,0.4,1
voc028a,47,bandit10,bandit70,bandit70,2,0.62356,1,0.6,1
voc028a,48,bandit70,bandit50a,bandit70,1,0.52888,1,0.2,1
voc028a,49,bandit10,bandit30,bandit10,1,0.83895,-1,0.2,0
voc028a,50,bandit50b,bandit50a,bandit50a,2,0.89214,0,0,0
voc028a,51,bandit10,bandit50b,bandit10,1,1.1636,-1,0.4,0
voc028a,52,bandit30,bandit70,bandit70,2,0.55954,1,0.4,1
voc028a,53,bandit90,bandit70,bandit90,1,0.48349,1,0.2,1
voc028a,54,bandit10,bandit90,bandit90,2,0.5793,1,0.8,1
voc028a,55,bandit30,bandit50b,bandit30,1,1.0062,-1,0.2,0
voc028a,56,bandit90,bandit50a,bandit90,1,0.59221,1,0.4,1
voc028a,57,bandit10,bandit50a,bandit10,1,1.0271,-1,0.4,0
voc028a,58,bandit30,bandit50a,bandit30,1,0.98977,-1,0.2,0
voc028a,59,bandit70,bandit50b,bandit70,1,0.66423,1,0.2,1
voc028a,60,bandit90,bandit30,bandit90,1,0.66375,1,0.6,1
voc028a,61,bandit50a,bandit10,bandit50a,1,0.72832,1,0.4,1
voc028a,62,bandit50b,bandit10,bandit10,2,1.0545,-1,0.4,0
voc028a,63,bandit70,bandit30,bandit70,1,0.59037,1,0.4,1
voc028a,64,bandit50a,bandit70,bandit70,2,0.54526,1,0.2,1
voc028a,65,bandit50b,bandit70,bandit70,2,0.67102,1,0.2,1
voc028a,66,bandit70,bandit10,bandit70,1,0.55879,1,0.6,1
voc028a,67,bandit30,bandit10,bandit30,1,1.0515,1,0.2,1
voc028a,68,bandit90,bandit10,bandit90,1,0.59612,1,0.8,1
voc028a,69,bandit50a,bandit50b,bandit50a,1,1.4708,0,0,0
voc028a,70,bandit50a,bandit90,bandit90,2,0.57515,1,0.4,1
voc028a,71,bandit50a,bandit30,bandit50a,1,0.48268,1,0.2,1
voc028a,72,bandit70,bandit90,bandit90,2,0.44106,1,0.2,1
voc028a,73,bandit30,bandit90,bandit90,2,0.49097,1,0.6,1
voc028a,74,bandit50b,bandit90,bandit90,2,0.49015,1,0.4,1
voc028a,75,bandit50b,bandit30,bandit30,2,1.273,-1,0.2,0
voc028a,76,bandit50b,bandit50a,bandit50a,2,0.72954,0,0,0
voc028a,77,bandit10,bandit70,bandit70,2,0.76594,1,0.6,1
voc028a,78,bandit10,bandit50a,bandit50a,2,1.7461,1,0.4,1
voc028a,79,bandit10,bandit90,bandit90,2,0.59107,1,0.8,1
voc028a,80,bandit10,bandit50b,bandit10,1,0.72108,-1,0.4,0
voc028a,81,bandit90,bandit70,bandit90,1,0.58351,1,0.2,1
voc028a,82,bandit30,bandit70,bandit70,2,0.48288,1,0.4,1
voc028a,83,bandit10,bandit30,bandit10,1,0.96132,-1,0.2,0
voc028a,84,bandit30,bandit50b,bandit30,1,1.5015,-1,0.2,0
voc028a,85,bandit30,bandit50a,bandit30,1,0.49319,-1,0.2,0
voc028a,86,bandit90,bandit50b,bandit90,1,0.59578,1,0.4,1
voc028a,87,bandit70,bandit50a,bandit70,1,1.3264,1,0.2,1
voc028a,88,bandit70,bandit50b,bandit70,1,0.6618,1,0.2,1
voc028a,89,bandit90,bandit30,bandit90,1,0.64614,1,0.6,1
voc028a,90,bandit90,bandit50a,bandit90,1,0.65427,1,0.4,1
voc029a,1,bandit90,bandit10,bandit90,1,3.2123,1,0.8,1
voc029a,2,bandit30,bandit90,bandit90,2,1.5957,1,0.6,1
voc029a,3,bandit50a,bandit90,bandit90,2,0.82771,1,0.4,1
voc029a,4,bandit70,bandit90,bandit90,2,1.7481,1,0.2,1
voc029a,5,bandit50a,bandit30,bandit30,2,7.5825,-1,0.2,0
voc029a,6,bandit50a,bandit70,bandit70,2,1.0442,1,0.2,1
voc029a,7,bandit50b,bandit30,bandit50b,1,20.1878,1,0.2,1
voc029a,8,bandit50a,bandit50b,bandit50b,2,1.3275,0,0,0
voc029a,9,bandit50b,bandit90,bandit90,2,1.26,1,0.4,1
voc029a,10,bandit70,bandit30,bandit70,1,1.2102,1,0.4,1
voc029a,11,bandit50b,bandit10,bandit50b,1,4.1463,1,0.4,1
voc029a,12,bandit50b,bandit70,bandit70,2,2.3886,1,0.2,1
voc029a,13,bandit30,bandit10,bandit30,1,2.0513,1,0.2,1
voc029a,14,bandit50a,bandit10,bandit10,2,1.6988,-1,0.4,0
voc029a,15,bandit70,bandit10,bandit70,1,1.1263,1,0.6,1
voc029a,16,bandit10,bandit50a,bandit10,1,2.7865,-1,0.4,0
voc029a,17,bandit90,bandit70,bandit90,1,1.419,1,0.2,1
voc029a,18,bandit30,bandit50b,bandit50b,2,3.875,1,0.2,1
voc029a,19,bandit10,bandit30,bandit30,2,1.4784,1,0.2,1
voc029a,20,bandit10,bandit90,bandit90,2,0.9486,1,0.8,1
voc029a,21,bandit70,bandit50b,bandit70,1,1.9271,1,0.2,1
voc029a,22,bandit10,bandit50b,bandit50b,2,1.6177,1,0.4,1
voc029a,23,bandit70,bandit50a,bandit70,1,0.77824,1,0.2,1
voc029a,24,bandit50b,bandit50a,bandit50b,1,0.81189,0,0,0
voc029a,25,bandit90,bandit50a,bandit90,1,2.541,1,0.4,1
voc029a,26,bandit90,bandit30,bandit90,1,0.88768,1,0.6,1
voc029a,27,bandit10,bandit70,bandit70,2,1.1645,1,0.6,1
voc029a,28,bandit30,bandit70,bandit70,2,0.72689,1,0.4,1
voc029a,29,bandit90,bandit50b,bandit90,1,1.603,1,0.4,1
voc029a,30,bandit30,bandit50a,bandit30,1,1.7793,-1,0.2,0
voc029a,31,bandit50a,bandit10,bandit50a,1,1.8528,1,0.4,1
voc029a,32,bandit50a,bandit50b,bandit50b,2,1.0982,0,0,0
voc029a,33,bandit70,bandit90,bandit90,2,1.504,1,0.2,1
voc029a,34,bandit70,bandit10,bandit70,1,1.116,1,0.6,1
voc029a,35,bandit50b,bandit90,bandit90,2,3.1441,1,0.4,1
voc029a,36,bandit50b,bandit30,bandit50b,1,2.1933,1,0.2,1
voc029a,37,bandit90,bandit10,bandit90,1,1.7066,1,0.8,1
voc029a,38,bandit50a,bandit70,bandit70,2,1.0229,1,0.2,1
voc029a,39,bandit50a,bandit30,bandit30,2,3.5111,-1,0.2,0
voc029a,40,bandit50b,bandit10,bandit50b,1,1.4495,1,0.4,1
voc029a,41,bandit30,bandit10,bandit30,1,3.6399,1,0.2,1
voc029a,42,bandit70,bandit30,bandit70,1,0.7655,1,0.4,1
voc029a,43,bandit50b,bandit70,bandit70,2,1.2154,1,0.2,1
voc029a,44,bandit50a,bandit90,bandit90,2,1.9031,1,0.4,1
voc029a,45,bandit30,bandit90,bandit90,2,0.69195,1,0.6,1
voc029a,46,bandit10,bandit70,bandit70,2,8.4495,1,0.6,1
voc029a,47,bandit30,bandit70,bandit70,2,0.73164,1,0.4,1
voc029a,48,bandit70,bandit50a,bandit70,1,0.5431,1,0.2,1
voc029a,49,bandit10,bandit90,bandit90,2,1.2429,1,0.8,1
voc029a,50,bandit90,bandit70,bandit70,2,0.5381,-1,0.2,0
voc029a,51,bandit10,bandit30,bandit30,2,4.2287,1,0.2,1
voc029a,52,bandit30,bandit50a,bandit30,1,7.4431,-1,0.2,0
voc029a,53,bandit10,bandit50b,bandit50b,2,1.5101,1,0.4,1
voc029a,54,bandit70,bandit50b,bandit50b,2,0.75502,-1,0.2,0
voc029a,55,bandit90,bandit50b,bandit50b,2,0.57369,-1,0.4,0
voc029a,56,bandit30,bandit50b,bandit50b,2,0.67136,1,0.2,1
voc029a,57,bandit90,bandit30,bandit90,1,2.9978,1,0.6,1
voc029a,58,bandit50b,bandit50a,bandit50b,1,12.677,0,0,0
voc029a,59,bandit90,bandit50a,bandit90,1,1.0756,1,0.4,1
voc029a,60,bandit10,bandit50a,bandit50a,2,1.8886,1,0.4,1
voc029a,61,bandit70,bandit90,bandit70,1,1.8307,-1,0.2,0
voc029a,62,bandit50a,bandit50b,bandit50a,1,6.5486,0,0,0
voc029a,63,bandit90,bandit10,bandit90,1,1.2842,1,0.8,1
voc029a,64,bandit30,bandit10,bandit30,1,1.321,1,0.2,1
voc029a,65,bandit50a,bandit30,bandit30,2,2.87,-1,0.2,0
voc029a,66,bandit50b,bandit70,bandit70,2,1.1936,1,0.2,1
voc029a,67,bandit70,bandit30,bandit70,1,0.63532,1,0.4,1
voc029a,68,bandit50a,bandit70,bandit70,2,0.58731,1,0.2,1
voc029a,69,bandit50a,bandit90,bandit90,2,1.2918,1,0.4,1
voc029a,70,bandit50a,bandit10,bandit50a,1,1.2744,1,0.4,1
voc029a,71,bandit70,bandit10,bandit70,1,0.69581,1,0.6,1
voc029a,72,bandit50b,bandit10,bandit50b,1,0.9167,1,0.4,1
voc029a,73,bandit50b,bandit90,bandit90,2,1.1779,1,0.4,1
voc029a,74,bandit50b,bandit30,bandit50b,1,2.9301,1,0.2,1
voc029a,75,bandit30,bandit90,bandit90,2,1.1649,1,0.6,1
voc029a,76,bandit10,bandit70,bandit10,1,1.0875,-1,0.6,0
voc029a,77,bandit30,bandit70,bandit70,2,2.1084,1,0.4,1
voc029a,78,bandit90,bandit30,bandit90,1,1.185,1,0.6,1
voc029a,79,bandit30,bandit50a,bandit30,1,4.1143,-1,0.2,0
voc029a,80,bandit70,bandit50b,bandit70,1,1.6126,1,0.2,1
voc029a,81,bandit30,bandit50b,bandit50b,2,0.83667,1,0.2,1
voc029a,82,bandit50b,bandit50a,bandit50b,1,0.82016,0,0,0
voc029a,83,bandit90,bandit50b,bandit90,1,1.5484,1,0.4,1
voc029a,84,bandit10,bandit50a,bandit50a,2,4.9266,1,0.4,1
voc029a,85,bandit70,bandit50a,bandit70,1,0.664,1,0.2,1
voc029a,86,bandit90,bandit50a,bandit90,1,1.4298,1,0.4,1
voc029a,87,bandit10,bandit30,bandit30,2,1.5896,1,0.2,1
voc029a,88,bandit10,bandit90,bandit90,2,0.79794,1,0.8,1
voc029a,89,bandit90,bandit70,bandit90,1,0.63982000000000006,1,0.2,1
voc029a,90,bandit10,bandit50b,bandit50b,2,0.99196,1,0.4,1
voc030a,1,bandit70,bandit30,bandit70,1,2.9238,1,0.4,1
voc030a,2,bandit50a,bandit30,bandit50a,1,2.3187,1,0.2,1
voc030a,3,bandit50a,bandit90,bandit90,2,0.73755,1,0.4,1
voc030a,4,bandit90,bandit10,bandit90,1,0.54092,1,0.8,1
voc030a,5,bandit50b,bandit90,bandit50b,1,0.59298,-1,0.4,0
voc030a,6,bandit50a,bandit70,bandit50a,1,0.60271,-1,0.2,0
voc030a,7,bandit70,bandit10,bandit70,1,0.69166,1,0.6,1
voc030a,8,bandit30,bandit90,bandit90,2,0.77692,1,0.6,1
voc030a,9,bandit50b,bandit10,bandit50b,1,0.77184,1,0.4,1
voc030a,10,bandit50b,bandit70,bandit70,2,0.58134,1,0.2,1
voc030a,11,bandit30,bandit10,bandit30,1,2.2078,1,0.2,1
voc030a,12,bandit50b,bandit30,bandit50b,1,0.55928,1,0.2,1
voc030a,13,bandit50a,bandit50b,bandit50b,2,2.363,0,0,0
voc030a,14,bandit50a,bandit10,bandit10,2,2.4364,-1,0.4,0
voc030a,15,bandit70,bandit90,bandit70,1,0.47424,-1,0.2,0
voc030a,16,bandit30,bandit50b,bandit50b,2,1.7539,1,0.2,1
voc030a,17,bandit10,bandit50a,bandit50a,2,1.7794,1,0.4,1
voc030a,18,bandit70,bandit50a,bandit70,1,0.74888,1,0.2,1
voc030a,19,bandit10,bandit70,bandit70,2,0.67153,1,0.6,1
voc030a,20,bandit90,bandit70,bandit90,1,0.74161,1,0.2,1
voc030a,21,bandit90,bandit50a,bandit90,1,1.6253,1,0.4,1
voc030a,22,bandit10,bandit30,bandit30,2,1.0092,1,0.2,1
voc030a,23,bandit30,bandit50a,bandit50a,2,0.73692,1,0.2,1
voc030a,24,bandit90,bandit50b,bandit50b,2,1.2771,-1,0.4,0
voc030a,25,bandit50b,bandit50a,bandit50b,1,1.1554,0,0,0
voc030a,26,bandit30,bandit70,bandit70,2,0.74967,1,0.4,1
voc030a,27,bandit10,bandit90,bandit90,2,0.69729,1,0.8,1
voc030a,28,bandit70,bandit50b,bandit70,1,0.86954,1,0.2,1
voc030a,29,bandit10,bandit50b,bandit50b,2,0.73162,1,0.4,1
voc030a,30,bandit90,bandit30,bandit90,1,0.69589,1,0.6,1
voc030a,31,bandit50b,bandit30,bandit50b,1,2.7575,1,0.2,1
voc030a,32,bandit30,bandit90,bandit90,2,0.51898,1,0.6,1
voc030a,33,bandit70,bandit30,bandit70,1,0.45084,1,0.4,1
voc030a,34,bandit50b,bandit90,bandit90,2,0.61873,1,0.4,1
voc030a,35,bandit50a,bandit50b,bandit50a,1,0.55491,0,0,0
voc030a,36,bandit50b,bandit70,bandit70,2,0.71782,1,0.2,1
voc030a,37,bandit50a,bandit10,bandit10,2,1.2418,-1,0.4,0
voc030a,38,bandit70,bandit10,bandit70,1,0.68896,1,0.6,1
voc030a,39,bandit50a,bandit70,bandit70,2,0.60697,1,0.2,1
voc030a,40,bandit30,bandit10,bandit30,1,1.2244,1,0.2,1
voc030a,41,bandit50a,bandit90,bandit50a,1,0.60712,-1,0.4,0
voc030a,42,bandit50b,bandit10,bandit50b,1,1.0165,1,0.4,1
voc030a,43,bandit50a,bandit30,bandit30,2,0.88887,-1,0.2,0
voc030a,44,bandit90,bandit10,bandit90,1,0.95016,1,0.8,1
voc030a,45,bandit70,bandit90,bandit70,1,0.64978,-1,0.2,0
voc030a,46,bandit90,bandit50a,bandit90,1,0.67143,1,0.4,1
voc030a,47,bandit30,bandit50a,bandit30,1,2.3108,-1,0.2,0
voc030a,48,bandit70,bandit50a,bandit70,1,0.52201,1,0.2,1
voc030a,49,bandit30,bandit50b,bandit50b,2,1.0863,1,0.2,1
voc030a,50,bandit50b,bandit50a,bandit50b,1,1.1242,0,0,0
voc030a,51,bandit70,bandit50b,bandit70,1,1.0486,1,0.2,1
voc030a,52,bandit10,bandit70,bandit70,2,0.70303,1,0.6,1
voc030a,53,bandit10,bandit50a,bandit10,1,1.1964,-1,0.4,0
voc030a,54,bandit10,bandit30,bandit30,2,0.89232,1,0.2,1
voc030a,55,bandit10,bandit50b,bandit50b,2,0.62625,1,0.4,1
voc030a,56,bandit90,bandit50b,bandit90,1,0.55327,1,0.4,1
voc030a,57,bandit30,bandit70,bandit70,2,0.75794,1,0.4,1
voc030a,58,bandit90,bandit30,bandit90,1,0.55986,1,0.6,1
voc030a,59,bandit90,bandit70,bandit70,2,0.48304,-1,0.2,0
voc030a,60,bandit10,bandit90,bandit90,2,0.66544,1,0.8,1
voc030a,61,bandit50b,bandit70,bandit70,2,0.71141,1,0.2,1
voc030a,62,bandit50a,bandit10,bandit50a,1,0.62804,1,0.4,1
voc030a,63,bandit70,bandit90,bandit70,1,0.66039,-1,0.2,0
voc030a,64,bandit50b,bandit10,bandit50b,1,1.2124,1,0.4,1
voc030a,65,bandit50b,bandit30,bandit30,2,0.80443,-1,0.2,0
voc030a,66,bandit30,bandit90,bandit90,2,0.59692,1,0.6,1
voc030a,67,bandit50a,bandit50b,bandit50b,2,0.8385,0,0,0
voc030a,68,bandit30,bandit10,bandit30,1,1.3977,1,0.2,1
voc030a,69,bandit50b,bandit90,bandit90,2,0.7574,1,0.4,1
voc030a,70,bandit70,bandit10,bandit70,1,1.3136,1,0.6,1
voc030a,71,bandit70,bandit30,bandit70,1,0.60458,1,0.4,1
voc030a,72,bandit90,bandit10,bandit10,2,0.6215,-1,0.8,0
voc030a,73,bandit50a,bandit30,bandit30,2,2.6707,-1,0.2,0
voc030a,74,bandit50a,bandit70,bandit70,2,0.80304,1,0.2,1
voc030a,75,bandit50a,bandit90,bandit90,2,0.83566,1,0.4,1
voc030a,76,bandit70,bandit50b,bandit50b,2,1.0279,-1,0.2,0
voc030a,77,bandit10,bandit70,bandit70,2,0.82782,1,0.6,1
voc030a,78,bandit10,bandit50a,bandit10,1,0.89997,-1,0.4,0
voc030a,79,bandit30,bandit50b,bandit50b,2,2.5367,1,0.2,1
voc030a,80,bandit90,bandit50a,bandit90,1,0.73067,1,0.4,1
voc030a,81,bandit10,bandit30,bandit30,2,1.4151,1,0.2,1
voc030a,82,bandit90,bandit70,bandit90,1,0.68612,1,0.2,1
voc030a,83,bandit70,bandit50a,bandit70,1,0.76373,1,0.2,1
voc030a,84,bandit10,bandit90,bandit10,1,1.1021,-1,0.8,0
voc030a,85,bandit30,bandit50a,bandit30,1,1.2506,-1,0.2,0
voc030a,86,bandit30,bandit70,bandit70,2,0.67384,1,0.4,1
voc030a,87,bandit10,bandit50b,bandit10,1,0.7033,-1,0.4,0
voc030a,88,bandit90,bandit30,bandit90,1,0.61263,1,0.6,1
voc030a,89,bandit50b,bandit50a,bandit50b,1,0.83717,0,0,0
voc030a,90,bandit90,bandit50b,bandit90,1,0.64522,1,0.4,1
voc032a,1,bandit50a,bandit10,bandit50a,1,1.7988,1,0.4,1
voc032a,2,bandit50a,bandit50b,bandit50b,2,0.9659,0,0,0
voc032a,3,bandit30,bandit90,bandit90,2,1.0078,1,0.6,1
voc032a,4,bandit70,bandit90,bandit90,2,1.0885,1,0.2,1
voc032a,5,bandit90,bandit10,bandit90,1,0.75048,1,0.8,1
voc032a,6,bandit50b,bandit30,bandit50b,1,1.8493,1,0.2,1
voc032a,7,bandit30,bandit10,bandit10,2,0.71883,-1,0.2,0
voc032a,8,bandit50b,bandit70,bandit50b,1,0.7875,-1,0.2,0
voc032a,9,bandit50b,bandit10,bandit50b,1,1.2928,1,0.4,1
voc032a,10,bandit50a,bandit30,bandit50a,1,1.0023,1,0.2,1
voc032a,11,bandit50a,bandit70,bandit70,2,0.53173,1,0.2,1
voc032a,12,bandit70,bandit30,bandit70,1,0.7274,1,0.4,1
voc032a,13,bandit50a,bandit90,bandit90,2,0.87551,1,0.4,1
voc032a,14,bandit70,bandit10,bandit70,1,1.2653,1,0.6,1
voc032a,15,bandit50b,bandit90,bandit90,2,1.2152,1,0.4,1
voc032a,16,bandit30,bandit50a,bandit30,1,1.8551,-1,0.2,0
voc032a,17,bandit90,bandit30,bandit90,1,0.66964,1,0.6,1
voc032a,18,bandit10,bandit50b,bandit50b,2,0.81161,1,0.4,1
voc032a,19,bandit30,bandit70,bandit70,2,1.2596,1,0.4,1
voc032a,20,bandit30,bandit50b,bandit50b,2,1.1238,1,0.2,1
voc032a,21,bandit10,bandit70,bandit70,2,0.90288,1,0.6,1
voc032a,22,bandit90,bandit50b,bandit90,1,0.5875,1,0.4,1
voc032a,23,bandit70,bandit50a,bandit50a,2,4.6702,-1,0.2,0
voc032a,24,bandit70,bandit50b,bandit50b,2,1.193,-1,0.2,0
voc032a,25,bandit10,bandit50a,bandit10,1,0.77064,-1,0.4,0
voc032a,26,bandit90,bandit70,bandit90,1,0.75636,1,0.2,1
voc032a,27,bandit10,bandit30,bandit30,2,0.82439,1,0.2,1
voc032a,28,bandit50b,bandit50a,bandit50b,1,1.5757,0,0,0
voc032a,29,bandit10,bandit90,bandit90,2,0.88066,1,0.8,1
voc032a,30,bandit90,bandit50a,bandit90,1,0.80751,1,0.4,1
voc032a,31,bandit90,bandit10,bandit90,1,0.62331,1,0.8,1
voc032a,32,bandit50a,bandit10,bandit50a,1,1.0552,1,0.4,1
voc032a,33,bandit50a,bandit90,bandit90,2,0.65469,1,0.4,1
voc032a,34,bandit70,bandit10,bandit70,1,0.92523,1,0.6,1
voc032a,35,bandit30,bandit90,bandit90,2,0.88908,1,0.6,1
voc032a,36,bandit50b,bandit10,bandit50b,1,0.92707,1,0.4,1
voc032a,37,bandit50b,bandit70,bandit50b,1,1.5642,-1,0.2,0
voc032a,38,bandit70,bandit90,bandit90,2,0.98178,1,0.2,1
voc032a,39,bandit30,bandit10,bandit30,1,0.99925,1,0.2,1
voc032a,40,bandit50a,bandit70,bandit50a,1,1.7429,-1,0.2,0
voc032a,41,bandit50b,bandit90,bandit90,2,0.83396,1,0.4,1
voc032a,42,bandit50a,bandit30,bandit50a,1,1.4169,1,0.2,1
voc032a,43,bandit50a,bandit50b,bandit50b,2,0.58494,0,0,0
voc032a,44,bandit50b,bandit30,bandit50b,1,0.5551,1,0.2,1
voc032a,45,bandit70,bandit30,bandit70,1,0.63761,1,0.4,1
voc032a,46,bandit90,bandit50a,bandit90,1,0.638,1,0.4,1
voc032a,47,bandit10,bandit90,bandit90,2,0.63021,1,0.8,1
voc032a,48,bandit10,bandit70,bandit70,2,0.76563,1,0.6,1
voc032a,49,bandit30,bandit50b,bandit50b,2,0.95924,1,0.2,1
voc032a,50,bandit70,bandit50a,bandit50a,2,1.4808,-1,0.2,0
voc032a,51,bandit90,bandit50b,bandit90,1,0.63114,1,0.4,1
voc032a,52,bandit90,bandit70,bandit90,1,0.51915,1,0.2,1
voc032a,53,bandit10,bandit30,bandit30,2,0.65046,1,0.2,1
voc032a,54,bandit70,bandit50b,bandit50b,2,1.619,-1,0.2,0
voc032a,55,bandit30,bandit70,bandit70,2,1.6497,1,0.4,1
voc032a,56,bandit50b,bandit50a,bandit50b,1,1.7367,0,0,0
voc032a,57,bandit90,bandit30,bandit90,1,0.867,1,0.6,1
voc032a,58,bandit30,bandit50a,bandit30,1,1.3856,-1,0.2,0
voc032a,59,bandit10,bandit50a,bandit50a,2,0.69041,1,0.4,1
voc032a,60,bandit10,bandit50b,bandit50b,2,0.4965,1,0.4,1
voc032a,61,bandit30,bandit90,bandit90,2,0.6927,1,0.6,1
voc032a,62,bandit50a,bandit50b,bandit50b,2,1.2113,0,0,0
voc032a,63,bandit30,bandit10,bandit30,1,0.96327,1,0.2,1
voc032a,64,bandit50a,bandit30,bandit30,2,0.7419,-1,0.2,0
voc032a,65,bandit50b,bandit10,bandit50b,1,0.65712,1,0.4,1
voc032a,66,bandit50b,bandit90,bandit90,2,0.68791,1,0.4,1
voc032a,67,bandit70,bandit30,bandit70,1,1.3024,1,0.4,1
voc032a,68,bandit50a,bandit10,bandit50a,1,0.91442,1,0.4,1
voc032a,69,bandit70,bandit10,bandit70,1,0.62219,1,0.6,1
voc032a,70,bandit90,bandit10,bandit90,1,0.61464,1,0.8,1
voc032a,71,bandit50b,bandit30,bandit30,2,0.77562,-1,0.2,0
voc032a,72,bandit50a,bandit70,bandit70,2,0.76065,1,0.2,1
voc032a,73,bandit50a,bandit90,bandit90,2,0.73255,1,0.4,1
voc032a,74,bandit50b,bandit70,bandit50b,1,0.94379,-1,0.2,0
voc032a,75,bandit70,bandit90,bandit90,2,0.61869,1,0.2,1
voc032a,76,bandit30,bandit70,bandit70,2,0.8036,1,0.4,1
voc032a,77,bandit50b,bandit50a,bandit50b,1,1.3007,0,0,0
voc032a,78,bandit70,bandit50b,bandit70,1,0.88135,1,0.2,1
voc032a,79,bandit10,bandit30,bandit30,2,0.63054,1,0.2,1
voc032a,80,bandit10,bandit90,bandit90,2,0.66994,1,0.8,1
voc032a,81,bandit90,bandit50b,bandit90,1,0.58066,1,0.4,1
voc032a,82,bandit30,bandit50a,bandit50a,2,1.1816,1,0.2,1
voc032a,83,bandit10,bandit50a,bandit50a,2,0.65488,1,0.4,1
voc032a,84,bandit70,bandit50a,bandit50a,2,0.766,-1,0.2,0
voc032a,85,bandit90,bandit50a,bandit90,1,0.41668,1,0.4,1
voc032a,86,bandit10,bandit50b,bandit50b,2,0.64931,1,0.4,1
voc032a,87,bandit30,bandit50b,bandit30,1,0.5999,-1,0.2,0
voc032a,88,bandit90,bandit70,bandit90,1,0.66536,1,0.2,1
voc032a,89,bandit10,bandit70,bandit70,2,0.61481,1,0.6,1
voc032a,90,bandit90,bandit30,bandit90,1,0.66422,1,0.6,1
voc034a,1,bandit70,bandit30,bandit70,1,3.0659,1,0.4,1
voc034a,2,bandit50b,bandit70,bandit50b,1,1.8711,-1,0.2,0
voc034a,3,bandit90,bandit10,bandit10,2,1.3479,-1,0.8,0
voc034a,4,bandit50a,bandit50b,bandit50b,2,3.4229,0,0,0
voc034a,5,bandit50a,bandit90,bandit90,2,1.5977,1,0.4,1
voc034a,6,bandit50a,bandit10,bandit10,2,1.3565,-1,0.4,0
voc034a,7,bandit30,bandit90,bandit30,1,0.68037,-1,0.6,0
voc034a,8,bandit50b,bandit90,bandit90,2,1.5982,1,0.4,1
voc034a,9,bandit70,bandit90,bandit90,2,0.70224,1,0.2,1
voc034a,10,bandit50a,bandit70,bandit70,2,0.72281,1,0.2,1
voc034a,11,bandit30,bandit10,bandit30,1,0.59052,1,0.2,1
voc034a,12,bandit50a,bandit30,bandit50a,1,2.0882,1,0.2,1
voc034a,13,bandit70,bandit10,bandit70,1,0.95757,1,0.6,1
voc034a,14,bandit50b,bandit10,bandit10,2,0.5842,-1,0.4,0
voc034a,15,bandit50b,bandit30,bandit50b,1,0.49045,1,0.2,1
voc034a,16,bandit90,bandit50b,bandit50b,2,0.30395,-1,0.4,0
voc034a,17,bandit10,bandit30,bandit10,1,0.24503,-1,0.2,0
voc034a,18,bandit30,bandit50b,bandit50b,2,0.1962,1,0.2,1
voc034a,19,bandit30,bandit50a,bandit50a,2,0.40615,1,0.2,1
voc034a,20,bandit10,bandit50b,bandit10,1,1.7668e-4,-1,0.4,0
voc034a,21,bandit70,bandit50a,bandit70,1,0.51345,1,0.2,1
voc034a,22,bandit90,bandit50a,bandit50a,2,0.077745,-1,0.4,0
voc034a,23,bandit70,bandit50b,bandit70,1,0.14002,1,0.2,1
voc034a,24,bandit30,bandit70,bandit70,2,1.7777e-4,1,0.4,1
voc034a,25,bandit10,bandit50a,bandit50a,2,0.58603,1,0.4,1
voc034a,26,bandit50b,bandit50a,bandit50a,2,0.28255,0,0,0
voc034a,27,bandit90,bandit70,bandit90,1,0.36928,1,0.2,1
voc034a,28,bandit90,bandit30,bandit90,1,0.65165,1,0.6,1
voc034a,29,bandit10,bandit70,bandit70,2,0.45896,1,0.6,1
voc034a,30,bandit10,bandit90,bandit10,1,0.91366,-1,0.8,0
voc034a,31,bandit30,bandit10,bandit10,2,0.52562,-1,0.2,0
voc034a,32,bandit50a,bandit50b,bandit50b,2,0.84276,0,0,0
voc034a,33,bandit50a,bandit10,bandit10,2,0.53806,-1,0.4,0
voc034a,34,bandit50a,bandit70,bandit50a,1,0.77406,-1,0.2,0
voc034a,35,bandit50b,bandit10,bandit50b,1,0.27236,1,0.4,1
voc034a,36,bandit30,bandit90,bandit30,1,0.69509,-1,0.6,0
voc034a,37,bandit50b,bandit30,bandit30,2,0.29217,-1,0.2,0
voc034a,38,bandit70,bandit30,bandit30,2,0.42627,-1,0.4,0
voc034a,39,bandit70,bandit90,bandit70,1,1.1708,-1,0.2,0
voc034a,40,bandit50a,bandit30,bandit30,2,0.61233,-1,0.2,0
voc034a,41,bandit50a,bandit90,bandit50a,1,0.44511,-1,0.4,0
voc034a,42,bandit50b,bandit70,bandit50b,1,1.1085,-1,0.2,0
voc034a,43,bandit50b,bandit90,bandit50b,1,0.45676,-1,0.4,0
voc034a,44,bandit70,bandit10,bandit70,1,0.29644,1,0.6,1
voc034a,45,bandit90,bandit10,bandit10,2,0.97322,-1,0.8,0
voc034a,46,bandit10,bandit70,bandit10,1,0.30386,-1,0.6,0
voc034a,47,bandit90,bandit70,bandit90,1,0.22825,1,0.2,1
voc034a,48,bandit50b,bandit50a,bandit50b,1,0.34118,0,0,0
voc034a,49,bandit90,bandit50b,bandit50b,2,0.3921,-1,0.4,0
voc034a,50,bandit70,bandit50a,bandit50a,2,0.35405,-1,0.2,0
voc034a,51,bandit30,bandit50b,bandit50b,2,0.45387,1,0.2,1
voc034a,52,bandit10,bandit90,bandit10,1,0.42968,-1,0.8,0
voc034a,53,bandit90,bandit30,bandit90,1,0.39732,1,0.6,1
voc034a,54,bandit70,bandit50b,bandit70,1,0.5653,1,0.2,1
voc034a,55,bandit30,bandit70,bandit30,1,0.3848,-1,0.4,0
voc034a,56,bandit10,bandit50b,bandit10,1,0.63439,-1,0.4,0
voc034a,57,bandit10,bandit50a,bandit10,1,0.29789,-1,0.4,0
voc034a,58,bandit10,bandit30,bandit10,1,1.4874,-1,0.2,0
voc034a,59,bandit30,bandit50a,bandit30,1,0.27639,-1,0.2,0
voc034a,60,bandit90,bandit50a,bandit90,1,0.25181,1,0.4,1
voc034a,61,bandit50b,bandit10,bandit50b,1,0.2016,1,0.4,1
voc034a,62,bandit50a,bandit10,bandit50a,1,0.27541,1,0.4,1
voc034a,63,bandit70,bandit30,bandit70,1,0.36932,1,0.4,1
voc034a,64,bandit30,bandit90,bandit30,1,1.7724e-4,-1,0.6,0
voc034a,65,bandit50a,bandit30,bandit50a,1,0.11753,1,0.2,1
voc034a,66,bandit50b,bandit90,bandit50b,1,0.45041,-1,0.4,0
voc034a,67,bandit50b,bandit30,bandit50b,1,0.026218,1,0.2,1
voc034a,68,bandit50a,bandit90,bandit90,2,0.41027,1,0.4,1
voc034a,69,bandit70,bandit90,bandit90,2,0.59643,1,0.2,1
voc034a,70,bandit50a,bandit70,bandit50a,1,1.8562e-4,-1,0.2,0
voc034a,71,bandit30,bandit10,bandit30,1,1.7259,1,0.2,1
voc034a,72,bandit90,bandit10,bandit10,2,0.30497,-1,0.8,0
voc034a,73,bandit50a,bandit50b,bandit50a,1,0.42271,0,0,0
voc034a,74,bandit50b,bandit70,bandit70,2,0.43979,1,0.2,1
voc034a,75,bandit70,bandit10,bandit70,1,0.86374,1,0.6,1
voc034a,76,bandit30,bandit70,bandit70,2,0.52534,1,0.4,1
voc034a,77,bandit70,bandit50a,bandit70,1,0.53867,1,0.2,1
voc034a,78,bandit50b,bandit50a,bandit50a,2,0.71778,0,0,0
voc034a,79,bandit10,bandit90,bandit10,1,1.4661,-1,0.8,0
voc034a,80,bandit90,bandit50b,bandit50b,2,0.63247,-1,0.4,0
voc034a,81,bandit10,bandit30,bandit10,1,0.59912,-1,0.2,0
voc034a,82,bandit90,bandit30,bandit30,2,0.44908,-1,0.6,0
voc034a,83,bandit10,bandit50b,bandit10,1,4.735,-1,0.4,0
voc034a,84,bandit30,bandit50b,bandit30,1,1.985,-1,0.2,0
voc034a,85,bandit10,bandit70,bandit10,1,1.3528,-1,0.6,0
voc034a,86,bandit90,bandit70,bandit90,1,0.54685,1,0.2,1
voc034a,87,bandit10,bandit50a,bandit10,1,1.2389,-1,0.4,0
voc034a,88,bandit30,bandit50a,bandit30,1,1.5168,-1,0.2,0
voc034a,89,bandit90,bandit50a,bandit90,1,1.306,1,0.4,1
voc034a,90,bandit70,bandit50b,bandit50b,2,0.41349,-1,0.2,0
voc035a,1,bandit50a,bandit90,bandit90,2,2.6268,1,0.4,1
voc035a,2,bandit50b,bandit10,bandit50b,1,1.174,1,0.4,1
voc035a,3,bandit50b,bandit90,bandit50b,1,1.0819,-1,0.4,0
voc035a,4,bandit50b,bandit30,bandit50b,1,1.0653,1,0.2,1
voc035a,5,bandit50a,bandit10,bandit10,2,1.1525,-1,0.4,0
voc035a,6,bandit30,bandit90,bandit90,2,1.1178,1,0.6,1
voc035a,7,bandit90,bandit10,bandit90,1,0.68339,1,0.8,1
voc035a,8,bandit70,bandit10,bandit70,1,1.5228,1,0.6,1
voc035a,9,bandit70,bandit30,bandit70,1,0.86388,1,0.4,1
voc035a,10,bandit50a,bandit70,bandit70,2,0.66473,1,0.2,1
voc035a,11,bandit70,bandit90,bandit90,2,1.4884,1,0.2,1
voc035a,12,bandit30,bandit10,bandit10,2,2.4232,-1,0.2,0
voc035a,13,bandit50a,bandit30,bandit30,2,2.0979,-1,0.2,0
voc035a,14,bandit50b,bandit70,bandit50b,1,0.69692,-1,0.2,0
voc035a,15,bandit50a,bandit50b,bandit50b,2,0.49581,0,0,0
voc035a,16,bandit10,bandit30,bandit10,1,2.5346,-1,0.2,0
voc035a,17,bandit30,bandit70,bandit70,2,1.5645,1,0.4,1
voc035a,18,bandit30,bandit50a,bandit50a,2,2.6483,1,0.2,1
voc035a,19,bandit90,bandit50b,bandit90,1,2.602,1,0.4,1
voc035a,20,bandit90,bandit50a,bandit90,1,0.58792,1,0.4,1
voc035a,21,bandit10,bandit70,bandit70,2,1.0159,1,0.6,1
voc035a,22,bandit70,bandit50a,bandit50a,2,0.56104,-1,0.2,0
voc035a,23,bandit10,bandit90,bandit90,2,0.70924,1,0.8,1
voc035a,24,bandit10,bandit50a,bandit10,1,1.5085,-1,0.4,0
voc035a,25,bandit90,bandit30,bandit90,1,0.76291,1,0.6,1
voc035a,26,bandit30,bandit50b,bandit50b,2,0.86237,1,0.2,1
voc035a,27,bandit90,bandit70,bandit90,1,0.80004,1,0.2,1
voc035a,28,bandit50b,bandit50a,bandit50b,1,0.8906,0,0,0
voc035a,29,bandit70,bandit50b,bandit50b,2,0.4175,-1,0.2,0
voc035a,30,bandit10,bandit50b,bandit50b,2,0.60199,1,0.4,1
voc035a,31,bandit70,bandit30,bandit70,1,0.66087,1,0.4,1
voc035a,32,bandit50b,bandit70,bandit70,2,0.52633,1,0.2,1
voc035a,33,bandit50b,bandit30,bandit50b,1,0.54816,1,0.2,1
voc035a,34,bandit50b,bandit10,bandit50b,1,1.007,1,0.4,1
voc035a,35,bandit50a,bandit10,bandit10,2,2.0187,-1,0.4,0
voc035a,36,bandit30,bandit10,bandit10,2,2.9413,-1,0.2,0
voc035a,37,bandit50a,bandit70,bandit70,2,0.98736,1,0.2,1
voc035a,38,bandit70,bandit90,bandit70,1,0.44597,-1,0.2,0
voc035a,39,bandit50b,bandit90,bandit90,2,0.60617,1,0.4,1
voc035a,40,bandit30,bandit90,bandit90,2,0.54557,1,0.6,1
voc035a,41,bandit90,bandit10,bandit90,1,0.52571,1,0.8,1
voc035a,42,bandit50a,bandit50b,bandit50b,2,0.58880999999999994,0,0,0
voc035a,43,bandit50a,bandit90,bandit90,2,0.99972,1,0.4,1
voc035a,44,bandit50a,bandit30,bandit50a,1,2.3623,1,0.2,1
voc035a,45,bandit70,bandit10,bandit70,1,1.1019,1,0.6,1
voc035a,46,bandit90,bandit50b,bandit50b,2,0.69212,-1,0.4,0
voc035a,47,bandit50b,bandit50a,bandit50b,1,0.53188,0,0,0
voc035a,48,bandit30,bandit70,bandit70,2,0.97686,1,0.4,1
voc035a,49,bandit10,bandit50a,bandit10,1,1.5652,-1,0.4,0
voc035a,50,bandit10,bandit30,bandit10,1,1.3451,-1,0.2,0
voc035a,51,bandit70,bandit50a,bandit70,1,3.9586,1,0.2,1
voc035a,52,bandit90,bandit50a,bandit90,1,0.53951,1,0.4,1
voc035a,53,bandit90,bandit70,bandit90,1,0.48101,1,0.2,1
voc035a,54,bandit30,bandit50b,bandit50b,2,0.85583,1,0.2,1
voc035a,55,bandit10,bandit90,bandit90,2,0.78545,1,0.8,1
voc035a,56,bandit10,bandit70,bandit70,2,1.643,1,0.6,1
voc035a,57,bandit70,bandit50b,bandit70,1,0.56451,1,0.2,1
voc035a,58,bandit10,bandit50b,bandit50b,2,0.66492,1,0.4,1
voc035a,59,bandit90,bandit30,bandit90,1,0.51266,1,0.6,1
voc035a,60,bandit30,bandit50a,bandit50a,2,2.1665,1,0.2,1
voc035a,61,bandit50b,bandit90,bandit50b,1,0.49187,-1,0.4,0
voc035a,62,bandit30,bandit90,bandit90,2,0.48287,1,0.6,1
voc035a,63,bandit50b,bandit70,bandit50b,1,0.60961,-1,0.2,0
voc035a,64,bandit70,bandit90,bandit90,2,0.44452,1,0.2,1
voc035a,65,bandit50b,bandit10,bandit50b,1,0.59739,1,0.4,1
voc035a,66,bandit50a,bandit50b,bandit50b,2,0.55978000000000006,0,0,0
voc035a,67,bandit50b,bandit30,bandit50b,1,0.49197,1,0.2,1
voc035a,68,bandit30,bandit10,bandit10,2,1.4744,-1,0.2,0
voc035a,69,bandit70,bandit10,bandit70,1,0.60321,1,0.6,1
voc035a,70,bandit50a,bandit10,bandit50a,1,1.9741,1,0.4,1
voc035a,71,bandit50a,bandit70,bandit70,2,1.33,1,0.2,1
voc035a,72,bandit90,bandit10,bandit90,1,0.51855,1,0.8,1
voc035a,73,bandit50a,bandit90,bandit90,2,1.7732,1,0.4,1
voc035a,74,bandit50a,bandit30,bandit50a,1,3.9218,1,0.2,1
voc035a,75,bandit70,bandit30,bandit70,1,0.90449,1,0.4,1
voc035a,76,bandit70,bandit50b,bandit50b,2,0.5671,-1,0.2,0
voc035a,77,bandit90,bandit70,bandit70,2,0.64951,-1,0.2,0
voc035a,78,bandit90,bandit30,bandit90,1,0.45832,1,0.6,1
voc035a,79,bandit10,bandit70,bandit70,2,0.61163,1,0.6,1
voc035a,80,bandit30,bandit50b,bandit50b,2,0.69336,1,0.2,1
voc035a,81,bandit10,bandit50b,bandit50b,2,0.46907,1,0.4,1
voc035a,82,bandit70,bandit50a,bandit70,1,0.71589,1,0.2,1
voc035a,83,bandit50b,bandit50a,bandit50b,1,0.54582,0,0,0
voc035a,84,bandit10,bandit50a,bandit50a,2,1.6469,1,0.4,1
voc035a,85,bandit90,bandit50b,bandit90,1,0.70401,1,0.4,1
voc035a,86,bandit30,bandit50a,bandit50a,2,1.4227,1,0.2,1
voc035a,87,bandit10,bandit90,bandit90,2,0.64026,1,0.8,1
voc035a,88,bandit30,bandit70,bandit70,2,0.98582,1,0.4,1
voc035a,89,bandit10,bandit30,bandit10,1,0.82889,-1,0.2,0
voc035a,90,bandit90,bandit50a,bandit90,1,0.51908,1,0.4,1
voc036a,1,bandit50b,bandit30,bandit50b,1,7.1117,1,0.2,1
voc036a,2,bandit70,bandit10,bandit70,1,4.1522,1,0.6,1
voc036a,3,bandit50a,bandit10,bandit50a,1,2.3214,1,0.4,1
voc036a,4,bandit70,bandit90,bandit90,2,0.92385,1,0.2,1
voc036a,5,bandit50b,bandit70,bandit70,2,4.7203,1,0.2,1
voc036a,6,bandit50b,bandit10,bandit50b,1,1.9856,1,0.4,1
voc036a,7,bandit50b,bandit90,bandit90,2,0.93798,1,0.4,1
voc036a,8,bandit70,bandit30,bandit70,1,1.6057,1,0.4,1
voc036a,9,bandit30,bandit10,bandit30,1,6.9331,1,0.2,1
voc036a,10,bandit50a,bandit90,bandit90,2,3.6053,1,0.4,1
voc036a,11,bandit90,bandit10,bandit90,1,1.3964,1,0.8,1
voc036a,12,bandit50a,bandit70,bandit70,2,7.7345,1,0.2,1
voc036a,13,bandit50a,bandit50b,bandit50a,1,1.9168,0,0,0
voc036a,14,bandit30,bandit90,bandit90,2,1.1674,1,0.6,1
voc036a,15,bandit50a,bandit30,bandit50a,1,3.3128,1,0.2,1
voc036a,16,bandit30,bandit50b,bandit50b,2,7.0209,1,0.2,1
voc036a,17,bandit90,bandit70,bandit90,1,0.92092,1,0.2,1
voc036a,18,bandit10,bandit50a,bandit50a,2,1.4368,1,0.4,1
voc036a,19,bandit90,bandit50b,bandit90,1,0.77174,1,0.4,1
voc036a,20,bandit10,bandit70,bandit70,2,1.4462,1,0.6,1
voc036a,21,bandit30,bandit70,bandit70,2,1.6051,1,0.4,1
voc036a,22,bandit10,bandit90,bandit90,2,2.1893,1,0.8,1
voc036a,23,bandit10,bandit50b,bandit10,1,3.182,-1,0.4,0
voc036a,24,bandit70,bandit50b,bandit70,1,3.557,1,0.2,1
voc036a,25,bandit30,bandit50a,bandit50a,2,1.9662,1,0.2,1
voc036a,26,bandit10,bandit30,bandit30,2,6.1516,1,0.2,1
voc036a,27,bandit90,bandit50a,bandit90,1,1.4871,1,0.4,1
voc036a,28,bandit90,bandit30,bandit90,1,0.65144,1,0.6,1
voc036a,29,bandit50b,bandit50a,bandit50a,2,9.0024,0,0,0
voc036a,30,bandit70,bandit50a,bandit70,1,1.294,1,0.2,1
voc036a,31,bandit50b,bandit90,bandit90,2,0.69933,1,0.4,1
voc036a,32,bandit70,bandit10,bandit70,1,1.263,1,0.6,1
voc036a,33,bandit70,bandit90,bandit90,2,1.3735,1,0.2,1
voc036a,34,bandit30,bandit10,bandit30,1,1.7677,1,0.2,1
voc036a,35,bandit50b,bandit70,bandit70,2,3.9138,1,0.2,1
voc036a,36,bandit30,bandit90,bandit90,2,0.90037,1,0.6,1
voc036a,37,bandit50b,bandit10,bandit50b,1,1.9287,1,0.4,1
voc036a,38,bandit70,bandit30,bandit70,1,1.7151,1,0.4,1
voc036a,39,bandit50a,bandit10,bandit50a,1,2.7284,1,0.4,1
voc036a,40,bandit50b,bandit30,bandit50b,1,1.0991,1,0.2,1
voc036a,41,bandit50a,bandit70,bandit70,2,1.1196,1,0.2,1
voc036a,42,bandit50a,bandit30,bandit50a,1,1.5157,1,0.2,1
voc036a,43,bandit90,bandit10,bandit90,1,1.4546,1,0.8,1
voc036a,44,bandit50a,bandit50b,bandit50a,1,1.9495,0,0,0
voc036a,45,bandit50a,bandit90,bandit90,2,0.7269,1,0.4,1
voc036a,46,bandit90,bandit50b,bandit90,1,1.0598,1,0.4,1
voc036a,47,bandit10,bandit70,bandit70,2,1.3862,1,0.6,1
voc036a,48,bandit10,bandit50b,bandit50b,2,3.2272,1,0.4,1
voc036a,49,bandit90,bandit50a,bandit90,1,0.97076,1,0.4,1
voc036a,50,bandit70,bandit50b,bandit70,1,1.1476,1,0.2,1
voc036a,51,bandit50b,bandit50a,bandit50a,2,3.255,0,0,0
voc036a,52,bandit10,bandit30,bandit30,2,1.6681,1,0.2,1
voc036a,53,bandit30,bandit70,bandit70,2,1.3218,1,0.4,1
voc036a,54,bandit10,bandit90,bandit90,2,0.88573,1,0.8,1
voc036a,55,bandit30,bandit50b,bandit50b,2,8.6898,1,0.2,1
voc036a,56,bandit30,bandit50a,bandit30,1,1.6509,-1,0.2,0
voc036a,57,bandit90,bandit30,bandit90,1,3.2486,1,0.6,1
voc036a,58,bandit90,bandit70,bandit90,1,4.7497,1,0.2,1
voc036a,59,bandit10,bandit50a,bandit50a,2,1.1818,1,0.4,1
voc036a,60,bandit70,bandit50a,bandit70,1,2.0872,1,0.2,1
voc036a,61,bandit70,bandit10,bandit70,1,1.4357,1,0.6,1
voc036a,62,bandit30,bandit90,bandit90,2,0.93875,1,0.6,1
voc036a,63,bandit70,bandit30,bandit70,1,1.1585,1,0.4,1
voc036a,64,bandit50a,bandit10,bandit50a,1,4.7127,1,0.4,1
voc036a,65,bandit50b,bandit70,bandit70,2,3.3236,1,0.2,1
voc036a,66,bandit50a,bandit90,bandit90,2,2.03,1,0.4,1
voc036a,67,bandit50a,bandit70,bandit70,2,2.6695,1,0.2,1
voc036a,68,bandit50a,bandit30,bandit50a,1,3.1294,1,0.2,1
voc036a,69,bandit30,bandit10,bandit30,1,4.2044,1,0.2,1
voc036a,70,bandit50a,bandit50b,bandit50a,1,3.1467,0,0,0
voc036a,71,bandit70,bandit90,bandit90,2,1.5413,1,0.2,1
voc036a,72,bandit50b,bandit30,bandit50b,1,5.0558,1,0.2,1
voc036a,73,bandit50b,bandit10,bandit50b,1,0.77941,1,0.4,1
voc036a,74,bandit50b,bandit90,bandit90,2,0.85403,1,0.4,1
voc036a,75,bandit90,bandit10,bandit10,2,0.98038,-1,0.8,0
voc036a,76,bandit70,bandit50a,bandit70,1,4.5492,1,0.2,1
voc036a,77,bandit10,bandit30,bandit30,2,1.5334,1,0.2,1
voc036a,78,bandit30,bandit50a,bandit50a,2,4.7062,1,0.2,1
voc036a,79,bandit90,bandit50b,bandit90,1,0.86695,1,0.4,1
voc036a,80,bandit50b,bandit50a,bandit50a,2,3.0492,0,0,0
voc036a,81,bandit10,bandit50b,bandit50b,2,2.6385,1,0.4,1
voc036a,82,bandit10,bandit50a,bandit50a,2,1.4683,1,0.4,1
voc036a,83,bandit10,bandit90,bandit90,2,0.71439,1,0.8,1
voc036a,84,bandit30,bandit70,bandit70,2,2.8147,1,0.4,1
voc036a,85,bandit90,bandit70,bandit90,1,0.93326,1,0.2,1
voc036a,86,bandit90,bandit30,bandit90,1,1.0169,1,0.6,1
voc036a,87,bandit10,bandit70,bandit70,2,1.2334,1,0.6,1
voc036a,88,bandit70,bandit50b,bandit70,1,4.2719,1,0.2,1
voc036a,89,bandit30,bandit50b,bandit50b,2,1.3003,1,0.2,1
voc036a,90,bandit90,bandit50a,bandit90,1,1.1362,1,0.4,1
voc037a,1,bandit50a,bandit90,bandit90,2,5.1091,1,0.4,1
voc037a,2,bandit50b,bandit70,bandit70,2,4.4382,1,0.2,1
voc037a,3,bandit30,bandit90,bandit90,2,3.3396,1,0.6,1
voc037a,4,bandit70,bandit30,bandit70,1,9.8302,1,0.4,1
voc037a,5,bandit50b,bandit90,bandit90,2,0.95184,1,0.4,1
voc037a,6,bandit50b,bandit10,bandit50b,1,1.3937,1,0.4,1
voc037a,7,bandit50a,bandit10,bandit50a,1,1.7548,1,0.4,1
voc037a,8,bandit90,bandit10,bandit90,1,1.9495,1,0.8,1
voc037a,9,bandit70,bandit90,bandit90,2,4.1123,1,0.2,1
voc037a,10,bandit30,bandit10,bandit10,2,4.6746,-1,0.2,0
voc037a,11,bandit50a,bandit30,bandit50a,1,0.98953,1,0.2,1
voc037a,12,bandit50a,bandit70,bandit70,2,3.8866,1,0.2,1
voc037a,13,bandit50a,bandit50b,bandit50b,2,3.7701,0,0,0
voc037a,14,bandit50b,bandit30,bandit50b,1,1.882,1,0.2,1
voc037a,15,bandit70,bandit10,bandit70,1,1.3747,1,0.6,1
voc037a,16,bandit10,bandit70,bandit70,2,1.6886,1,0.6,1
voc037a,17,bandit70,bandit50a,bandit50a,2,7.0615,-1,0.2,0
voc037a,18,bandit90,bandit50a,bandit50a,2,0.90392,-1,0.4,0
voc037a,19,bandit70,bandit50b,bandit70,1,1.5887,1,0.2,1
voc037a,20,bandit10,bandit30,bandit10,1,3.8856,-1,0.2,0
voc037a,21,bandit10,bandit50a,bandit50a,2,2.1692,1,0.4,1
voc037a,22,bandit30,bandit70,bandit70,2,1.1382,1,0.4,1
voc037a,23,bandit90,bandit50b,bandit50b,2,2.8456,-1,0.4,0
voc037a,24,bandit90,bandit30,bandit90,1,1.4122,1,0.6,1
voc037a,25,bandit30,bandit50a,bandit50a,2,1.0923,1,0.2,1
voc037a,26,bandit30,bandit50b,bandit50b,2,3.4019,1,0.2,1
voc037a,27,bandit10,bandit50b,bandit50b,2,2.4653,1,0.4,1
voc037a,28,bandit90,bandit70,bandit70,2,2.2618,-1,0.2,0
voc037a,29,bandit10,bandit90,bandit90,2,3.1555,1,0.8,1
voc037a,30,bandit50b,bandit50a,bandit50b,1,0.90805,0,0,0
voc037a,31,bandit50b,bandit30,bandit50b,1,0.82591,1,0.2,1
voc037a,32,bandit30,bandit90,bandit90,2,1.1536,1,0.6,1
voc037a,33,bandit70,bandit30,bandit70,1,0.62871,1,0.4,1
voc037a,34,bandit50a,bandit50b,bandit50a,1,1.5647,0,0,0
voc037a,35,bandit50b,bandit10,bandit50b,1,0.8465,1,0.4,1
voc037a,36,bandit30,bandit10,bandit30,1,1.7098,1,0.2,1
voc037a,37,bandit70,bandit90,bandit90,2,1.3216,1,0.2,1
voc037a,38,bandit50b,bandit70,bandit70,2,0.8378,1,0.2,1
voc037a,39,bandit70,bandit10,bandit70,1,0.83665,1,0.6,1
voc037a,40,bandit90,bandit10,bandit90,1,2.4448,1,0.8,1
voc037a,41,bandit50b,bandit90,bandit90,2,1.4422,1,0.4,1
voc037a,42,bandit50a,bandit10,bandit50a,1,1.4823,1,0.4,1
voc037a,43,bandit50a,bandit90,bandit50a,1,0.75034,-1,0.4,0
voc037a,44,bandit50a,bandit70,bandit70,2,1.017,1,0.2,1
voc037a,45,bandit50a,bandit30,bandit50a,1,1.2896,1,0.2,1
voc037a,46,bandit10,bandit50a,bandit50a,2,0.72759,1,0.4,1
voc037a,47,bandit70,bandit50b,bandit70,1,1.1159,1,0.2,1
voc037a,48,bandit90,bandit70,bandit70,2,1.5832,-1,0.2,0
voc037a,49,bandit30,bandit50a,bandit50a,2,1.609e-4,1,0.2,1
voc037a,50,bandit10,bandit30,bandit10,1,2.4738,-1,0.2,0
voc037a,51,bandit10,bandit70,bandit70,2,2.1266,1,0.6,1
voc037a,52,bandit70,bandit50a,bandit70,1,1.746,1,0.2,1
voc037a,53,bandit90,bandit30,bandit90,1,2.7081,1,0.6,1
voc037a,54,bandit30,bandit50b,bandit50b,2,1.465,1,0.2,1
voc037a,55,bandit90,bandit50a,bandit50a,2,0.86176,-1,0.4,0
voc037a,56,bandit10,bandit50b,bandit10,1,0.4776,-1,0.4,0
voc037a,57,bandit50b,bandit50a,bandit50b,1,0.82686,0,0,0
voc037a,58,bandit90,bandit50b,bandit50b,2,1.3388,-1,0.4,0
voc037a,59,bandit10,bandit90,bandit90,2,1.0631,1,0.8,1
voc037a,60,bandit30,bandit70,bandit70,2,0.78054,1,0.4,1
voc037a,61,bandit50b,bandit10,bandit50b,1,1.1106,1,0.4,1
voc037a,62,bandit70,bandit90,bandit70,1,1.4118,-1,0.2,0
voc037a,63,bandit50b,bandit90,bandit90,2,0.82013,1,0.4,1
voc037a,64,bandit50b,bandit70,bandit50b,1,4.1322,-1,0.2,0
voc037a,65,bandit50a,bandit30,bandit50a,1,4.686,1,0.2,1
voc037a,66,bandit30,bandit10,bandit30,1,5.4483,1,0.2,1
voc037a,67,bandit70,bandit10,bandit70,1,0.87667,1,0.6,1
voc037a,68,bandit30,bandit90,bandit90,2,1.6108,1,0.6,1
voc037a,69,bandit50a,bandit50b,bandit50a,1,0.88359,0,0,0
voc037a,70,bandit70,bandit30,bandit70,1,1.001,1,0.4,1
voc037a,71,bandit50a,bandit90,bandit50a,1,1.5843,-1,0.4,0
voc037a,72,bandit50b,bandit30,bandit50b,1,1.7304,1,0.2,1
voc037a,73,bandit90,bandit10,bandit90,1,1.1004,1,0.8,1
voc037a,74,bandit50a,bandit10,bandit50a,1,0.68144,1,0.4,1
voc037a,75,bandit50a,bandit70,bandit50a,1,0.91941,-1,0.2,0
voc037a,76,bandit10,bandit70,bandit70,2,0.92328,1,0.6,1
voc037a,77,bandit30,bandit50a,bandit50a,2,2.0719,1,0.2,1
voc037a,78,bandit30,bandit70,bandit70,2,3.5728,1,0.4,1
voc037a,79,bandit10,bandit50b,bandit50b,2,4.8936,1,0.4,1
voc037a,80,bandit30,bandit50b,bandit50b,2,1.2069,1,0.2,1
voc037a,81,bandit90,bandit70,bandit90,1,1.4406,1,0.2,1
voc037a,82,bandit90,bandit50b,bandit50b,2,1.0311,-1,0.4,0
voc037a,83,bandit90,bandit30,bandit90,1,2.1033,1,0.6,1
voc037a,84,bandit10,bandit30,bandit30,2,1.2819,1,0.2,1
voc037a,85,bandit90,bandit50a,bandit50a,2,1.4163,-1,0.4,0
voc037a,86,bandit10,bandit90,bandit90,2,1.3276,1,0.8,1
voc037a,87,bandit10,bandit50a,bandit50a,2,1.6432,1,0.4,1
voc037a,88,bandit70,bandit50b,bandit70,1,0.77088,1,0.2,1
voc037a,89,bandit50b,bandit50a,bandit50b,1,1.9405,0,0,0
voc037a,90,bandit70,bandit50a,bandit50a,2,2.2472,-1,0.2,0
voc039a,1,bandit70,bandit90,bandit90,2,2.5291,1,0.2,1
voc039a,2,bandit50a,bandit70,bandit50a,1,3.5626,-1,0.2,0
voc039a,3,bandit50b,bandit30,bandit50b,1,1.6189,1,0.2,1
voc039a,4,bandit50a,bandit90,bandit90,2,2.0599,1,0.4,1
voc039a,5,bandit50a,bandit30,bandit50a,1,2.5526,1,0.2,1
voc039a,6,bandit50a,bandit10,bandit50a,1,3.7633,1,0.4,1
voc039a,7,bandit50b,bandit10,bandit50b,1,2.0759,1,0.4,1
voc039a,8,bandit70,bandit30,bandit30,2,2.9051,-1,0.4,0
voc039a,9,bandit30,bandit90,bandit90,2,1.0685,1,0.6,1
voc039a,10,bandit50a,bandit50b,bandit50b,2,8.1701,0,0,0
voc039a,11,bandit50b,bandit70,bandit50b,1,2.7917,-1,0.2,0
voc039a,12,bandit30,bandit10,bandit30,1,8.9197,1,0.2,1
voc039a,13,bandit50b,bandit90,bandit90,2,1.2942,1,0.4,1
voc039a,14,bandit90,bandit10,bandit90,1,1.1625,1,0.8,1
voc039a,15,bandit70,bandit10,bandit70,1,5.861,1,0.6,1
voc039a,16,bandit10,bandit50a,bandit50a,2,2.6399,1,0.4,1
voc039a,17,bandit30,bandit50b,bandit50b,2,8.2867,1,0.2,1
voc039a,18,bandit10,bandit30,bandit30,2,4.4229,1,0.2,1
voc039a,19,bandit90,bandit50b,bandit90,1,1.2132,1,0.4,1
voc039a,20,bandit30,bandit70,bandit30,1,10.2693,-1,0.4,0
voc039a,21,bandit90,bandit50a,bandit90,1,1.165,1,0.4,1
voc039a,22,bandit90,bandit30,bandit90,1,1.1029,1,0.6,1
voc039a,23,bandit50b,bandit50a,bandit50a,2,6.7563,0,0,0
voc039a,24,bandit70,bandit50b,bandit50b,2,3.0334,-1,0.2,0
voc039a,25,bandit30,bandit50a,bandit30,1,6.6404,-1,0.2,0
voc039a,26,bandit10,bandit70,bandit70,2,10.3076,1,0.6,1
voc039a,27,bandit10,bandit90,bandit90,2,0.79327,1,0.8,1
voc039a,28,bandit10,bandit50b,bandit50b,2,1.0023,1,0.4,1
voc039a,29,bandit90,bandit70,bandit90,1,1.1405,1,0.2,1
voc039a,30,bandit70,bandit50a,bandit50a,2,1.9512,-1,0.2,0
voc039a,31,bandit50b,bandit10,bandit50b,1,3.1773,1,0.4,1
voc039a,32,bandit50a,bandit30,bandit30,2,5.7938,-1,0.2,0
voc039a,33,bandit50b,bandit90,bandit90,2,1.0798,1,0.4,1
voc039a,34,bandit50a,bandit10,bandit50a,1,1.6931,1,0.4,1
voc039a,35,bandit70,bandit30,bandit30,2,1.5699,-1,0.4,0
voc039a,36,bandit50b,bandit30,bandit50b,1,2.3879,1,0.2,1
voc039a,37,bandit50b,bandit70,bandit50b,1,1.1393,-1,0.2,0
voc039a,38,bandit50a,bandit50b,bandit50a,1,4.8078,0,0,0
voc039a,39,bandit70,bandit10,bandit70,1,1.4856,1,0.6,1
voc039a,40,bandit70,bandit90,bandit90,2,0.6747,1,0.2,1
voc039a,41,bandit90,bandit10,bandit90,1,1.1455,1,0.8,1
voc039a,42,bandit50a,bandit90,bandit90,2,1.0035,1,0.4,1
voc039a,43,bandit30,bandit10,bandit30,1,5.5957,1,0.2,1
voc039a,44,bandit30,bandit90,bandit90,2,1.6034,1,0.6,1
voc039a,45,bandit50a,bandit70,bandit50a,1,2.0987,-1,0.2,0
voc039a,46,bandit90,bandit30,bandit90,1,3.9997,1,0.6,1
voc039a,47,bandit90,bandit50b,bandit90,1,2.2378,1,0.4,1
voc039a,48,bandit10,bandit70,bandit70,2,2.8923,1,0.6,1
voc039a,49,bandit30,bandit50a,bandit30,1,0.16782,-1,0.2,0
voc039a,50,bandit70,bandit50a,bandit50a,2,4.2589,-1,0.2,0
voc039a,51,bandit90,bandit50a,bandit90,1,0.80687,1,0.4,1
voc039a,52,bandit30,bandit70,bandit70,2,13.4245,1,0.4,1
voc039a,53,bandit30,bandit50b,bandit50b,2,2.7111,1,0.2,1
voc039a,54,bandit90,bandit70,bandit90,1,0.81858,1,0.2,1
voc039a,55,bandit70,bandit50b,bandit50b,2,4.675,-1,0.2,0
voc039a,56,bandit10,bandit30,bandit30,2,1.2297,1,0.2,1
voc039a,57,bandit10,bandit50a,bandit50a,2,1.4529,1,0.4,1
voc039a,58,bandit50b,bandit50a,bandit50a,2,2.2758,0,0,0
voc039a,59,bandit10,bandit90,bandit90,2,1.2333,1,0.8,1
voc039a,60,bandit10,bandit50b,bandit50b,2,1.1679,1,0.4,1
voc039a,61,bandit90,bandit10,bandit90,1,0.56972,1,0.8,1
voc039a,62,bandit70,bandit10,bandit70,1,4.1084,1,0.6,1
voc039a,63,bandit50b,bandit10,bandit50b,1,0.97555,1,0.4,1
